time,seconds_elapsed,z,y,x
1696958661080622800,0.143622802734375,-0.050199106335639954,-0.05113118514418602,-0.007323476951569319
1696958661090638000,0.15363818359375,-0.050199106335639954,-0.03941362351179123,0.006524552125483751
1696958661100655600,0.163655517578125,-0.054460037499666214,0.004260932095348835,-0.013714875094592571
1696958661110674700,0.1736748046875,-0.06404713541269302,-0.0159784946590662,-0.022236740216612816
1696958661120695600,0.183695556640625,-0.067242830991745,0.03941362351179123,0.012915950268507004
1696958661130717400,0.193717529296875,-0.06298190355300903,0.01491326279938221,0.005459319334477186
1696958661140740400,0.203740234375,-0.067242830991745,0.01810896210372448,-0.009453942999243736
1696958661150763500,0.213763427734375,-0.0778951644897461,0.02450035884976387,0.015046416781842709
1696958661160786400,0.223786376953125,-0.06937330216169357,0.0426093190908432,-0.004127778112888336
1696958661170799900,0.2337998046875,-0.05659050494432449,-0.02769605815410614,0.037416309118270874
1696958661180813300,0.243813232421875,-0.07363422960042953,-0.02450035884976387,-0.031823836266994476
1696958661190826500,0.253826416015625,-0.0768299326300621,0.05539211630821228,0.041677240282297134
1696958661200839700,0.263839599609375,-0.0555252730846405,-0.04580501839518547,0.011850717477500439
1696958661210853000,0.27385302734375,-0.07043853402137756,-0.0106523297727108,-0.014780107885599136
1696958661220866300,0.2838662109375,-0.07896039634943008,0.01810896210372448,0.016111649572849274
1696958661230879500,0.29387939453125,-0.067242830991745,-0.0010652330238372087,0.013981183059513569
1696958661240893000,0.303892822265625,-0.06511236727237701,-0.01704372838139534,0.004394086077809334
1696958661250906000,0.313906005859375,-0.08428656309843063,0.0106523297727108,-0.012649642303586006
1696958661260919600,0.32391943359375,-0.07896039634943008,0.02663082629442215,0.025698747485876083
1696958661270932700,0.3339326171875,-0.06937330216169357,-0.04367455467581749,0.0001331541279796511
1696958661280946000,0.34394580078125,-0.0768299326300621,-0.0426093190908432,-0.012649642303586006
1696958661290959400,0.35395947265625,-0.08215609937906265,0.0053261648863554,0.03209014609456062
1696958661300972500,0.36397265625,-0.08002562820911407,-0.04154408723115921,-0.030758604407310486
1696958661310986000,0.373986083984375,-0.07576470077037811,-0.02450035884976387,0.03848154470324516
1696958661320999200,0.383999267578125,-0.08961272984743118,-0.05858781561255455,-0.031823836266994476
1696958661331012400,0.394012451171875,-0.09387365728616714,0.0213046595454216,-0.0030625448562204838
1696958661341025800,0.40402587890625,-0.08641702681779861,-0.04047885537147522,0.040612008422613144
1696958661351039000,0.4140390625,-0.09280842542648315,-0.04154408723115921,-0.07017222791910172
1696958661361052200,0.42405224609375,-0.0991998240351677,-0.004260932095348835,0.04593817517161369
1696958661371065600,0.434065673828125,-0.09706936031579971,-0.03089175745844841,-0.03288906812667847
1696958661381078800,0.444078857421875,-0.09600412845611572,-0.02236989326775074,0.0011983871227130294
1696958661391092200,0.45409228515625,-0.10452599078416824,-0.05539211630821228,-0.030758604407310486
1696958661401105400,0.46410546875,-0.10559122264385223,-0.0063913981430232525,0.008655018173158169
1696958661411118600,0.47411865234375,-0.10133028775453568,-0.02236989326775074,-0.012649642303586006
1696958661421132000,0.484132080078125,-0.10665645450353622,-0.01917419396340847,-0.042476166039705276
1696958661431145200,0.494145263671875,-0.11198262125253677,-0.012782796286046505,0.025698747485876083
1696958661441158400,0.504158447265625,-0.10665645450353622,0.004260932095348835,-0.029693370684981346
1696958661451171800,0.514171875,-0.10772168636322021,0.007456631399691105,0.009720250964164734
1696958661461185300,0.524185302734375,-0.11624355614185333,0,-0.05312849581241608
1696958661471198500,0.534198486328125,-0.11198262125253677,0.03408745676279068,0.047003407031297684
1696958661481212000,0.5442119140625,-0.10985215753316879,-0.0031956990715116262,-0.030758604407310486
1696958661491225000,0.55422509765625,-0.10985215753316879,-0.0159784946590662,-0.006258244160562754
1696958661501238500,0.564238525390625,-0.11730878800153732,-0.004260932095348835,-0.004127778112888336
1696958661511252000,0.574251953125,-0.11198262125253677,0.02023942768573761,0.013981183059513569
1696958661521265200,0.58426513671875,-0.10772168636322021,-0.05645735189318657,-0.026497671380639076
1696958661531278600,0.594278564453125,-0.12156971544027328,-0.0031956990715116262,-0.021171506494283676
1696958661541291800,0.604291748046875,-0.1205044835805893,0.01491326279938221,0.018242115154862404
1696958661551305200,0.61430517578125,-0.11091738939285278,-0.05006595328450203,-0.031823836266994476
1696958661561318400,0.624318359375,-0.1205044835805893,-0.02023942768573761,-0.021171506494283676
1696958661571331800,0.634331787109375,-0.1311568170785904,-0.0053261648863554,-0.010519175790250301
1696958661581345300,0.64434521484375,-0.12263495475053787,-0.00852186419069767,-0.019041040912270546
1696958661591358700,0.654358642578125,-0.12156971544027328,-0.04154408723115921,-0.017975807189941406
1696958661601372200,0.6643720703125,-0.13435252010822296,-0.01704372838139534,-0.040345702320337296
1696958661611385300,0.67438525390625,-0.13648298382759094,0.05219641700387001,-0.001997311832383275
1696958661621398800,0.684398681640625,-0.13328728079795837,-0.02663082629442215,-0.04673709720373154
1696958661631412200,0.694412109375,-0.13328728079795837,-0.0063913981430232525,-0.014780107885599136
1696958661641425700,0.70442578125,-0.13861344754695892,-0.0063913981430232525,-0.040345702320337296
1696958661651439000,0.714439208984375,-0.1407439112663269,0.02450035884976387,-0.031823836266994476
1696958661661452300,0.724452392578125,-0.13435252010822296,0.0031956990715116262,-0.009453942999243736
1696958661671465700,0.7344658203125,-0.13861344754695892,-0.0159784946590662,-0.058454662561416626
1696958661681479200,0.744479248046875,-0.1407439112663269,0.009587096981704235,-0.021171506494283676
1696958661691492600,0.75449267578125,-0.13754820823669434,0.01810896210372448,-0.022236740216612816
1696958661701505800,0.764505859375,-0.13861344754695892,-0.02556559257209301,-0.05312849581241608
1696958661711519200,0.774519287109375,-0.1396786868572235,-0.0063913981430232525,-0.016910573467612267
1696958661721532700,0.78453271484375,-0.13754820823669434,0.0021304660476744175,-0.011584409512579441
1696958661731546000,0.794546142578125,-0.1311568170785904,-0.02769605815410614,-0.040345702320337296
1696958661741559600,0.8045595703125,-0.13754820823669434,-0.04154408723115921,-0.014780107885599136
1696958661751572700,0.81457275390625,-0.13861344754695892,-0.0159784946590662,-0.026497671380639076
1696958661761586200,0.824586181640625,-0.1311568170785904,-0.02982652559876442,0.0001331541279796511
1696958661771599600,0.834599609375,-0.13222205638885498,-0.012782796286046505,-0.006258244160562754
1696958661781613000,0.844613037109375,-0.14287437498569489,-0.0159784946590662,-0.022236740216612816
1696958661791626500,0.85462646484375,-0.1407439112663269,0.05539211630821228,-0.005193010903894901
1696958661801639700,0.8646396484375,-0.1300915777683258,-0.0021304660476744175,0.037416309118270874
1696958661811653000,0.874653076171875,-0.1396786868572235,-0.004260932095348835,-0.07443315535783768
1696958661821666600,0.88466650390625,-0.14713531732559204,0.07989247888326645,0.06937330216169357
1696958661831680000,0.894679931640625,-0.13435252010822296,0.02769605815410614,-0.033954303711652756
1696958661841693200,0.904693115234375,-0.13435252010822296,-0.009587096981704235,0.016111649572849274
1696958661851706600,0.91470654296875,-0.14713531732559204,0.04687025398015976,-0.009453942999243736
1696958661861720000,0.924719970703125,-0.1418091505765915,0.04154408723115921,0.040612008422613144
1696958661871733500,0.9347333984375,-0.1290263533592224,-0.007456631399691105,-0.024367205798625946
1696958661881746700,0.94474658203125,-0.13861344754695892,-0.01171756349503994,0.04274247586727142
1696958661891760000,0.954760009765625,-0.14607007801532745,0.04154408723115921,-0.008388710208237171
1696958661901773600,0.964773681640625,-0.13754820823669434,0.0319569893181324,0.036351077258586884
1696958661911786800,0.974786865234375,-0.1311568170785904,-0.05219641700387001,0.029959678649902344
1696958661921800200,0.98480029296875,-0.14607007801532745,0.02982652559876442,-0.005193010903894901
1696958661931813400,0.9948134765625,-0.14607007801532745,0.04473978653550148,0.027829213067889214
1696958661941826800,1.004826904296875,-0.13435252010822296,0.004260932095348835,0.033155377954244614
1696958661951840300,1.01484033203125,-0.1418091505765915,-0.02556559257209301,-0.016910573467612267
1696958661961853400,1.024853515625,-0.14926578104496002,0.03408745676279068,0.023568280041217804
1696958661971867000,1.034866943359375,-0.13861344754695892,0.01171756349503994,0.022503048181533813
1696958661981880000,1.044880126953125,-0.1396786868572235,-0.01810896210372448,-0.026497671380639076
1696958661991893500,1.0548935546875,-0.14287437498569489,-0.012782796286046505,0.008655018173158169
1696958662001906700,1.06490673828125,-0.14393961429595947,0.01171756349503994,-0.019041040912270546
1696958662011920100,1.074920166015625,-0.1396786868572235,-0.01384802907705307,-0.008388710208237171
1696958662021933600,1.08493359375,-0.1396786868572235,-0.03728315606713295,-0.029693370684981346
1696958662031946800,1.09494677734375,-0.1407439112663269,-0.02450035884976387,-0.013714875094592571
1696958662041960200,1.104960205078125,-0.1418091505765915,-0.02343512699007988,-0.04673709720373154
1696958662051973400,1.114973388671875,-0.13861344754695892,-0.00852186419069767,0.0011983871227130294
1696958662061986800,1.12498681640625,-0.14287437498569489,-0.01917419396340847,-0.06804175674915314
1696958662072000300,1.135000244140625,-0.14287437498569489,0.02663082629442215,-0.009453942999243736
1696958662082013400,1.145013427734375,-0.14713531732559204,0.07669677585363388,-0.045671865344047546
1696958662092027000,1.15502685546875,-0.14713531732559204,0.0745663121342659,-0.048867564648389816
1696958662102040000,1.1650400390625,-0.15672241151332855,0.1171756312251091,-0.06910699605941772
1696958662112053500,1.175053466796875,-0.15352670848369598,0.13208889961242676,-0.009453942999243736
1696958662122066700,1.185066650390625,-0.1524614691734314,0.11930610239505768,-0.09041165560483932
1696958662132080000,1.195080078125,-0.14820054173469543,0.07882724702358246,-0.06804175674915314
1696958662142093600,1.205093505859375,-0.14393961429595947,0.10332760214805603,-0.03928046673536301
1696958662152106800,1.215106689453125,-0.1290263533592224,0.03621792420744896,-0.0936073511838913
1696958662162120200,1.2251201171875,-0.13435252010822296,0.04473978653550148,-0.09999874979257584
1696958662172133400,1.23513330078125,-0.13754820823669434,0.06284874677658081,-0.044606633484363556
1696958662182146800,1.245146728515625,-0.1205044835805893,-0.007456631399691105,-0.0829550251364708
1696958662192160300,1.25516015625,-0.11411308497190475,0.03302222490310669,-0.07975932210683823
1696958662202173400,1.26517333984375,-0.12583065032958984,-0.007456631399691105,-0.1042596846818924
1696958662212187000,1.275186767578125,-0.10772168636322021,-0.0031956990715116262,-0.06910699605941772
1696958662222200000,1.285199951171875,-0.10239552706480026,-0.10758853703737259,-0.08402025699615479
1696958662232213500,1.295213623046875,-0.10452599078416824,-0.08308817446231842,-0.13941237330436707
1696958662242226700,1.305226806640625,-0.10665645450353622,0.01384802907705307,-0.026497671380639076
1696958662252240100,1.315240234375,-0.0991998240351677,-0.08628387749195099,-0.12982527911663055
1696958662262253600,1.325253662109375,-0.0991998240351677,-0.03834838792681694,-0.025432437658309937
1696958662272266800,1.335266845703125,-0.10346075892448425,0.004260932095348835,-0.14154283702373505
1696958662282280200,1.3452802734375,-0.10559122264385223,-0.02450035884976387,-0.020106272771954536
1696958662292293400,1.35529345703125,-0.10665645450353622,0.09800143539905548,-0.06910699605941772
1696958662302306800,1.365306884765625,-0.10452599078416824,0.03621792420744896,-0.028628136962652206
1696958662312320300,1.3753203125,-0.10452599078416824,-0.0031956990715116262,-0.0829550251364708
1696958662322333400,1.38533349609375,-0.10239552706480026,0.09693620353937149,-0.001997311832383275
1696958662332347000,1.395346923828125,-0.09493889659643173,-0.01171756349503994,-0.031823836266994476
1696958662342360300,1.4053603515625,-0.10026505589485168,0.01810896210372448,-0.03608476743102074
1696958662352373800,1.415373779296875,-0.09067796170711517,-0.02769605815410614,0.005459319334477186
1696958662362387000,1.425386962890625,-0.09067796170711517,0.02663082629442215,0.007589785382151604
1696958662372400400,1.435400390625,-0.1087869256734848,-0.03302222490310669,-0.050998032093048096
1696958662382413800,1.445413818359375,-0.09600412845611572,-0.06178351491689682,0.061916667968034744
1696958662392427300,1.45542724609375,-0.06937330216169357,-0.1065233051776886,0.031024912372231483
1696958662402440700,1.465440673828125,-0.08215609937906265,-0.06604444980621338,0.0033288532868027687
1696958662412454000,1.475453857421875,-0.08002562820911407,-0.1267627328634262,0.08641702681779861
1696958662422467300,1.48546728515625,-0.07896039634943008,-0.02343512699007988,-0.019041040912270546
1696958662432480800,1.495480712890625,-0.08002562820911407,-0.04473978653550148,0.09706936031579971
1696958662442494200,1.505494140625,-0.08641702681779861,-0.08415340632200241,-0.005193010903894901
1696958662452507600,1.515507568359375,-0.08322133123874664,0.04154408723115921,0.12156971544027328
1696958662462520800,1.525520751953125,-0.07150376588106155,-0.04580501839518547,0.043807707726955414
1696958662472534300,1.5355341796875,-0.0768299326300621,-0.02556559257209301,0.06830807030200958
1696958662482547700,1.545547607421875,-0.09387365728616714,0.05752258375287056,0.06830807030200958
1696958662492561200,1.55556103515625,-0.0778951644897461,0.02023942768573761,0.051264338195323944
1696958662502574300,1.56557421875,-0.0768299326300621,-0.02236989326775074,0.08109086751937866
1696958662512587800,1.575587890625,-0.08961272984743118,0.06604444980621338,0.057655736804008484
1696958662522601200,1.585601318359375,-0.08002562820911407,0.01704372838139534,0.08002562820911407
1696958662532614700,1.59561474609375,-0.07043853402137756,0.01491326279938221,0.09280842542648315
1696958662542628000,1.605628173828125,-0.0778951644897461,0.0053261648863554,0.0001331541279796511
1696958662552641300,1.615641357421875,-0.08535179495811462,0.03834838792681694,0.05978620424866676
1696958662562654700,1.62565478515625,-0.0768299326300621,0.02236989326775074,0.058720968663692474
1696958662572668200,1.635668212890625,-0.07363422960042953,0.0053261648863554,0.024633513763546944
1696958662582681600,1.645681640625,-0.07043853402137756,-0.03089175745844841,0.048068638890981674
1696958662592695000,1.655695068359375,-0.07469946891069412,-0.0031956990715116262,0.016111649572849274
1696958662602708200,1.665708251953125,-0.07256899774074554,0.009587096981704235,0.05659050494432449
1696958662612721700,1.6757216796875,-0.07043853402137756,-0.04687025398015976,-0.027562905102968216
1696958662622735000,1.685735107421875,-0.07256899774074554,-0.03408745676279068,0.053394805639982224
1696958662632748500,1.69574853515625,-0.07043853402137756,-0.02663082629442215,0.021437814459204674
1696958662642761700,1.70576171875,-0.07256899774074554,-0.02023942768573761,0.018242115154862404
1696958662652775200,1.715775146484375,-0.07363422960042953,-0.03302222490310669,0.028894444927573204
1696958662662788600,1.72578857421875,-0.07363422960042953,-0.03515268862247467,0.03209014609456062
1696958662672802000,1.735802001953125,-0.07043853402137756,-0.004260932095348835,0.012915950268507004
1696958662682815500,1.7458154296875,-0.07469946891069412,0.0063913981430232525,0.018242115154862404
1696958662692828700,1.75582861328125,-0.07256899774074554,0.02769605815410614,0.028894444927573204
1696958662702842000,1.765842041015625,-0.0768299326300621,0.06710968166589737,0.010785484686493874
1696958662712855600,1.77585546875,-0.07469946891069412,0.06924014538526535,0.022503048181533813
1696958662722869000,1.785868896484375,-0.07576470077037811,0.03621792420744896,-0.004127778112888336
1696958662732882400,1.79588232421875,-0.061916667968034744,0.06497921794652939,0.067242830991745
1696958662742895600,1.8058955078125,-0.054460037499666214,-0.012782796286046505,0.015046416781842709
1696958662752909000,1.815908935546875,-0.060851436108350754,0.09693620353937149,-0.004127778112888336
1696958662762922500,1.825922607421875,-0.057655736804008484,0.08202294260263443,0.1290263533592224
1696958662772936000,1.83593603515625,-0.05978620424866676,0.05539211630821228,-0.005193010903894901
1696958662782949000,1.84594921875,-0.07150376588106155,0.15126308798789978,0.11624355614185333
1696958662792962600,1.855962646484375,-0.08002562820911407,0.06604444980621338,0.057655736804008484
1696958662802976000,1.86597607421875,-0.025698747485876083,-0.03408745676279068,0.066177599132061
1696958662812989400,1.875989501953125,-0.036351077258586884,0.0031956990715116262,0.05978620424866676
1696958662823003000,1.8860029296875,-0.07896039634943008,0.08947957307100296,0.06298190355300903
1696958662833016000,1.89601611328125,-0.05978620424866676,-0.03089175745844841,0.0768299326300621
1696958662843029500,1.906029541015625,-0.025698747485876083,-0.06071828305721283,0.10772168636322021
1696958662853043000,1.91604296875,-0.04913387447595596,0.0010652330238372087,0.019307348877191544
1696958662863056400,1.926056396484375,-0.06937330216169357,0.02450035884976387,0.1205044835805893
1696958662873069800,1.93606982421875,-0.057655736804008484,0.0106523297727108,0.0981345921754837
1696958662883083000,1.9460830078125,-0.04274247586727142,-0.08202294260263443,0.10559122264385223
1696958662893096400,1.956096435546875,-0.06298190355300903,-0.10545806586742401,0.024633513763546944
1696958662903110000,1.96610986328125,-0.066177599132061,0.05219641700387001,0.1524614691734314
1696958662913123300,1.976123291015625,-0.07256899774074554,-0.05752258375287056,0.07043853402137756
1696958662923136500,1.986136474609375,-0.057655736804008484,-0.09800143539905548,0.0001331541279796511
1696958662933150000,1.99614990234375,-0.05978620424866676,-0.00852186419069767,0.10665645450353622
1696958662943163400,2.006163330078125,-0.058720968663692474,0.04154408723115921,0.066177599132061
1696958662953176800,2.0161767578125,-0.05659050494432449,-0.1288931965827942,-0.010519175790250301
1696958662963190300,2.026190185546875,-0.060851436108350754,-0.04047885537147522,0.0555252730846405
1696958662973203700,2.03620361328125,-0.060851436108350754,0.01917419396340847,0.03209014609456062
1696958662983217200,2.046217041015625,-0.06511236727237701,0.06178351491689682,0.027829213067889214
1696958662993230600,2.056230712890625,-0.057655736804008484,-0.07030537724494934,0.016111649572849274
1696958663003244000,2.066244140625,-0.0555252730846405,-0.04154408723115921,-0.058454662561416626
1696958663013257500,2.076257568359375,-0.061916667968034744,-0.01704372838139534,0.024633513763546944
1696958663023271000,2.08627099609375,-0.054460037499666214,0.0159784946590662,0.022503048181533813
1696958663033284400,2.096284423828125,-0.06404713541269302,-0.07243584841489792,-0.10958584398031235
1696958663043297800,2.1062978515625,-0.053394805639982224,-0.0426093190908432,0.07896039634943008
1696958663053311200,2.116311279296875,-0.03528584539890289,-0.12463226169347763,-0.08188978582620621
1696958663063324700,2.12632470703125,-0.041677240282297134,-0.0426093190908432,-0.1681736707687378
1696958663073338000,2.136338134765625,-0.07043853402137756,-0.11824086308479309,-0.006258244160562754
1696958663083351600,2.1463515625,-0.05659050494432449,0.00852186419069767,0.011850717477500439
1696958663093365000,2.156364990234375,-0.037416309118270874,-0.04047885537147522,-0.16497796773910522
1696958663103378400,2.16637841796875,-0.061916667968034744,0.03621792420744896,-0.040345702320337296
1696958663113391900,2.176391845703125,-0.05232957378029823,0.01491326279938221,-0.004127778112888336
1696958663123405300,2.1864052734375,-0.054460037499666214,-0.0159784946590662,-0.19800019264221191
1696958663133418800,2.196418701171875,-0.058720968663692474,0.0745663121342659,-0.010519175790250301
1696958663143432200,2.20643212890625,-0.057655736804008484,-0.01917419396340847,-0.08082455396652222
1696958663153445600,2.216445556640625,-0.06511236727237701,0.1278279572725296,-0.09786828607320786
1696958663163459000,2.226458984375,-0.05232957378029823,-0.05539211630821228,-0.037150003015995026
1696958663173472500,2.236472412109375,-0.058720968663692474,0.02876129187643528,-0.11917294561862946
1696958663183486000,2.24648583984375,-0.05232957378029823,0.02023942768573761,-0.023301972076296806
1696958663193499400,2.25649951171875,-0.05232957378029823,-0.03941362351179123,-0.10106398165225983
1696958663203512800,2.266512939453125,-0.058720968663692474,0.0063913981430232525,-0.055258963257074356
1696958663213526300,2.2765263671875,-0.054460037499666214,-0.0106523297727108,-0.06378082931041718
1696958663223539700,2.286539794921875,-0.060851436108350754,-0.0031956990715116262,-0.059519894421100616
1696958663233553200,2.29655322265625,-0.057655736804008484,-0.03621792420744896,-0.10212921351194382
1696958663243566600,2.306566650390625,-0.061916667968034744,0.01917419396340847,-0.042476166039705276
1696958663253580000,2.316580078125,-0.04913387447595596,-0.08947957307100296,-0.0712374597787857
1696958663263593500,2.326593505859375,-0.06404713541269302,-0.03728315606713295,-0.09041165560483932
1696958663273607000,2.33660693359375,-0.06937330216169357,0.02663082629442215,-0.07336792349815369
1696958663283620400,2.346620361328125,-0.061916667968034744,-0.02023942768573761,0.015046416781842709
1696958663293633800,2.3566337890625,-0.060851436108350754,-0.08628387749195099,-0.15112993121147156
1696958663303647200,2.366647216796875,-0.07469946891069412,0.07669677585363388,0.0001331541279796511
1696958663313660700,2.37666064453125,-0.07043853402137756,-0.05113118514418602,-0.048867564648389816
1696958663323674000,2.386674072265625,-0.061916667968034744,-0.0021304660476744175,-0.021171506494283676
1696958663333687600,2.3966875,-0.061916667968034744,0.01384802907705307,0.028894444927573204
1696958663343701000,2.406700927734375,-0.07363422960042953,0.04900071769952774,-0.04673709720373154
1696958663353714200,2.416714111328125,-0.07150376588106155,0.05645735189318657,0.0981345921754837
1696958663363727600,2.4267275390625,-0.08002562820911407,0.1065233051776886,0.033155377954244614
1696958663373741000,2.436740966796875,-0.08535179495811462,0.07350108027458191,0.053394805639982224
1696958663383754500,2.44675439453125,-0.07363422960042953,-0.13102366030216217,-0.004127778112888336
1696958663393768000,2.456767822265625,-0.061916667968034744,0.08415340632200241,0.14393961429595947
1696958663403781000,2.466781005859375,-0.08109086751937866,-0.05645735189318657,0.024633513763546944
1696958663413794600,2.476794677734375,-0.06937330216169357,-0.1267627328634262,-0.038215234875679016
1696958663423808000,2.48680810546875,-0.067242830991745,-0.02769605815410614,0.16630950570106506
1696958663433821400,2.496821533203125,-0.06937330216169357,-0.0532616525888443,-0.0936073511838913
1696958663443835000,2.5068349609375,-0.07256899774074554,-0.05858781561255455,0.10452599078416824
1696958663453848000,2.51684814453125,-0.08322133123874664,-0.07776200771331787,-0.047802332788705826
1696958663463861500,2.526861572265625,-0.0778951644897461,-0.0031956990715116262,0.05978620424866676
1696958663473875000,2.536875,-0.07256899774074554,-0.08841434121131897,-0.033954303711652756
1696958663483888400,2.546888427734375,-0.07896039634943008,-0.12995843589305878,0.016111649572849274
1696958663493901600,2.556901611328125,-0.0874822586774826,0.03941362351179123,-0.008388710208237171
1696958663503915000,2.5669150390625,-0.09387365728616714,-0.05113118514418602,0.008655018173158169
1696958663513928400,2.576928466796875,-0.0981345921754837,0.05006595328450203,-0.026497671380639076
1696958663523942000,2.58694189453125,-0.0981345921754837,-0.0319569893181324,0.06298190355300903
1696958663533955300,2.596955322265625,-0.08535179495811462,-0.02769605815410614,-0.07762885838747025
1696958663543968500,2.606968505859375,-0.09706936031579971,0.00852186419069767,0.11091738939285278
1696958663553982000,2.61698193359375,-0.10452599078416824,-0.04900071769952774,-0.08188978582620621
1696958663563995400,2.626995361328125,-0.08322133123874664,-0.08947957307100296,0.11091738939285278
1696958663574008800,2.6370087890625,-0.08002562820911407,-0.06817491352558136,-0.020106272771954536
1696958663584022300,2.647022216796875,-0.10665645450353622,-0.04687025398015976,-0.011584409512579441
1696958663594035500,2.657035400390625,-0.09493889659643173,-0.10013190656900406,0.061916667968034744
1696958663604049000,2.667048828125,-0.10772168636322021,0.09054480493068695,-0.004127778112888336
1696958663614062300,2.677062255859375,-0.10133028775453568,-0.09267527610063553,-0.005193010903894901
1696958663624075800,2.68707568359375,-0.10985215753316879,0.03089175745844841,0.0001331541279796511
1696958663634089000,2.6970888671875,-0.1205044835805893,0.05113118514418602,0.07576470077037811
1696958663644102400,2.707102294921875,-0.10133028775453568,-0.08095771074295044,-0.10958584398031235
1696958663654115800,2.71711572265625,-0.09387365728616714,0.0010652330238372087,0.0991998240351677
1696958663664129300,2.72712939453125,-0.1290263533592224,0.07030537724494934,-0.09893351793289185
1696958663674142700,2.737142822265625,-0.10985215753316879,-0.08734910935163498,0.033155377954244614
1696958663684156000,2.747156005859375,-0.1194392517209053,-0.06178351491689682,-0.060585130006074905
1696958663694169300,2.75716943359375,-0.12689588963985443,0.03621792420744896,0.0001331541279796511
1696958663704182800,2.767182861328125,-0.1407439112663269,-0.15232832729816437,-0.1255643367767334
1696958663714196200,2.7771962890625,-0.11091738939285278,-0.21837277710437775,-0.1138467788696289
1696958663724209700,2.787209716796875,-0.10559122264385223,-0.1821548491716385,-0.043541401624679565
1696958663734222800,2.797222900390625,-0.10452599078416824,-0.06497921794652939,-0.06804175674915314
1696958663744236300,2.807236328125,-0.11091738939285278,-0.09374050796031952,-0.10106398165225983
1696958663754249700,2.817249755859375,-0.0778951644897461,-0.16724158823490143,-0.03288906812667847
1696958663764263200,2.82726318359375,-0.1300915777683258,0.10332760214805603,-0.16284750401973724
1696958663774276600,2.837276611328125,-0.13754820823669434,-0.03302222490310669,-0.05632419511675835
1696958663784290000,2.8472900390625,-0.12796111404895782,-0.06710968166589737,-0.014780107885599136
1696958663794303500,2.857303466796875,-0.13648298382759094,0.03834838792681694,-0.10532491654157639
1696958663804317000,2.86731689453125,-0.12263495475053787,-0.12569749355316162,0.020372580736875534
1696958663814330400,2.877330322265625,-0.1205044835805893,-0.05645735189318657,-0.12236864119768143
1696958663824343800,2.88734375,-0.15033100545406342,0.05858781561255455,-0.047802332788705826
1696958663834357200,2.897357177734375,-0.12476541846990585,-0.1171756312251091,-0.035019535571336746
1696958663844370700,2.90737060546875,-0.13222205638885498,0.01704372838139534,-0.029693370684981346
1696958663854384000,2.917384033203125,-0.15033100545406342,0.03728315606713295,-0.057389430701732635
1696958663864397600,2.9273974609375,-0.14500483870506287,-0.06604444980621338,0.011850717477500439
1696958663874411000,2.937410888671875,-0.12156971544027328,-0.1288931965827942,-0.042476166039705276
1696958663884424400,2.947424560546875,-0.10559122264385223,-0.1395455300807953,-0.007323476951569319
1696958663894438000,2.95743798828125,-0.16098333895206451,0.07137060910463333,-0.023301972076296806
1696958663904451300,2.967451416015625,-0.151396244764328,-0.06284874677658081,0.021437814459204674
1696958663914464800,2.97746484375,-0.14713531732559204,-0.07882724702358246,0.005459319334477186
1696958663924478200,2.987478271484375,-0.15885287523269653,-0.02450035884976387,-0.026497671380639076
1696958663934491600,2.99749169921875,-0.15459194779396057,-0.02663082629442215,0.048068638890981674
1696958663944505000,3.007505126953125,-0.1524614691734314,-0.1288931965827942,-0.09786828607320786
1696958663954518500,3.0175185546875,-0.14607007801532745,0.05113118514418602,0.09174319356679916
1696958663964532000,3.027531982421875,-0.15885287523269653,-0.0745663121342659,-0.004127778112888336
1696958663974545400,3.03754541015625,-0.15885287523269653,0.02236989326775074,-0.08721595257520676
1696958663984558800,3.047558837890625,-0.15033100545406342,-0.03515268862247467,0.1418091505765915
1696958663994572300,3.057572265625,-0.17802706360816956,0.00852186419069767,-0.19160878658294678
1696958664004585700,3.067585693359375,-0.15672241151332855,0.10119713842868805,0.0981345921754837
1696958664014599200,3.07759912109375,-0.13648298382759094,-0.18748101592063904,-0.0723026916384697
1696958664024612600,3.087612548828125,-0.15885287523269653,0.0958709716796875,-0.03288906812667847
1696958664034626000,3.0976259765625,-0.15033100545406342,0.01917419396340847,0.05659050494432449
1696958664044639500,3.107639404296875,-0.14820054173469543,-0.07882724702358246,-0.10106398165225983
1696958664054653000,3.11765283203125,-0.16524426639080048,0.11611039936542511,0.037416309118270874
1696958664064666400,3.127666259765625,-0.14607007801532745,-0.05113118514418602,0.0011983871227130294
1696958664074679800,3.1376796875,-0.14500483870506287,-0.03089175745844841,-0.03928046673536301
1696958664084693200,3.147693359375,-0.16417904198169708,0.04900071769952774,-0.0030625448562204838
1696958664094706700,3.157706787109375,-0.1524614691734314,-0.04580501839518547,0.043807707726955414
1696958664104720100,3.16772021484375,-0.1524614691734314,0.004260932095348835,0.0011983871227130294
1696958664114733600,3.177733642578125,-0.15672241151332855,0.07137060910463333,-0.027562905102968216
1696958664124747000,3.1877470703125,-0.13648298382759094,-0.11504516750574112,0.060851436108350754
1696958664134760400,3.197760498046875,-0.13861344754695892,0.01704372838139534,-0.009453942999243736
1696958664144774000,3.20777392578125,-0.15565717220306396,0.06284874677658081,0.00226362026296556
1696958664154787300,3.217787353515625,-0.13222205638885498,-0.04793548583984375,0.047003407031297684
1696958664164800800,3.22780078125,-0.11198262125253677,-0.02663082629442215,0.019307348877191544
1696958664174814200,3.237814208984375,-0.15033100545406342,0.04900071769952774,-0.07336792349815369
1696958664184827600,3.24782763671875,-0.16417904198169708,0.05432688444852829,0.0991998240351677
1696958664194841000,3.257841064453125,-0.1418091505765915,-0.0213046595454216,-0.004127778112888336
1696958664204854500,3.2678544921875,-0.10346075892448425,-0.04793548583984375,-0.06484606117010117
1696958664214868000,3.277867919921875,-0.14393961429595947,0.04900071769952774,0.017176883295178413
1696958664224881400,3.28788134765625,-0.1194392517209053,0.02982652559876442,0.054460037499666214
1696958664234894800,3.297894775390625,-0.13435252010822296,0.009587096981704235,-0.050998032093048096
1696958664244908300,3.307908203125,-0.13435252010822296,0.05006595328450203,0.00226362026296556
1696958664254921700,3.317921630859375,-0.14393961429595947,0.10545806586742401,0.10026505589485168
1696958664264935200,3.32793505859375,-0.15352670848369598,0.0958709716796875,-0.037150003015995026
1696958664274948600,3.337948486328125,-0.11091738939285278,-0.06710968166589737,0.06298190355300903
1696958664284962000,3.347962158203125,-0.13648298382759094,0.07350108027458191,-0.0009320789249613881
1696958664294975500,3.3579755859375,-0.13541774451732635,0.06817491352558136,0.07363422960042953
1696958664304988700,3.36798876953125,-0.1311568170785904,-0.09374050796031952,0.007589785382151604
1696958664315002000,3.378002197265625,-0.1418091505765915,-0.02769605815410614,0.08961272984743118
1696958664325015600,3.388015625,-0.12689588963985443,-0.1597849577665329,-0.010519175790250301
1696958664335029000,3.398029052734375,-0.11411308497190475,-0.15339355170726776,0.17057043313980103
1696958664345042400,3.40804248046875,-0.11837401986122131,-0.2013290375471115,0.018242115154862404
1696958664355055600,3.4180556640625,-0.12796111404895782,-0.05113118514418602,0.10559122264385223
1696958664365069000,3.428069091796875,-0.11198262125253677,-0.06071828305721283,0.1087869256734848
1696958664375082500,3.43808251953125,-0.12263495475053787,-0.10119713842868805,0.066177599132061
1696958664385096000,3.448095947265625,-0.1311568170785904,0.01384802907705307,0.058720968663692474
1696958664395109000,3.458109130859375,-0.12583065032958984,-0.0745663121342659,0.16843996942043304
1696958664405122600,3.46812255859375,-0.1407439112663269,-0.009587096981704235,-0.028628136962652206
1696958664415136000,3.478135986328125,-0.12476541846990585,-0.04154408723115921,0.18548369407653809
1696958664425149400,3.4881494140625,-0.10452599078416824,-0.10545806586742401,-0.08082455396652222
1696958664435163000,3.498162841796875,-0.12263495475053787,0.01917419396340847,0.17589659988880157
1696958664445176000,3.508176025390625,-0.11517832428216934,-0.09906667470932007,-0.050998032093048096
1696958664455189500,3.518189453125,-0.11730878800153732,-0.01917419396340847,0.15991811454296112
1696958664465203000,3.528202880859375,-0.09387365728616714,-0.0532616525888443,0.03209014609456062
1696958664475216400,3.53821630859375,-0.10665645450353622,0.01704372838139534,0.08961272984743118
1696958664485229800,3.548229736328125,-0.10452599078416824,-0.11078423261642456,-0.005193010903894901
1696958664495243000,3.558242919921875,-0.1087869256734848,-0.02876129187643528,0.11624355614185333
1696958664505256400,3.56825634765625,-0.08535179495811462,-0.0159784946590662,0.07363422960042953
1696958664515270000,3.578269775390625,-0.10133028775453568,0.03408745676279068,-0.016910573467612267
1696958664525283300,3.588283447265625,-0.060851436108350754,-0.10332760214805603,0.14713531732559204
1696958664535296500,3.598296630859375,-0.060851436108350754,-0.03515268862247467,-0.0925421193242073
1696958664545310000,3.60831005859375,-0.11304785311222076,0.13102366030216217,0.13541774451732635
1696958664555323400,3.618323486328125,-0.08961272984743118,-0.16617634892463684,0.013981183059513569
1696958664565336800,3.6283369140625,-0.060851436108350754,0.0213046595454216,0.020372580736875534
1696958664575350300,3.638350341796875,-0.0778951644897461,-0.0063913981430232525,0.057655736804008484
1696958664585363500,3.648363525390625,-0.08641702681779861,-0.1065233051776886,-0.0030625448562204838
1696958664595377000,3.658376953125,-0.09174319356679916,-0.004260932095348835,0.04913387447595596
1696958664605390300,3.668390380859375,-0.066177599132061,-0.09054480493068695,0.006524552125483751
1696958664615403800,3.67840380859375,-0.060851436108350754,0.0010652330238372087,0.043807707726955414
1696958664625417200,3.688417236328125,-0.11198262125253677,0.09693620353937149,-0.004127778112888336
1696958664635430400,3.698430419921875,-0.1194392517209053,0.05752258375287056,0.057655736804008484
1696958664645443800,3.70844384765625,-0.06937330216169357,-0.06817491352558136,0.028894444927573204
1696958664655457300,3.718457275390625,-0.06511236727237701,-0.01917419396340847,-0.03288906812667847
1696958664665470700,3.728470703125,-0.08428656309843063,0.0745663121342659,0.08535179495811462
1696958664675484200,3.738484130859375,-0.08215609937906265,0.05006595328450203,0.004394086077809334
1696958664685497300,3.748497314453125,-0.08109086751937866,0.0010652330238372087,0.023568280041217804
1696958664695510800,3.7585107421875,-0.07896039634943008,0.08841434121131897,0.07896039634943008
1696958664705524200,3.768524169921875,-0.08535179495811462,0.10545806586742401,-0.016910573467612267
1696958664715537700,3.77853759765625,-0.06404713541269302,0.06710968166589737,0.06298190355300903
1696958664725550800,3.78855078125,-0.07576470077037811,0.06710968166589737,0.028894444927573204
1696958664735564300,3.798564208984375,-0.0778951644897461,0.1587197184562683,0.007589785382151604
1696958664745577700,3.80857763671875,-0.06830807030200958,0.09161003679037094,0.1205044835805893
1696958664755591200,3.818591064453125,-0.07469946891069412,0.07350108027458191,-0.061650361865758896
1696958664765604600,3.8286044921875,-0.07150376588106155,0.10865376889705658,0.12476541846990585
1696958664775617800,3.83861767578125,-0.043807707726955414,0.0010652330238372087,-0.028628136962652206
1696958664785631200,3.84863134765625,-0.0768299326300621,0.11397993564605713,0.036351077258586884
1696958664795644700,3.858644775390625,-0.07363422960042953,0.03728315606713295,0.03528584539890289
1696958664805658000,3.868658203125,-0.03528584539890289,-0.01810896210372448,0.09067796170711517
1696958664815671600,3.878671630859375,-0.03209014609456062,0.0745663121342659,-0.009453942999243736
1696958664825684700,3.888684814453125,-0.07469946891069412,0.07776200771331787,0.025698747485876083
1696958664835698200,3.8986982421875,-0.06404713541269302,0.07563154399394989,0.09174319356679916
1696958664845711600,3.908711669921875,-0.04593817517161369,0.03834838792681694,0.08002562820911407
1696958664855725000,3.91872509765625,-0.026763979345560074,-0.03302222490310669,-0.052063263952732086
1696958664865738200,3.92873828125,-0.04593817517161369,0.16191542148590088,0.19613602757453918
1696958664875751700,3.938751708984375,-0.04913387447595596,0.09800143539905548,-0.03608476743102074
1696958664885765000,3.94876513671875,-0.050199106335639954,0.11824086308479309,0.12583065032958984
1696958664895778600,3.958778564453125,-0.033155377954244614,0.01704372838139534,0.026763979345560074
1696958664905792000,3.9687919921875,-0.018242115154862404,0.08947957307100296,0.10559122264385223
1696958664915805400,3.978805419921875,-0.053394805639982224,0.08841434121131897,0.021437814459204674
1696958664925819000,3.98881884765625,-0.03209014609456062,0.02343512699007988,0.12370018661022186
1696958664935832300,3.998832275390625,0.006258244160562754,-0.03621792420744896,0.007589785382151604
1696958664945845800,4.008845703125,0.015845341607928276,0.03408745676279068,0.11198262125253677
1696958664955859200,4.018859130859375,-0.03209014609456062,-0.009587096981704235,-0.054193731397390366
1696958664965872600,4.02887255859375,-0.057655736804008484,0.05645735189318657,0.1631138026714325
1696958664975886000,4.038885986328125,-0.07469946891069412,0.0021304660476744175,-0.017975807189941406
1696958664985899500,4.0488994140625,0.0030625448562204838,-0.15339355170726776,-0.001997311832383275
1696958664995913000,4.058912841796875,0.040345702320337296,-0.14487169682979584,0.034220609813928604
1696958665005926400,4.068926513671875,-0.019307348877191544,0.10545806586742401,-0.035019535571336746
1696958665015939800,4.07893994140625,-0.04593817517161369,0.0106523297727108,0.005459319334477186
1696958665025953300,4.088953369140625,0.041410934180021286,-0.2535254657268524,0.005459319334477186
1696958665035966700,4.098966796875,0.026497671380639076,-0.02556559257209301,0.010785484686493874
1696958665045980200,4.108980224609375,-0.03209014609456062,0.02236989326775074,-0.045671865344047546
1696958665055993600,4.11899365234375,-0.009720250964164734,-0.04793548583984375,0.026763979345560074
1696958665066007000,4.129007080078125,0.008388710208237171,-0.0021304660476744175,-0.06378082931041718
1696958665076020500,4.1390205078125,-0.008655018173158169,0.09374050796031952,0.050199106335639954
1696958665086034000,4.149033935546875,-0.024633513763546944,0.04154408723115921,-0.028628136962652206
1696958665096047400,4.15904736328125,-0.013981183059513569,0.04687025398015976,-0.050998032093048096
1696958665106060800,4.169060791015625,0.0030625448562204838,0.07137060910463333,0.10665645450353622
1696958665116074200,4.17907421875,0.031823836266994476,-0.0958709716796875,-0.06804175674915314
1696958665126087700,4.189087646484375,0.009453942999243736,0.11824086308479309,-0.03288906812667847
1696958665136101000,4.19910107421875,0.007323476951569319,0.08734910935163498,0.051264338195323944
1696958665146114600,4.209114501953125,0.024367205798625946,-0.004260932095348835,-0.06271559745073318
1696958665156128000,4.2191279296875,0.023301972076296806,0.05006595328450203,0.12370018661022186
1696958665166141400,4.229141357421875,-0.0033288532868027687,0.12995843589305878,-0.057389430701732635
1696958665176155000,4.23915478515625,-0.040612008422613144,0.20665520429611206,0.07363422960042953
1696958665186168300,4.249168212890625,0.031823836266994476,-0.13315412402153015,-0.0723026916384697
1696958665196181800,4.259181640625,0.022236740216612816,0.08734910935163498,0.07150376588106155
1696958665206195200,4.2691953125,-0.006524552125483751,0.05113118514418602,-0.07549838721752167
1696958665216208600,4.279208740234375,0.025432437658309937,0.004260932095348835,0.028894444927573204
1696958665226222000,4.28922216796875,0.04673709720373154,0.01491326279938221,0.1311568170785904
1696958665236235500,4.299235595703125,0.004127778112888336,0.02236989326775074,-0.18308693170547485
1696958665246249000,4.3092490234375,-0.00226362026296556,0.0745663121342659,0.08109086751937866
1696958665256262400,4.319262451171875,0.012649642303586006,-0.03302222490310669,-0.08615072071552277
1696958665266275800,4.32927587890625,0.005193010903894901,0.02982652559876442,0.12370018661022186
1696958665276289300,4.339289306640625,-0.011850717477500439,-0.07137060910463333,-0.14367330074310303
1696958665286302700,4.349302734375,-0.0001331541279796511,0.06817491352558136,0.07576470077037811
1696958665296316200,4.359316162109375,-0.015046416781842709,-0.01491326279938221,-0.0936073511838913
1696958665306329600,4.36932958984375,-0.013981183059513569,0.06710968166589737,-0.011584409512579441
1696958665316342800,4.3793427734375,0.025432437658309937,-0.0958709716796875,-0.03288906812667847
1696958665326356200,4.389356201171875,-0.0033288532868027687,0.00852186419069767,-0.12769481539726257
1696958665336369700,4.39936962890625,-0.025698747485876083,0.07243584841489792,0.004394086077809334
1696958665346383000,4.409383056640625,-0.0033288532868027687,0.02876129187643528,-0.15006470680236816
1696958665356396500,4.419396484375,0.030758604407310486,-0.0159784946590662,0.041677240282297134
1696958665366409700,4.42940966796875,-0.010785484686493874,0.03089175745844841,-0.23315288126468658
1696958665376423200,4.439423095703125,0.0030625448562204838,0.09161003679037094,0.10133028775453568
1696958665386436600,4.4494365234375,0.011584409512579441,-0.03834838792681694,-0.08188978582620621
1696958665396450000,4.459449951171875,0.022236740216612816,-0.02876129187643528,-0.3258281648159027
1696958665406463200,4.469463134765625,-0.004394086077809334,0.09906667470932007,0.10772168636322021
1696958665416476700,4.4794765625,-0.00226362026296556,-0.07137060910463333,-0.24593567848205566
1696958665426490000,4.489489990234375,0.052063263952732086,-0.0063913981430232525,-0.08188978582620621
1696958665436503600,4.499503662109375,0.029693370684981346,-0.04047885537147522,-0.10852061212062836
1696958665446517000,4.50951708984375,0.031823836266994476,0.05645735189318657,-0.10212921351194382
1696958665456530200,4.5195302734375,0.058454662561416626,-0.00852186419069767,-0.16178226470947266
1696958665466543600,4.529543701171875,0.07549838721752167,0.04687025398015976,-0.1351514458656311
1696958665476557000,4.53955712890625,0.048867564648389816,0.07882724702358246,-0.12449911236763
1696958665486570500,4.549570556640625,0.004127778112888336,0.1704372763633728,-0.145803764462471
1696958665496584000,4.559583984375,0.059519894421100616,0.02450035884976387,-0.06910699605941772
1696958665506597000,4.56959716796875,0.035019535571336746,0.06284874677658081,-0.23634858429431915
1696958665516610600,4.579610595703125,0.016910573467612267,0.1587197184562683,-0.016910573467612267
1696958665526624000,4.5896240234375,0.050998032093048096,-0.0745663121342659,-0.25658801198005676
1696958665536637400,4.599637451171875,0.06804175674915314,0.02876129187643528,0.028894444927573204
1696958665546651000,4.60965087890625,0.044606633484363556,-0.0021304660476744175,-0.25978371500968933
1696958665556664000,4.6196640625,0.027562905102968216,0.08628387749195099,-0.023301972076296806
1696958665566677500,4.629677490234375,0.05632419511675835,-0.11078423261642456,-0.1681736707687378
1696958665576691000,4.63969091796875,0.013714875094592571,0.06604444980621338,-0.0712374597787857
1696958665586704400,4.649704345703125,0.014780107885599136,0.01171756349503994,-0.07656362652778625
1696958665596717600,4.659717529296875,0.04673709720373154,0.0021304660476744175,-0.048867564648389816
1696958665606731000,4.66973095703125,0.048867564648389816,-0.03728315606713295,-0.04993279650807381
1696958665616744400,4.679744384765625,-0.006524552125483751,0.02769605815410614,-0.055258963257074356
1696958665626758000,4.6897578125,-0.019307348877191544,0.03941362351179123,0.033155377954244614
1696958665636771300,4.699771240234375,0.028628136962652206,-0.1587197184562683,-0.019041040912270546
1696958665646785300,4.709785400390625,0.03928046673536301,-0.08095771074295044,0.021437814459204674
1696958665656798700,4.719798828125,0.012649642303586006,-0.1491326242685318,0.007589785382151604
1696958665666812200,4.729812255859375,0.013714875094592571,-0.01171756349503994,0.0874822586774826
1696958665676825600,4.73982568359375,0.04993279650807381,-0.10332760214805603,0.017176883295178413
1696958665686839000,4.749839111328125,0.007323476951569319,-0.04793548583984375,-0.040345702320337296
1696958665696852200,4.759852294921875,-0.0011983871227130294,-0.004260932095348835,0.20039696991443634
1696958665706865700,4.76986572265625,-0.033155377954244614,0.0021304660476744175,-0.0712374597787857
1696958665716879000,4.779879150390625,0.004127778112888336,-0.02769605815410614,0.12476541846990585
1696958665726892500,4.789892578125,0.013714875094592571,-0.12569749355316162,0.026763979345560074
1696958665736906000,4.799906005859375,0.037150003015995026,-0.03941362351179123,0.066177599132061
1696958665746919200,4.809919189453125,-0.008655018173158169,-0.05006595328450203,-0.006258244160562754
1696958665756932600,4.8199326171875,-0.013981183059513569,-0.03089175745844841,0.10346075892448425
1696958665766946000,4.829946044921875,0.013714875094592571,-0.13208889961242676,0.05659050494432449
1696958665776959500,4.83995947265625,0.060585130006074905,-0.08202294260263443,-0.045671865344047546
1696958665786972700,4.84997265625,0.041410934180021286,-0.13634982705116272,0.12263495475053787
1696958665796986000,4.859986083984375,-0.005459319334477186,-0.06497921794652939,-0.08082455396652222
1696958665806999600,4.86999951171875,-0.008655018173158169,0.06924014538526535,0.22383208572864532
1696958665817013000,4.880012939453125,0.07549838721752167,-0.27269965410232544,-0.14367330074310303
1696958665827026400,4.8900263671875,0.028628136962652206,0.02876129187643528,0.10346075892448425
1696958665837039600,4.90003955078125,-0.025698747485876083,-0.01491326279938221,0.13435252010822296
1696958665847053000,4.910052978515625,0.011584409512579441,-0.0319569893181324,-0.08721595257520676
1696958665857066500,4.92006640625,0.05632419511675835,-0.00852186419069767,0.09706936031579971
1696958665867080000,4.930079833984375,0.030758604407310486,-0.06071828305721283,-0.012649642303586006
1696958665877093400,4.94009326171875,-0.006524552125483751,0.01171756349503994,-0.008388710208237171
1696958665887106600,4.9501064453125,0.03608476743102074,-0.09480573982000351,0.006524552125483751
1696958665897120500,4.96012060546875,0.044606633484363556,-0.08841434121131897,-0.008388710208237171
1696958665907134000,4.970134033203125,0.044606633484363556,-0.05219641700387001,-0.009453942999243736
1696958665917147100,4.980147216796875,0.0030625448562204838,0.04900071769952774,-0.009453942999243736
1696958665927160300,4.990160400390625,0.004127778112888336,0.0213046595454216,-0.008388710208237171
1696958665937173800,5.000173828125,0.023301972076296806,-0.06817491352558136,0.005459319334477186
1696958665947187000,5.01018701171875,0.009453942999243736,-0.0010652330238372087,0.004394086077809334
1696958665957200400,5.020200439453125,0.006258244160562754,-0.03302222490310669,-0.017975807189941406
1696958665967213600,5.030213623046875,0.021171506494283676,-0.1480673849582672,0.11304785311222076
1696958665977226800,5.040226806640625,0.011584409512579441,-0.02556559257209301,-0.059519894421100616
1696958665987240200,5.050240234375,-0.018242115154862404,-0.03515268862247467,0.1087869256734848
1696958665997253400,5.06025341796875,-0.03209014609456062,-0.02982652559876442,-0.012649642303586006
1696958666007266800,5.070266845703125,-0.048068638890981674,0.08628387749195099,0.09600412845611572
1696958666017280000,5.080280029296875,-0.009720250964164734,-0.15232832729816437,-0.005193010903894901
1696958666027293400,5.09029345703125,-0.025698747485876083,-0.11824086308479309,-0.013714875094592571
1696958666037307000,5.100306884765625,-0.0555252730846405,-0.00852186419069767,0.1418091505765915
1696958666047320300,5.1103203125,-0.043807707726955414,-0.1810896098613739,-0.008388710208237171
1696958666057333800,5.120333740234375,-0.010785484686493874,-0.2130466103553772,0.07896039634943008
1696958666067347200,5.13034716796875,-0.04913387447595596,-0.06497921794652939,0.040612008422613144
1696958666077360600,5.140360595703125,-0.053394805639982224,-0.12569749355316162,0.020372580736875534
1696958666087374000,5.1503740234375,-0.067242830991745,-0.08415340632200241,0.08322133123874664
1696958666097387500,5.160387451171875,-0.07363422960042953,-0.1267627328634262,0.005459319334477186
1696958666107401000,5.17040087890625,-0.037416309118270874,-0.07882724702358246,0.16950520873069763
1696958666117414400,5.180414306640625,-0.040612008422613144,-0.05858781561255455,-0.014780107885599136
1696958666127427800,5.190427734375,-0.07043853402137756,0.012782796286046505,0.053394805639982224
1696958666137441300,5.200441162109375,-0.07150376588106155,-0.07989247888326645,0.07363422960042953
1696958666147455200,5.210455322265625,-0.05232957378029823,-0.09906667470932007,0.08215609937906265
1696958666157469000,5.220468994140625,-0.08961272984743118,-0.0010652330238372087,-0.009453942999243736
1696958666167482400,5.230482421875,-0.06830807030200958,0.00852186419069767,0.16630950570106506
1696958666177495800,5.240495849609375,-0.050199106335639954,-0.15658925473690033,-0.061650361865758896
1696958666187509200,5.25050927734375,-0.036351077258586884,-0.12569749355316162,0.06404713541269302
1696958666197522700,5.260522705078125,-0.10133028775453568,0.09906667470932007,-0.007323476951569319
1696958666207535900,5.270535888671875,-0.0874822586774826,-0.11184946447610855,0.09280842542648315
1696958666217549300,5.28054931640625,-0.044872939586639404,-0.1278279572725296,-0.055258963257074356
1696958666227562800,5.290562744140625,-0.067242830991745,0.012782796286046505,0.13222205638885498
1696958666237576200,5.300576171875,-0.09067796170711517,-0.0852186381816864,-0.13089050352573395
1696958666247589600,5.310589599609375,-0.0874822586774826,0.0021304660476744175,0.12583065032958984
1696958666257602800,5.320602783203125,-0.05659050494432449,-0.19387240707874298,-0.0936073511838913
1696958666267616300,5.3306162109375,-0.066177599132061,-0.012782796286046505,0.015046416781842709
1696958666277629700,5.340629638671875,-0.10346075892448425,0.07669677585363388,0.020372580736875534
1696958666287643100,5.35064306640625,-0.06830807030200958,-0.191741943359375,-0.09893351793289185
1696958666297656300,5.36065625,-0.09280842542648315,0.01704372838139534,-0.038215234875679016
1696958666307669800,5.370669677734375,-0.09706936031579971,0.0159784946590662,-0.027562905102968216
1696958666317683200,5.38068310546875,-0.09706936031579971,-0.03089175745844841,-0.047802332788705826
1696958666327696600,5.390696533203125,-0.09067796170711517,-0.0319569893181324,-0.09147688746452332
1696958666337710000,5.4007099609375,-0.10985215753316879,0.11184946447610855,-0.024367205798625946
1696958666347723300,5.41072314453125,-0.11198262125253677,-0.10332760214805603,-0.060585130006074905
1696958666357736700,5.42073681640625,-0.0981345921754837,-0.0319569893181324,-0.0723026916384697
1696958666367750100,5.430750244140625,-0.11517832428216934,0.03089175745844841,-0.047802332788705826
1696958666377763600,5.440763671875,-0.12263495475053787,0.01171756349503994,-0.07975932210683823
1696958666387777000,5.450777099609375,-0.10772168636322021,-0.08628387749195099,0.005459319334477186
1696958666397790200,5.460790283203125,-0.11624355614185333,-0.02343512699007988,-0.1255643367767334
1696958666407803600,5.4708037109375,-0.13222205638885498,0.10013190656900406,-0.025432437658309937
1696958666417817000,5.480817138671875,-0.12583065032958984,-0.08308817446231842,-0.03928046673536301
1696958666427830500,5.49083056640625,-0.11730878800153732,-0.03621792420744896,-0.09680305421352386
1696958666437843700,5.50084375,-0.11837401986122131,-0.07776200771331787,-0.008388710208237171
1696958666447857200,5.510857177734375,-0.13328728079795837,-0.009587096981704235,-0.07656362652778625
1696958666457870600,5.52087060546875,-0.1418091505765915,0.1501978635787964,0.026763979345560074
1696958666467884000,5.530884033203125,-0.13861344754695892,-0.11078423261642456,-0.10212921351194382
1696958666477897500,5.5408974609375,-0.13861344754695892,-0.05432688444852829,-0.019041040912270546
1696958666487910700,5.55091064453125,-0.12689588963985443,0.04473978653550148,0.09493889659643173
1696958666497924000,5.560924072265625,-0.10346075892448425,-0.03515268862247467,-0.15112993121147156
1696958666507937500,5.5709375,-0.1524614691734314,0.12037133425474167,0.08428656309843063
1696958666517951000,5.580950927734375,-0.14500483870506287,-0.05645735189318657,-0.015845341607928276
1696958666527964400,5.59096435546875,-0.1194392517209053,0.01704372838139534,-0.044606633484363556
1696958666537977600,5.6009775390625,-0.10665645450353622,0.04793548583984375,0.09280842542648315
1696958666547991000,5.610990966796875,-0.12689588963985443,-0.06178351491689682,-0.054193731397390366
1696958666558004500,5.62100439453125,-0.13222205638885498,0.06497921794652939,0.022503048181533813
1696958666568018000,5.631017822265625,-0.11624355614185333,0.07137060910463333,0.061916667968034744
1696958666578031000,5.641031005859375,-0.12689588963985443,0.009587096981704235,-0.024367205798625946
1696958666588044500,5.65104443359375,-0.12156971544027328,0.0021304660476744175,0.07363422960042953
1696958666598058000,5.66105810546875,-0.11730878800153732,0.05219641700387001,-0.005193010903894901
1696958666608071400,5.671071533203125,-0.11730878800153732,0.1374150663614273,0.067242830991745
1696958666618084900,5.6810849609375,-0.10985215753316879,-0.05858781561255455,0.037416309118270874
1696958666628098000,5.69109814453125,-0.1205044835805893,0.03728315606713295,-0.06378082931041718
1696958666638111500,5.701111572265625,-0.12476541846990585,0.12569749355316162,0.14393961429595947
1696958666648125000,5.711125,-0.12583065032958984,0.0021304660476744175,-0.047802332788705826
1696958666658138400,5.721138427734375,-0.11198262125253677,0.0021304660476744175,0.023568280041217804
1696958666668151800,5.73115185546875,-0.12156971544027328,0.04473978653550148,0.06830807030200958
1696958666678165000,5.7411650390625,-0.13328728079795837,0.01384802907705307,-0.028628136962652206
1696958666688178400,5.751178466796875,-0.08854749798774719,-0.11397993564605713,-0.03928046673536301
1696958666698192000,5.76119189453125,-0.1087869256734848,-0.08308817446231842,0.053394805639982224
1696958666708205300,5.771205322265625,-0.12263495475053787,0.02343512699007988,-0.06271559745073318
1696958666718218500,5.781218505859375,-0.12689588963985443,-0.009587096981704235,0.04274247586727142
1696958666728232000,5.79123193359375,-0.0981345921754837,-0.09374050796031952,-0.047802332788705826
1696958666738245400,5.801245361328125,-0.0981345921754837,0.02023942768573761,0.005459319334477186
1696958666748258800,5.8112587890625,-0.11517832428216934,0.03728315606713295,-0.052063263952732086
1696958666758272300,5.821272216796875,-0.16737474501132965,0.0852186381816864,0.007589785382151604
1696958666768285400,5.831285400390625,-0.1407439112663269,0.03089175745844841,0.03528584539890289
1696958666778299000,5.841298828125,-0.11411308497190475,0.0063913981430232525,-0.022236740216612816
1696958666788312300,5.851312255859375,-0.12583065032958984,0.04900071769952774,-0.038215234875679016
1696958666798325800,5.86132568359375,-0.13861344754695892,0.04367455467581749,0.037416309118270874
1696958666808339200,5.871339111328125,-0.13435252010822296,0.01171756349503994,-0.061650361865758896
1696958666818352400,5.881352294921875,-0.1205044835805893,-0.03408745676279068,0.025698747485876083
1696958666828365800,5.89136572265625,-0.12796111404895782,-0.0213046595454216,0.021437814459204674
1696958666838379300,5.901379150390625,-0.13435252010822296,0.05219641700387001,-0.09147688746452332
1696958666848392700,5.911392822265625,-0.11304785311222076,-0.04473978653550148,0.0991998240351677
1696958666858406000,5.921406005859375,-0.11091738939285278,-0.14274121820926666,-0.18308693170547485
1696958666868419300,5.93141943359375,-0.12476541846990585,0.0426093190908432,0.12263495475053787
1696958666878432800,5.941432861328125,-0.0991998240351677,-0.10013190656900406,-0.040345702320337296
1696958666888446200,5.9514462890625,-0.13435252010822296,0.09480573982000351,-0.044606633484363556
1696958666898459600,5.961459716796875,-0.13754820823669434,-0.0021304660476744175,0.10559122264385223
1696958666908472800,5.971472900390625,-0.1194392517209053,-0.05006595328450203,-0.08082455396652222
1696958666918486300,5.981486328125,-0.09280842542648315,-0.01491326279938221,0.0768299326300621
1696958666928499700,5.991499755859375,-0.15459194779396057,0.10226237028837204,-0.004127778112888336
1696958666938513200,6.00151318359375,-0.13435252010822296,-0.06178351491689682,0.06404713541269302
1696958666948526600,6.011526611328125,-0.1311568170785904,0.009587096981704235,0.027829213067889214
1696958666958539800,6.021539794921875,-0.1300915777683258,0.03621792420744896,0.012915950268507004
1696958666968553200,6.03155322265625,-0.13648298382759094,-0.04793548583984375,0.06404713541269302
1696958666978566700,6.041566650390625,-0.1311568170785904,0.07030537724494934,0.013981183059513569
1696958666988580000,6.051580078125,-0.1311568170785904,-0.02982652559876442,0.026763979345560074
1696958666998593500,6.061593505859375,-0.13861344754695892,0.02343512699007988,0.0011983871227130294
1696958667008606700,6.071606689453125,-0.12796111404895782,-0.0010652330238372087,0.07150376588106155
1696958667018620200,6.0816201171875,-0.1418091505765915,-0.004260932095348835,-0.061650361865758896
1696958667028633600,6.091633544921875,-0.15033100545406342,0.07243584841489792,0.08641702681779861
1696958667038647000,6.10164697265625,-0.12370018661022186,-0.05858781561255455,-0.033954303711652756
1696958667048660200,6.11166015625,-0.10985215753316879,-0.00852186419069767,0.050199106335639954
1696958667058673700,6.121673583984375,-0.15672241151332855,0.14593692123889923,-0.11917294561862946
1696958667068687000,6.13168701171875,-0.16843996942043304,0.06071828305721283,0.10772168636322021
1696958667078700500,6.141700439453125,-0.15672241151332855,0.02343512699007988,0.013981183059513569
1696958667088714000,6.1517138671875,-0.15033100545406342,0.07776200771331787,-0.08934641629457474
1696958667098727200,6.16172705078125,-0.13861344754695892,-0.0159784946590662,0.14926578104496002
1696958667108740600,6.17174072265625,-0.13222205638885498,0.04154408723115921,-0.0936073511838913
1696958667118754000,6.181754150390625,-0.13754820823669434,-0.02450035884976387,0.061916667968034744
1696958667128767500,6.191767578125,-0.14393961429595947,0.01704372838139534,0.004394086077809334
1696958667138781000,6.201781005859375,-0.1407439112663269,0.08415340632200241,0.08854749798774719
1696958667148794000,6.211794189453125,-0.1087869256734848,-0.14593692123889923,-0.03608476743102074
1696958667158807600,6.2218076171875,-0.0991998240351677,0.04154408723115921,0.041677240282297134
1696958667168821000,6.231821044921875,-0.14393961429595947,-0.01384802907705307,-0.042476166039705276
1696958667178834400,6.24183447265625,-0.15352670848369598,0.007456631399691105,0.1087869256734848
1696958667188847900,6.251847900390625,-0.12263495475053787,-0.02982652559876442,-0.061650361865758896
1696958667198861300,6.261861328125,-0.11411308497190475,0.02769605815410614,0.020372580736875534
1696958667208874800,6.271874755859375,-0.13541774451732635,0.08734910935163498,0.040612008422613144
1696958667218888200,6.28188818359375,-0.12263495475053787,-0.05113118514418602,-0.017975807189941406
1696958667228901600,6.291901611328125,-0.13541774451732635,-0.01704372838139534,-0.010519175790250301
1696958667238915000,6.3019150390625,-0.14820054173469543,0.08415340632200241,0.0768299326300621
1696958667248928500,6.311928466796875,-0.09067796170711517,-0.13315412402153015,-0.011584409512579441
1696958667258942000,6.32194189453125,-0.066177599132061,-0.10119713842868805,-0.030758604407310486
1696958667268955400,6.331955322265625,-0.1524614691734314,0.12037133425474167,0.019307348877191544
1696958667278968800,6.34196875,-0.13648298382759094,-0.01704372838139534,0.07150376588106155
1696958667288982300,6.351982177734375,-0.11837401986122131,-0.08628387749195099,-0.09147688746452332
1696958667298995700,6.36199560546875,-0.08002562820911407,-0.1065233051776886,0.010785484686493874
1696958667309009200,6.372009033203125,-0.14500483870506287,0.07137060910463333,0.022503048181533813
1696958667319022600,6.382022705078125,-0.12263495475053787,-0.06284874677658081,-0.06910699605941772
1696958667329036000,6.3920361328125,-0.0981345921754837,-0.11184946447610855,-0.041410934180021286
1696958667339049500,6.402049560546875,-0.10346075892448425,-0.08415340632200241,0.03954677656292915
1696958667349063000,6.41206298828125,-0.10559122264385223,0.02343512699007988,-0.10852061212062836
1696958667359076000,6.422076171875,-0.09280842542648315,-0.05752258375287056,0.1087869256734848
1696958667369089500,6.432089599609375,-0.0768299326300621,-0.1395455300807953,-0.14367330074310303
1696958667379103000,6.44210302734375,-0.151396244764328,0.16298064589500427,0.09706936031579971
1696958667389116400,6.452116455078125,-0.1311568170785904,-0.05113118514418602,-0.06804175674915314
1696958667399129900,6.4621298828125,-0.0981345921754837,-0.012782796286046505,0.036351077258586884
1696958667409143300,6.472143310546875,-0.08109086751937866,-0.1800243854522705,-0.029693370684981346
1696958667419156700,6.48215673828125,-0.13328728079795837,0.07882724702358246,0.011850717477500439
1696958667429170200,6.492170166015625,-0.14393961429595947,0.03621792420744896,0.0555252730846405
1696958667439183600,6.50218359375,-0.11517832428216934,-0.1597849577665329,-0.11171631515026093
1696958667449197000,6.512197021484375,-0.13435252010822296,0.03621792420744896,0.13328728079795837
1696958667459210500,6.52221044921875,-0.11304785311222076,-0.11397993564605713,-0.07975932210683823
1696958667469224000,6.532223876953125,-0.09706936031579971,0.04473978653550148,0.036351077258586884
1696958667479237400,6.5422373046875,-0.11730878800153732,-0.04047885537147522,-0.013714875094592571
1696958667489250800,6.552250732421875,-0.14607007801532745,0.02663082629442215,0.058720968663692474
1696958667499264300,6.56226416015625,-0.13328728079795837,-0.0213046595454216,0.04913387447595596
1696958667509277700,6.572277587890625,-0.09493889659643173,0.0106523297727108,-0.15432563424110413
1696958667519291100,6.582291015625,-0.12476541846990585,-0.01384802907705307,0.24300628900527954
1696958667529304600,6.5923046875,-0.13435252010822296,-0.08841434121131897,-0.1585865616798401
1696958667539318000,6.602318115234375,-0.11730878800153732,-0.004260932095348835,0.07043853402137756
1696958667549331500,6.61233154296875,-0.10772168636322021,-0.07882724702358246,-0.024367205798625946
1696958667559344600,6.6223447265625,-0.0981345921754837,0.04580501839518547,0.07363422960042953
1696958667569358000,6.632358154296875,-0.10985215753316879,-0.12995843589305878,-0.008388710208237171
1696958667579371500,6.64237158203125,-0.13222205638885498,-0.06284874677658081,-0.13834713399410248
1696958667589385000,6.652385009765625,-0.12796111404895782,0.09054480493068695,0.15033100545406342
1696958667599398400,6.6623984375,-0.13648298382759094,-0.12143656611442566,-0.045671865344047546
1696958667609411600,6.67241162109375,-0.12796111404895782,-0.02556559257209301,-0.041410934180021286
1696958667619425000,6.682425048828125,-0.17057043313980103,0.14274121820926666,0.10346075892448425
1696958667629438500,6.6924384765625,-0.16737474501132965,0.02556559257209301,0.022503048181533813
1696958667639452000,6.702451904296875,-0.06830807030200958,-0.2769605815410614,-0.010519175790250301
1696958667649465300,6.71246533203125,-0.09600412845611572,-0.0213046595454216,-0.07336792349815369
1696958667659478500,6.722478515625,-0.14926578104496002,0.08095771074295044,0.15033100545406342
1696958667669492000,6.732491943359375,-0.10026505589485168,-0.08095771074295044,-0.13941237330436707
1696958667679505400,6.74250537109375,-0.057655736804008484,-0.05965305119752884,0.09174319356679916
1696958667689518800,6.752518798828125,0.031823836266994476,-0.05539211630821228,-0.08402025699615479
1696958667699532300,6.7625322265625,-0.006524552125483751,0.2588516175746918,0.05232957378029823
1696958667709545500,6.77254541015625,-0.0778951644897461,0.1278279572725296,-0.037150003015995026
1696958667719559000,6.782558837890625,-0.13754820823669434,0.03621792420744896,-0.07869409024715424
1696958667729572400,6.792572265625,-0.11411308497190475,0.02663082629442215,0.07363422960042953
1696958667739585800,6.802585693359375,-0.12476541846990585,-0.02769605815410614,-0.15006470680236816
1696958667749599000,6.812598876953125,-0.10559122264385223,-0.0106523297727108,-0.005193010903894901
1696958667759612400,6.8226123046875,-0.08428656309843063,-0.1587197184562683,-0.09680305421352386
1696958667769625900,6.8326259765625,-0.14287437498569489,0.07350108027458191,0.08109086751937866
1696958667779639300,6.842639404296875,-0.12796111404895782,-0.09267527610063553,-0.1351514458656311
1696958667789652700,6.85265283203125,-0.10133028775453568,0.009587096981704235,0.021437814459204674
1696958667799666000,6.862666015625,-0.09067796170711517,-0.15126308798789978,0.057655736804008484
1696958667809679400,6.872679443359375,-0.067242830991745,-0.05752258375287056,-0.24593567848205566
1696958667819692800,6.88269287109375,-0.1620485782623291,0.16724158823490143,0.17909230291843414
1696958667829706200,6.892706298828125,-0.1205044835805893,-0.14274121820926666,-0.050998032093048096
1696958667839719700,6.9027197265625,-0.12476541846990585,0.009587096981704235,-0.043541401624679565
1696958667849732900,6.91273291015625,-0.14607007801532745,-0.01384802907705307,0.00226362026296556
1696958667859746300,6.922746337890625,-0.14926578104496002,0.03621792420744896,0.005459319334477186
1696958667869759700,6.932759765625,-0.13328728079795837,-0.08947957307100296,0.009720250964164734
1696958667879773200,6.942773193359375,-0.13648298382759094,-0.02450035884976387,0.006524552125483751
1696958667889786400,6.952786376953125,-0.1300915777683258,-0.07563154399394989,0.033155377954244614
1696958667899799800,6.9627998046875,-0.1194392517209053,-0.06710968166589737,0.005459319334477186
1696958667909813200,6.972813232421875,-0.14500483870506287,-0.02876129187643528,0.010785484686493874
1696958667919826700,6.98282666015625,-0.14820054173469543,-0.06284874677658081,0.006524552125483751
1696958667929840000,6.992840087890625,-0.13648298382759094,-0.007456631399691105,0.09280842542648315
1696958667939853300,7.002853271484375,-0.1205044835805893,-0.0745663121342659,0.020372580736875534
1696958667949866800,7.01286669921875,-0.1311568170785904,-0.11291470378637314,0.034220609813928604
1696958667959880200,7.022880126953125,-0.14500483870506287,-0.0021304660476744175,0.041677240282297134
1696958667969893600,7.0328935546875,-0.1418091505765915,-0.03515268862247467,0.10772168636322021
1696958667979907000,7.042906982421875,-0.13861344754695892,-0.06710968166589737,-0.022236740216612816
1696958667989920300,7.052920166015625,-0.12583065032958984,-0.12037133425474167,0.09493889659643173
1696958667999933700,7.06293359375,-0.12156971544027328,-0.03941362351179123,0.058720968663692474
1696958668009947100,7.072947021484375,-0.11517832428216934,-0.1491326242685318,-0.019041040912270546
1696958668019960600,7.082960693359375,-0.1205044835805893,-0.07030537724494934,0.06830807030200958
1696958668029973800,7.092973876953125,-0.1300915777683258,-0.05432688444852829,0.020372580736875534
1696958668039987200,7.1029873046875,-0.10985215753316879,-0.16830681264400482,0.07150376588106155
1696958668050000600,7.113000732421875,-0.1290263533592224,0.02236989326775074,-0.014780107885599136
1696958668060014000,7.12301416015625,-0.1300915777683258,0.0053261648863554,0.0768299326300621
1696958668070027500,7.133027587890625,-0.10346075892448425,-0.1800243854522705,-0.030758604407310486
1696958668080040700,7.143040771484375,-0.11198262125253677,-0.02556559257209301,0.015046416781842709
1696958668090054100,7.15305419921875,-0.14393961429595947,0.01384802907705307,0.13222205638885498
1696958668100067600,7.163067626953125,-0.10985215753316879,-0.11824086308479309,-0.042476166039705276
1696958668110081000,7.1730810546875,-0.09174319356679916,-0.01171756349503994,0.018242115154862404
1696958668120094500,7.183094482421875,-0.12796111404895782,-0.00852186419069767,0.007589785382151604
1696958668130107600,7.193107666015625,-0.12689588963985443,-0.08095771074295044,0.11624355614185333
1696958668140121000,7.20312109375,-0.10985215753316879,-0.05539211630821228,-0.13408620655536652
1696958668150134500,7.213134521484375,-0.10665645450353622,-0.06284874677658081,0.14500483870506287
1696958668160148000,7.22314794921875,-0.1194392517209053,-0.11291470378637314,-0.09041165560483932
1696958668170161200,7.2331611328125,-0.1205044835805893,-0.01704372838139534,0.026763979345560074
1696958668180174600,7.243174560546875,-0.12156971544027328,-0.11930610239505768,-0.06271559745073318
1696958668190188000,7.25318798828125,-0.12583065032958984,-0.13421936333179474,-0.031823836266994476
1696958668200201500,7.263201416015625,-0.11304785311222076,0.00852186419069767,0.013981183059513569
1696958668210215000,7.27321484375,-0.08215609937906265,-0.14274121820926666,-0.07656362652778625
1696958668220228000,7.28322802734375,-0.11624355614185333,0.01704372838139534,-0.08615072071552277
1696958668230241500,7.293241455078125,-0.17909230291843414,0.08947957307100296,0.04593817517161369
1696958668240255000,7.3032548828125,-0.19187510013580322,0.06071828305721283,-0.14260807633399963
1696958668250268400,7.313268310546875,-0.10665645450353622,-0.15232832729816437,-0.06484606117010117
1696958668260281900,7.32328173828125,-0.15778763592243195,0.0319569893181324,-0.12982527911663055
1696958668270295000,7.333294921875,-0.15778763592243195,-0.02343512699007988,0.024633513763546944
1696958668280308500,7.34330859375,-0.11411308497190475,-0.2236989289522171,-0.22356578707695007
1696958668290322000,7.353322021484375,-0.12263495475053787,-0.06604444980621338,-0.11171631515026093
1696958668300335400,7.36333544921875,-0.1396786868572235,-0.10545806586742401,0.009720250964164734
1696958668310348500,7.3733486328125,-0.14607007801532745,-0.05645735189318657,-0.19586972892284393
1696958668320362000,7.383362060546875,-0.13648298382759094,0.02663082629442215,-0.011584409512579441
1696958668330375400,7.39337548828125,-0.13648298382759094,-0.03834838792681694,-0.023301972076296806
1696958668340388900,7.403388916015625,-0.11304785311222076,-0.01704372838139534,-0.06591129302978516
1696958668350402300,7.41340234375,-0.15885287523269653,0.20985090732574463,-0.0009320789249613881
1696958668360415700,7.423415771484375,-0.1716356724500656,0.21837277710437775,0.037416309118270874
1696958668370429200,7.43342919921875,-0.1524614691734314,0.11078423261642456,0.031024912372231483
1696958668380442600,7.443442626953125,-0.09387365728616714,-0.08202294260263443,-0.06804175674915314
1696958668390456000,7.4534560546875,-0.15991811454296112,0.2343512624502182,0.060851436108350754
1696958668400469500,7.463469482421875,-0.1290263533592224,0.0319569893181324,0.066177599132061
1696958668410483000,7.47348291015625,-0.12156971544027328,0.0021304660476744175,-0.07975932210683823
1696958668420496400,7.483496337890625,-0.12796111404895782,0.09800143539905548,0.1194392517209053
1696958668430509800,7.493509765625,-0.1300915777683258,-0.03515268862247467,-0.015845341607928276
1696958668440523300,7.503523193359375,-0.10239552706480026,0.04473978653550148,0.06511236727237701
1696958668450536700,7.51353662109375,-0.11837401986122131,-0.11930610239505768,-0.012649642303586006
1696958668460550100,7.523550048828125,-0.1290263533592224,-0.03621792420744896,0.047003407031297684
1696958668470563600,7.5335634765625,-0.10559122264385223,0.007456631399691105,0.13222205638885498
1696958668480577000,7.543576904296875,-0.10239552706480026,-0.1491326242685318,-0.10852061212062836
1696958668490590500,7.553590576171875,-0.11304785311222076,-0.012782796286046505,0.16098333895206451
1696958668500604000,7.56360400390625,-0.11091738939285278,0.012782796286046505,-0.029693370684981346
1696958668510617300,7.573617431640625,-0.1087869256734848,0.02343512699007988,0.08854749798774719
1696958668520630800,7.583630859375,-0.10026505589485168,-0.03302222490310669,-0.05312849581241608
1696958668530644200,7.593644287109375,-0.1300915777683258,0.14487169682979584,0.0778951644897461
1696958668540657700,7.60365771484375,-0.13541774451732635,0.14487169682979584,0.034220609813928604
1696958668550671000,7.613671142578125,-0.1311568170785904,0.04047885537147522,-0.021171506494283676
1696958668560684500,7.6236845703125,-0.1205044835805893,0.04793548583984375,0.050199106335639954
1696958668570698000,7.633697998046875,-0.1407439112663269,0.1065233051776886,-0.050998032093048096
1696958668580711400,7.64371142578125,-0.11624355614185333,0.07350108027458191,0.07363422960042953
1696958668590724900,7.653724853515625,-0.11730878800153732,-0.05965305119752884,-0.045671865344047546
1696958668600738300,7.66373828125,-0.12796111404895782,0.10971900075674057,-0.0030625448562204838
1696958668610751700,7.673751708984375,-0.1205044835805893,-0.0031956990715116262,0.12796111404895782
1696958668620765200,7.68376513671875,-0.12689588963985443,0.05219641700387001,-0.13941237330436707
1696958668630778600,7.693778564453125,-0.12263495475053787,0.02556559257209301,0.12156971544027328
1696958668640792000,7.7037919921875,-0.11730878800153732,-0.0159784946590662,-0.057389430701732635
1696958668650805500,7.713805419921875,-0.11730878800153732,0.06497921794652939,0.05659050494432449
1696958668660819000,7.72381884765625,-0.11730878800153732,-0.02450035884976387,-0.009453942999243736
1696958668670832400,7.733832275390625,-0.11198262125253677,0.0639139786362648,0.027829213067889214
1696958668680845800,7.743845703125,-0.11517832428216934,0.04367455467581749,0.041677240282297134
1696958668690859300,7.753859375,-0.11730878800153732,0.03728315606713295,-0.040345702320337296
1696958668700872400,7.76387255859375,-0.11624355614185333,0.10226237028837204,0.07150376588106155
1696958668710886000,7.773885986328125,-0.10452599078416824,0.03408745676279068,0.019307348877191544
1696958668720899300,7.7838994140625,-0.10346075892448425,0.08308817446231842,-0.008388710208237171
1696958668730912800,7.793912841796875,-0.11091738939285278,0.05965305119752884,0.061916667968034744
1696958668740926000,7.803926025390625,-0.09387365728616714,-0.0031956990715116262,-0.025432437658309937
1696958668750939400,7.813939453125,-0.08961272984743118,0.04154408723115921,0.09600412845611572
1696958668760952800,7.823952880859375,-0.09600412845611572,0.0532616525888443,-0.038215234875679016
1696958668770966300,7.83396630859375,-0.09706936031579971,0.05539211630821228,0.08322133123874664
1696958668780979700,7.843979736328125,-0.0778951644897461,0.02450035884976387,0.005459319334477186
1696958668790993000,7.853992919921875,-0.08854749798774719,0.02556559257209301,0.0011983871227130294
1696958668801006300,7.86400634765625,-0.0778951644897461,0.02023942768573761,0.067242830991745
1696958668811019800,7.874019775390625,-0.0768299326300621,-0.03302222490310669,-0.0009320789249613881
1696958668821033200,7.884033203125,-0.08109086751937866,0.05006595328450203,-0.005193010903894901
1696958668831046700,7.894046630859375,-0.0874822586774826,0.0031956990715116262,0.040612008422613144
1696958668841059800,7.904059814453125,-0.08215609937906265,-0.04580501839518547,-0.027562905102968216
1696958668851073300,7.9140732421875,-0.08002562820911407,-0.004260932095348835,0.022503048181533813
1696958668861086700,7.924086669921875,-0.0768299326300621,-0.03089175745844841,-0.026497671380639076
1696958668871100200,7.93410009765625,-0.07043853402137756,-0.09480573982000351,-0.027562905102968216
1696958668881113300,7.94411328125,-0.07576470077037811,-0.05539211630821228,0.018242115154862404
1696958668891126800,7.954126708984375,-0.08109086751937866,-0.01491326279938221,-0.033954303711652756
1696958668901140200,7.96414013671875,-0.08002562820911407,0.02769605815410614,0.03954677656292915
1696958668911153700,7.974153564453125,-0.07150376588106155,-0.02450035884976387,-0.022236740216612816
1696958668921167000,7.9841669921875,-0.07150376588106155,0.08202294260263443,0.04913387447595596
1696958668931180300,7.99418017578125,-0.07469946891069412,0.05858781561255455,0.03954677656292915
1696958668941193700,8.00419384765625,-0.08535179495811462,0.04367455467581749,0.033155377954244614
1696958668951207200,8.014207275390625,-0.08215609937906265,0.08202294260263443,0.06937330216169357
1696958668961220600,8.024220703125,-0.047003407031297684,0.02450035884976387,0.061916667968034744
1696958668971234000,8.034234130859375,-0.054460037499666214,0.009587096981704235,0.015046416781842709
1696958668981247200,8.044247314453125,-0.0874822586774826,-0.0010652330238372087,0.03848154470324516
1696958668991260700,8.0542607421875,-0.0778951644897461,0.08308817446231842,0.0778951644897461
1696958669001274000,8.064274169921875,-0.04913387447595596,-0.01171756349503994,0.058720968663692474
1696958669011287600,8.07428759765625,-0.066177599132061,-0.0063913981430232525,-0.0030625448562204838
1696958669021300700,8.08430078125,-0.08428656309843063,0.03728315606713295,0.10239552706480026
1696958669031314200,8.094314208984375,-0.066177599132061,-0.0031956990715116262,0.021437814459204674
1696958669041327600,8.10432763671875,-0.07256899774074554,0.0213046595454216,0.036351077258586884
1696958669051341000,8.114341064453125,-0.08854749798774719,0.05965305119752884,0.08109086751937866
1696958669061354500,8.1243544921875,-0.07469946891069412,0.01704372838139534,0.019307348877191544
1696958669071367700,8.13436767578125,-0.0874822586774826,0.0106523297727108,0.024633513763546944
1696958669081381000,8.144381103515625,-0.0981345921754837,0.0532616525888443,0.028894444927573204
1696958669091394600,8.15439453125,-0.08961272984743118,0.0745663121342659,0.07150376588106155
1696958669101408000,8.164407958984375,-0.07363422960042953,-0.02663082629442215,0.017176883295178413
1696958669111421400,8.17442138671875,-0.09067796170711517,0.004260932095348835,-0.013714875094592571
1696958669121434600,8.1844345703125,-0.0991998240351677,0.04793548583984375,0.09706936031579971
1696958669131448000,8.194447998046876,-0.10133028775453568,0.02343512699007988,-0.04993279650807381
1696958669141461500,8.20446142578125,-0.08641702681779861,0.09054480493068695,0.08322133123874664
1696958669151475000,8.214474853515625,-0.09706936031579971,-0.04047885537147522,-0.0009320789249613881
1696958669161488100,8.224488037109374,-0.11091738939285278,0.10758853703737259,0.016111649572849274
1696958669171501600,8.23450146484375,-0.09387365728616714,0.12037133425474167,0.10346075892448425
1696958669181515000,8.244514892578126,-0.09600412845611572,-0.01810896210372448,-0.035019535571336746
1696958669191528400,8.254528564453125,-0.1087869256734848,0.12037133425474167,0.07576470077037811
1696958669201542000,8.2645419921875,-0.10772168636322021,0.07137060910463333,0.06404713541269302
1696958669211555000,8.27455517578125,-0.08854749798774719,-0.02876129187643528,-0.022236740216612816
1696958669221568500,8.284568603515625,-0.10239552706480026,0.05965305119752884,0.10026505589485168
1696958669231582000,8.29458203125,-0.09387365728616714,0.02023942768573761,0.044872939586639404
1696958669241595400,8.304595458984375,-0.08109086751937866,-0.03834838792681694,0.009720250964164734
1696958669251608800,8.31460888671875,-0.09600412845611572,0.02769605815410614,0.060851436108350754
1696958669261622000,8.3246220703125,-0.09600412845611572,0.009587096981704235,0.03209014609456062
1696958669271635500,8.334635498046875,-0.07896039634943008,0.004260932095348835,0.06298190355300903
1696958669281649000,8.34464892578125,-0.08109086751937866,-0.02236989326775074,0.027829213067889214
1696958669291662300,8.354662353515625,-0.09493889659643173,0.02982652559876442,0.048068638890981674
1696958669301675800,8.36467578125,-0.09174319356679916,0.01810896210372448,0.060851436108350754
1696958669311689000,8.37468896484375,-0.08109086751937866,-0.02556559257209301,0.007589785382151604
1696958669321702400,8.384702392578125,-0.08961272984743118,-0.004260932095348835,0.05659050494432449
1696958669331715800,8.3947158203125,-0.09280842542648315,0.02556559257209301,0.021437814459204674
1696958669341729300,8.404729248046875,-0.08109086751937866,-0.0053261648863554,0.051264338195323944
1696958669351742500,8.414742431640626,-0.08322133123874664,-0.0213046595454216,0.007589785382151604
1696958669361756000,8.424755859375,-0.0874822586774826,0.009587096981704235,0.012915950268507004
1696958669371769300,8.434769287109376,-0.08002562820911407,-0.012782796286046505,0.08215609937906265
1696958669381782800,8.44478271484375,-0.08109086751937866,-0.02663082629442215,-0.061650361865758896
1696958669391796200,8.454796142578125,-0.09280842542648315,0.0213046595454216,0.06511236727237701
1696958669401809400,8.464809326171874,-0.08535179495811462,-0.0106523297727108,-0.013714875094592571
1696958669411822800,8.47482275390625,-0.08535179495811462,-0.00852186419069767,0.012915950268507004
1696958669421836300,8.484836181640626,-0.09174319356679916,-0.02236989326775074,-0.016910573467612267
1696958669431849700,8.494849609375,-0.09387365728616714,-0.02876129187643528,0.00226362026296556
1696958669441863200,8.50486328125,-0.09067796170711517,-0.0021304660476744175,-0.0009320789249613881
1696958669451876400,8.51487646484375,-0.09706936031579971,-0.04793548583984375,-0.052063263952732086
1696958669461889800,8.524889892578125,-0.10239552706480026,-0.01171756349503994,-0.001997311832383275
1696958669471903200,8.5349033203125,-0.09600412845611572,-0.02343512699007988,-0.015845341607928276
1696958669481916700,8.544916748046875,-0.0981345921754837,-0.04580501839518547,-0.052063263952732086
1696958669491929900,8.554929931640626,-0.11304785311222076,-0.0159784946590662,-0.024367205798625946
1696958669501943300,8.564943359375,-0.10985215753316879,-0.0053261648863554,-0.011584409512579441
1696958669511956700,8.574956787109375,-0.10665645450353622,-0.012782796286046505,-0.03608476743102074
1696958669521970200,8.58497021484375,-0.1194392517209053,-0.007456631399691105,-0.045671865344047546
1696958669531983600,8.594983642578125,-0.1194392517209053,0.01810896210372448,-0.011584409512579441
1696958669541996800,8.604996826171876,-0.11411308497190475,0.00852186419069767,-0.024367205798625946
1696958669552010200,8.61501025390625,-0.12476541846990585,0.0053261648863554,-0.045671865344047546
1696958669562023700,8.625023681640625,-0.1311568170785904,0.04687025398015976,-0.021171506494283676
1696958669572037000,8.635037109375,-0.11730878800153732,0.012782796286046505,-0.004127778112888336
1696958669582050600,8.645050537109375,-0.12263495475053787,0.009587096981704235,-0.06378082931041718
1696958669592063700,8.655063720703126,-0.13328728079795837,0.02450035884976387,-0.011584409512579441
1696958669602077200,8.6650771484375,-0.1205044835805893,0.0021304660476744175,-0.035019535571336746
1696958669612090600,8.675090576171876,-0.1205044835805893,0.0106523297727108,-0.014780107885599136
1696958669622104000,8.68510400390625,-0.13648298382759094,0.03089175745844841,-0.06378082931041718
1696958669632117500,8.695117431640625,-0.12370018661022186,0.00852186419069767,0.04913387447595596
1696958669642131000,8.705130859375,-0.1205044835805893,-0.02023942768573761,-0.08188978582620621
1696958669652144400,8.715144287109375,-0.13861344754695892,0.04793548583984375,-0.008388710208237171
1696958669662157800,8.72515771484375,-0.12370018661022186,-0.02556559257209301,0.011850717477500439
1696958669672171300,8.735171142578125,-0.11624355614185333,-0.02982652559876442,-0.037150003015995026
1696958669682184700,8.745184814453125,-0.13754820823669434,0.05965305119752884,-0.033954303711652756
1696958669692198100,8.7551982421875,-0.12583065032958984,-0.0426093190908432,0.040612008422613144
1696958669702211600,8.765211669921875,-0.1194392517209053,-0.012782796286046505,-0.04673709720373154
1696958669712225000,8.77522509765625,-0.1290263533592224,0.02343512699007988,-0.0009320789249613881
1696958669722238500,8.785238525390625,-0.13222205638885498,-0.04900071769952774,-0.017975807189941406
1696958669732252000,8.795251953125,-0.11730878800153732,0.02982652559876442,0.020372580736875534
1696958669742265300,8.805265380859375,-0.12370018661022186,-0.04154408723115921,-0.024367205798625946
1696958669752278800,8.81527880859375,-0.12476541846990585,-0.0426093190908432,-0.033954303711652756
1696958669762292200,8.825292236328124,-0.11837401986122131,-0.06178351491689682,0.050199106335639954
1696958669772305700,8.8353056640625,-0.11091738939285278,-0.02663082629442215,-0.07443315535783768
1696958669782319000,8.845319091796876,-0.11837401986122131,-0.03834838792681694,0.033155377954244614
1696958669792332500,8.85533251953125,-0.1194392517209053,-0.02450035884976387,-0.027562905102968216
1696958669802346000,8.865345947265626,-0.10985215753316879,0.04793548583984375,0.03209014609456062
1696958669812359400,8.875359375,-0.12156971544027328,-0.04793548583984375,-0.054193731397390366
1696958669822372900,8.885372802734375,-0.13222205638885498,0.05539211630821228,0.025698747485876083
1696958669832386300,8.89538623046875,-0.1194392517209053,-0.02556559257209301,0.036351077258586884
1696958669842399700,8.905399658203125,-0.12583065032958984,0.03408745676279068,-0.023301972076296806
1696958669852413200,8.9154130859375,-0.13328728079795837,-0.01384802907705307,0.05978620424866676
1696958669862426600,8.925426513671875,-0.13222205638885498,0.012782796286046505,0.007589785382151604
1696958669872440000,8.935440185546875,-0.12796111404895782,0.0010652330238372087,0.08854749798774719
1696958669882453500,8.94545361328125,-0.14287437498569489,-0.04154408723115921,-0.038215234875679016
1696958669892467000,8.955467041015625,-0.13648298382759094,0.06817491352558136,0.1290263533592224
1696958669902480400,8.96548046875,-0.13648298382759094,0.0010652330238372087,0.026763979345560074
1696958669912493800,8.975493896484375,-0.14820054173469543,0.03089175745844841,0.00226362026296556
1696958669922507300,8.98550732421875,-0.14713531732559204,0.04367455467581749,0.11837401986122131
1696958669932520700,8.995520751953125,-0.14287437498569489,0.02663082629442215,-0.017975807189941406
1696958669942534000,9.005533935546875,-0.14926578104496002,0.15658925473690033,0.027829213067889214
1696958669952547300,9.01554736328125,-0.151396244764328,0.03515268862247467,0.07576470077037811
1696958669962560800,9.025560791015625,-0.15459194779396057,0.11824086308479309,-0.05632419511675835
1696958669972574200,9.03557421875,-0.1524614691734314,0.13102366030216217,0.08428656309843063
1696958669982587600,9.045587646484375,-0.15778763592243195,0.05965305119752884,-0.05312849581241608
1696958669992600800,9.055600830078125,-0.17057043313980103,0.22156846523284912,0.037416309118270874
1696958670002614300,9.0656142578125,-0.15672241151332855,0.08095771074295044,-0.005193010903894901
1696958670012627700,9.075627685546875,-0.15991811454296112,0.07030537724494934,-0.028628136962652206
1696958670022641200,9.08564111328125,-0.16737474501132965,0.11078423261642456,0.0033288532868027687
1696958670032654300,9.095654296875,-0.16417904198169708,0.07989247888326645,0.025698747485876083
1696958670042667800,9.105667724609376,-0.16524426639080048,0.06604444980621338,-0.03288906812667847
1696958670052681200,9.11568115234375,-0.17483137547969818,0.07030537724494934,0.010785484686493874
1696958670062694700,9.125694580078125,-0.16630950570106506,0.06924014538526535,0.026763979345560074
1696958670072708000,9.1357080078125,-0.16950520873069763,0.03408745676279068,-0.03608476743102074
1696958670082721300,9.14572119140625,-0.1822880059480667,0.09054480493068695,0.05978620424866676
1696958670092734700,9.155734619140626,-0.1844184696674347,0.09374050796031952,0.0011983871227130294
1696958670102748200,9.165748046875,-0.17589659988880157,0.0852186381816864,0.017176883295178413
1696958670112761600,9.17576171875,-0.18548369407653809,0.05645735189318657,0.028894444927573204
1696958670122775000,9.185775146484374,-0.19080986082553864,0.10332760214805603,-0.012649642303586006
1696958670132788200,9.195788330078125,-0.18015754222869873,0.04473978653550148,0.04593817517161369
1696958670142801700,9.2058017578125,-0.17909230291843414,0.09800143539905548,0.031024912372231483
1696958670152815000,9.215815185546875,-0.1940055638551712,0.11184946447610855,0.04274247586727142
1696958670162828500,9.22582861328125,-0.18122276663780212,0.0159784946590662,0.009720250964164734
1696958670172841700,9.235841796875,-0.17909230291843414,0.04473978653550148,0.0768299326300621
1696958670182855200,9.245855224609375,-0.18548369407653809,0.04154408723115921,-0.020106272771954536
1696958670192868600,9.25586865234375,-0.1822880059480667,0.02236989326775074,0.0874822586774826
1696958670202882000,9.265882080078125,-0.17057043313980103,-0.04687025398015976,0.057655736804008484
1696958670212895500,9.2758955078125,-0.17696183919906616,-0.0021304660476744175,0.010785484686493874
1696958670222908700,9.28590869140625,-0.17802706360816956,-0.0159784946590662,0.08641702681779861
1696958670232922000,9.295922119140625,-0.16950520873069763,-0.11611039936542511,0.03954677656292915
1696958670242935600,9.305935546875,-0.17589659988880157,-0.02236989326775074,0.057655736804008484
1696958670252949000,9.315948974609375,-0.17589659988880157,-0.05858781561255455,0.048068638890981674
1696958670262962400,9.32596240234375,-0.1844184696674347,-0.004260932095348835,0.053394805639982224
1696958670272975600,9.3359755859375,-0.18015754222869873,-0.0063913981430232525,0.08961272984743118
1696958670282989000,9.345989013671876,-0.17909230291843414,-0.08308817446231842,0.022503048181533813
1696958670293002500,9.35600244140625,-0.1844184696674347,0.007456631399691105,0.09493889659643173
1696958670303016000,9.366015869140625,-0.1844184696674347,0.01917419396340847,0.03954677656292915
1696958670313029000,9.376029052734374,-0.17483137547969818,-0.08628387749195099,0.04913387447595596
1696958670323042600,9.38604248046875,-0.18974463641643524,0.03621792420744896,0.0778951644897461
1696958670333056000,9.396055908203126,-0.18654893338680267,-0.009587096981704235,0.015046416781842709
1696958670343069400,9.4060693359375,-0.18015754222869873,-0.01810896210372448,0.12263495475053787
1696958670353083000,9.416082763671875,-0.18654893338680267,0.0063913981430232525,0.016111649572849274
1696958670363096000,9.426095947265624,-0.19187510013580322,-0.02876129187643528,0.044872939586639404
1696958670373109500,9.436109619140625,-0.18122276663780212,-0.01704372838139534,0.12583065032958984
1696958670383123000,9.446123046875,-0.19187510013580322,-0.0106523297727108,-0.024367205798625946
1696958670393136400,9.456136474609375,-0.20891882479190826,0.03302222490310669,0.09174319356679916
1696958670403149800,9.46614990234375,-0.19826649129390717,-0.03302222490310669,0.08428656309843063
1696958670413163000,9.4761630859375,-0.19187510013580322,-0.02769605815410614,0.03848154470324516
1696958670423176400,9.486176513671875,-0.20998406410217285,-0.04154408723115921,0.020372580736875534
1696958670433190000,9.49618994140625,-0.2046578973531723,-0.05113118514418602,0.10559122264385223
1696958670443203300,9.506203369140625,-0.19826649129390717,-0.1065233051776886,0.006524552125483751
1696958670453216800,9.516216796875,-0.21744069457054138,-0.01171756349503994,0.043807707726955414
1696958670463230000,9.52622998046875,-0.21850591897964478,-0.07669677585363388,0.058720968663692474
1696958670473243400,9.536243408203125,-0.21317975223064423,-0.04367455467581749,0.037416309118270874
1696958670483256800,9.5462568359375,-0.22063638269901276,-0.06178351491689682,0.044872939586639404
1696958670493270300,9.556270263671875,-0.22915825247764587,-0.06604444980621338,0.027829213067889214
1696958670503283500,9.566283447265626,-0.23448441922664642,-0.009587096981704235,0.06298190355300903
1696958670513297000,9.576296875,-0.23448441922664642,-0.0159784946590662,0.03954677656292915
1696958670523310300,9.586310302734375,-0.23874534666538239,-0.07882724702358246,0.015046416781842709
1696958670533323800,9.59632373046875,-0.24087581038475037,-0.02982652559876442,0.07043853402137756
1696958670543337200,9.606337158203125,-0.2366148829460144,-0.06604444980621338,0.05232957378029823
1696958670553350400,9.616350341796876,-0.23128871619701385,-0.1480673849582672,-0.006258244160562754
1696958670563363800,9.62636376953125,-0.235549658536911,-0.14593692123889923,0.050199106335639954
1696958670573377300,9.636377197265626,-0.23128871619701385,-0.10439283400774002,0.026763979345560074
1696958670583390700,9.646390625,-0.23235395550727844,-0.16511112451553345,-0.023301972076296806
1696958670593404200,9.656404052734375,-0.22383208572864532,-0.23222079873085022,0.029959678649902344
1696958670603417300,9.666417236328124,-0.23022349178791046,-0.1597849577665329,-0.023301972076296806
1696958670613430800,9.6764306640625,-0.22276686131954193,-0.1587197184562683,-0.048867564648389816
1696958670623444200,9.6864443359375,-0.22063638269901276,-0.22582940757274628,-0.020106272771954536
1696958670633457700,9.696457763671875,-0.23128871619701385,-0.1171756312251091,-0.05632419511675835
1696958670643470800,9.706470947265625,-0.21957115828990936,-0.16191542148590088,-0.030758604407310486
1696958670653484300,9.716484375,-0.21957115828990936,-0.1395455300807953,-0.09041165560483932
1696958670663497700,9.726497802734375,-0.2259625494480133,-0.08095771074295044,-0.045671865344047546
1696958670673511200,9.73651123046875,-0.2163754552602768,-0.10013190656900406,-0.08721595257520676
1696958670683524600,9.746524658203125,-0.20998406410217285,-0.10119713842868805,-0.08508548885583878
1696958670693537800,9.756537841796876,-0.21317975223064423,-0.07563154399394989,-0.040345702320337296
1696958670703551200,9.76655126953125,-0.21744069457054138,-0.02343512699007988,-0.09147688746452332
1696958670713564700,9.776564697265625,-0.19933173060417175,-0.03621792420744896,-0.05632419511675835
1696958670723578000,9.786578125,-0.19613602757453918,-0.10226237028837204,-0.08402025699615479
1696958670733591600,9.796591552734375,-0.21104928851127625,0.04154408723115921,-0.09147688746452332
1696958670743604700,9.806604736328126,-0.20039696991443634,-0.01917419396340847,-0.015845341607928276
1696958670753618200,9.8166181640625,-0.18867939710617065,-0.07350108027458191,-0.10958584398031235
1696958670763631600,9.826631591796875,-0.20146219432353973,0.0159784946590662,-0.040345702320337296
1696958670773645000,9.83664501953125,-0.19187510013580322,-0.03089175745844841,-0.058454662561416626
1696958670783658200,9.846658203125,-0.17909230291843414,-0.0639139786362648,-0.037150003015995026
1696958670793671700,9.856671630859376,-0.19294032454490662,-0.06178351491689682,-0.09680305421352386
1696958670803685000,9.86668505859375,-0.19826649129390717,-0.01917419396340847,0.005459319334477186
1696958670813698600,9.876698486328126,-0.1833532303571701,-0.04900071769952774,-0.016910573467612267
1696958670823712000,9.8867119140625,-0.19294032454490662,-0.03728315606713295,-0.06591129302978516
1696958670833725200,9.89672509765625,-0.20252743363380432,-0.03302222490310669,0.020372580736875534
1696958670843738600,9.906738525390624,-0.19720126688480377,-0.012782796286046505,-0.013714875094592571
1696958670853752000,9.916751953125,-0.1940055638551712,-0.0063913981430232525,0.007589785382151604
1696958670863765500,9.926765625,-0.22063638269901276,0.03408745676279068,-0.027562905102968216
1696958670873779000,9.936779052734375,-0.21211452782154083,0.02876129187643528,0.03954677656292915
1696958670883792100,9.946792236328125,-0.20678836107254028,-0.01917419396340847,-0.013714875094592571
1696958670893805600,9.9568056640625,-0.2270277887582779,0.10332760214805603,-0.010519175790250301
1696958670903819000,9.966819091796875,-0.22915825247764587,0.04473978653550148,0.027829213067889214
1696958670913832400,9.97683251953125,-0.22170162200927734,0.08415340632200241,0.006524552125483751
1696958670923845600,9.986845703125,-0.2366148829460144,0.07563154399394989,-0.06591129302978516
1696958670933859000,9.996859130859375,-0.24087581038475037,0.08947957307100296,0.051264338195323944
1696958670943872500,10.00687255859375,-0.23448441922664642,0.0159784946590662,-0.005193010903894901
1696958670953886000,10.016885986328125,-0.237680122256279,0.04473978653550148,-0.057389430701732635
1696958670963899400,10.0268994140625,-0.23874534666538239,0.09161003679037094,0.03528584539890289
1696958670973912600,10.03691259765625,-0.23874534666538239,-0.08628387749195099,-0.041410934180021286
1696958670983926000,10.046926025390626,-0.24300628900527954,0.11930610239505768,-0.041410934180021286
1696958670993939500,10.056939453125,-0.23981058597564697,0.05965305119752884,0.060851436108350754
1696958671003953000,10.066952880859375,-0.24620197713375092,0.0021304660476744175,-0.12130340933799744
1696958671013966300,10.07696630859375,-0.24300628900527954,0.13421936333179474,0.1194392517209053
1696958671023979500,10.0869794921875,-0.26111525297164917,-0.009587096981704235,-0.11278154700994492
1696958671033993000,10.096992919921876,-0.2685718834400177,0.13102366030216217,-0.007323476951569319
1696958671044006400,10.10700634765625,-0.26218047738075256,0.05006595328450203,0.07896039634943008
1696958671054019800,10.117019775390625,-0.22915825247764587,-0.05006595328450203,-0.10639014840126038
1696958671064033000,10.127032958984374,-0.24513675272464752,0.02343512699007988,0.006524552125483751
1696958671074046500,10.13704638671875,-0.2568543255329132,0.01491326279938221,0.024633513763546944
1696958671084060000,10.147059814453126,-0.24407151341438293,0.03728315606713295,-0.061650361865758896
1696958671094073300,10.1570732421875,-0.22383208572864532,-0.07030537724494934,0.03528584539890289
1696958671104086800,10.167086669921876,-0.25259336829185486,-0.0053261648863554,-0.08402025699615479
1696958671114100000,10.177099853515625,-0.23341917991638184,-0.012782796286046505,0.05232957378029823
1696958671124113400,10.187113525390625,-0.21850591897964478,-0.03515268862247467,-0.060585130006074905
1696958671134126800,10.197126953125,-0.23341917991638184,0.009587096981704235,0.00226362026296556
1696958671144140300,10.207140380859375,-0.23235395550727844,0.007456631399691105,0.015046416781842709
1696958671154153700,10.21715380859375,-0.2248973250389099,0.02343512699007988,0.022503048181533813
1696958671164167200,10.227167236328125,-0.2259625494480133,-0.04793548583984375,-0.045671865344047546
1696958671174180600,10.2371806640625,-0.23128871619701385,-0.03302222490310669,0.006524552125483751
1696958671184194000,10.247194091796874,-0.22383208572864532,0.07350108027458191,0.08215609937906265
1696958671194207500,10.25720751953125,-0.22063638269901276,-0.08202294260263443,-0.06591129302978516
1696958671204221000,10.267220947265624,-0.21850591897964478,-0.04047885537147522,0.051264338195323944
1696958671214234400,10.277234375,-0.22063638269901276,-0.03941362351179123,0.020372580736875534
1696958671224247800,10.287247802734376,-0.21744069457054138,-0.0063913981430232525,-0.035019535571336746
1696958671234261200,10.29726123046875,-0.20359265804290771,-0.07563154399394989,0.08961272984743118
1696958671244274700,10.307274658203125,-0.19720126688480377,-0.05432688444852829,-0.09467258304357529
1696958671254288100,10.3172880859375,-0.21957115828990936,-0.00852186419069767,0.19187510013580322
1696958671264301600,10.327301513671875,-0.20039696991443634,-0.11291470378637314,-0.06271559745073318
1696958671274315000,10.33731494140625,-0.23874534666538239,0.05006595328450203,-0.035019535571336746
1696958671284328400,10.347328369140625,-0.23235395550727844,-0.0213046595454216,0.15991811454296112
1696958671294342000,10.357341796875,-0.23022349178791046,0.01917419396340847,-0.09893351793289185
1696958671304355300,10.367355224609375,-0.23235395550727844,0.01384802907705307,0.13222205638885498
1696958671314368800,10.37736865234375,-0.24513675272464752,0.07989247888326645,-0.020106272771954536
1696958671324382200,10.38738232421875,-0.2248973250389099,-0.0031956990715116262,0.10985215753316879
1696958671334395600,10.397395751953125,-0.237680122256279,-0.01704372838139534,-0.030758604407310486
1696958671344409000,10.4074091796875,-0.25152814388275146,0.07243584841489792,0.09493889659643173
1696958671354422500,10.417422607421875,-0.2483324557542801,-0.05113118514418602,0.1087869256734848
1696958671364436000,10.42743603515625,-0.235549658536911,-0.05645735189318657,-0.028628136962652206
1696958671374449400,10.437449462890624,-0.2557890713214874,-0.0106523297727108,0.14607007801532745
1696958671384462800,10.447462890625,-0.24087581038475037,-0.1278279572725296,-0.008388710208237171
1696958671394476300,10.457476318359374,-0.23341917991638184,-0.04047885537147522,0.1524614691734314
1696958671404489700,10.46748974609375,-0.23235395550727844,-0.21837277710437775,0.006524552125483751
1696958671414503200,10.477503173828126,-0.25152814388275146,-0.03089175745844841,0.08428656309843063
1696958671424516600,10.4875166015625,-0.22383208572864532,-0.15658925473690033,0.16524426639080048
1696958671434529800,10.49752978515625,-0.24620197713375092,-0.06284874677658081,-0.06271559745073318
1696958671444543200,10.507543212890624,-0.2685718834400177,-0.0745663121342659,0.2142449915409088
1696958671454556700,10.517556640625,-0.27176758646965027,-0.09054480493068695,-0.03928046673536301
1696958671464570000,10.527570068359376,-0.2664414048194885,-0.04367455467581749,0.14500483870506287
1696958671474583300,10.537583251953125,-0.27496325969696045,-0.09161003679037094,0.012915950268507004
1696958671484596700,10.5475966796875,-0.2557890713214874,-0.10013190656900406,0.10665645450353622
1696958671494610200,10.557610107421874,-0.26431095600128174,-0.14274121820926666,0.08535179495811462
1696958671504623600,10.56762353515625,-0.24620197713375092,-0.16724158823490143,0.020372580736875534
1696958671514637000,10.577636962890624,-0.24939768016338348,-0.17682868242263794,0.0981345921754837
1696958671524650200,10.587650146484375,-0.24194104969501495,-0.11184946447610855,0.04274247586727142
1696958671534663700,10.59766357421875,-0.2259625494480133,-0.2226337045431137,0.08109086751937866
1696958671544677000,10.607677001953125,-0.23981058597564697,-0.22795987129211426,0.050199106335639954
1696958671554690600,10.617690673828125,-0.24407151341438293,-0.1384802907705307,0.0778951644897461
1696958671564704000,10.6277041015625,-0.21317975223064423,-0.2354165017604828,0.08322133123874664
1696958671574717200,10.63771728515625,-0.2163754552602768,-0.26311254501342773,0.011850717477500439
1696958671584730600,10.647730712890626,-0.2248973250389099,-0.2961347699165344,0.07363422960042953
1696958671594744000,10.657744140625,-0.20998406410217285,-0.22795987129211426,0.06830807030200958
1696958671604757500,10.667757568359375,-0.20678836107254028,-0.31211328506469727,-0.042476166039705276
1696958671614770700,10.677770751953124,-0.20785360038280487,-0.36963585019111633,0.054460037499666214
1696958671624784100,10.6877841796875,-0.1844184696674347,-0.3408745527267456,0.0991998240351677
1696958671634797600,10.697797607421874,-0.18122276663780212,-0.3003957271575928,-0.10212921351194382
1696958671644811000,10.70781103515625,-0.18974463641643524,-0.2769605815410614,0.18122276663780212
1696958671654824400,10.717824462890626,-0.1311568170785904,-0.3717663288116455,-0.047802332788705826
1696958671664837600,10.727837646484375,-0.1822880059480667,-0.1171756312251091,0.017176883295178413
1696958671674851000,10.73785107421875,-0.2142449915409088,-0.1491326242685318,0.08854749798774719
1696958671684864500,10.747864501953124,-0.2163754552602768,-0.17789392173290253,-0.013714875094592571
1696958671694878000,10.7578779296875,-0.20785360038280487,-0.09800143539905548,0.0874822586774826
1696958671704891400,10.767891357421876,-0.20678836107254028,-0.07030537724494934,-0.023301972076296806
1696958671714904600,10.777904541015625,-0.2153102308511734,-0.06497921794652939,0.060851436108350754
1696958671724918000,10.78791796875,-0.2057231217622757,-0.12250179797410965,0.010785484686493874
1696958671734931500,10.797931396484374,-0.20039696991443634,-0.1267627328634262,0.020372580736875534
1696958671744945000,10.80794482421875,-0.23022349178791046,0.04687025398015976,-0.03928046673536301
1696958671754958000,10.8179580078125,-0.2270277887582779,-0.0852186381816864,0.044872939586639404
1696958671764971500,10.827971435546875,-0.21211452782154083,-0.19493764638900757,-0.06378082931041718
1696958671774985000,10.83798486328125,-0.22063638269901276,0.03089175745844841,-0.008388710208237171
1696958671784998400,10.847998291015625,-0.19720126688480377,-0.18535055220127106,0.026763979345560074
1696958671795011800,10.85801171875,-0.18122276663780212,-0.14274121820926666,-0.10212921351194382
1696958671805025000,10.86802490234375,-0.23022349178791046,-0.0031956990715116262,0.041677240282297134
1696958671815038500,10.87803857421875,-0.23341917991638184,-0.0639139786362648,-0.07975932210683823
1696958671825052000,10.888052001953126,-0.237680122256279,-0.012782796286046505,-0.004127778112888336
1696958671835065300,10.8980654296875,-0.237680122256279,-0.07989247888326645,-0.05312849581241608
1696958671845078800,10.908078857421875,-0.24939768016338348,0.0106523297727108,-0.035019535571336746
1696958671855092000,10.918092041015624,-0.23235395550727844,-0.0053261648863554,0.050199106335639954
1696958671865105400,10.92810546875,-0.23448441922664642,-0.0958709716796875,-0.05312849581241608
1696958671875118800,10.938118896484376,-0.2472672164440155,-0.007456631399691105,-0.035019535571336746
1696958671885132300,10.94813232421875,-0.24939768016338348,0.0213046595454216,0.023568280041217804
1696958671895145500,10.9581455078125,-0.24087581038475037,-0.07137060910463333,-0.042476166039705276
1696958671905159000,10.968158935546874,-0.25046291947364807,0.0106523297727108,0.0001331541279796511
1696958671915172400,10.97817236328125,-0.25472384691238403,0.03941362351179123,-0.021171506494283676
1696958671925185800,10.988185791015624,-0.24513675272464752,-0.03302222490310669,0.03954677656292915
1696958671935199200,10.99819921875,-0.24194104969501495,0.04154408723115921,0.007589785382151604
1696958671945212400,11.00821240234375,-0.2557890713214874,0.02450035884976387,-0.028628136962652206
1696958671955225900,11.018225830078125,-0.24939768016338348,-0.02343512699007988,0.022503048181533813
1696958671965239300,11.0282392578125,-0.2366148829460144,0.01810896210372448,-0.0030625448562204838
1696958671975252700,11.038252685546874,-0.25365862250328064,0,-0.041410934180021286
1696958671985266200,11.04826611328125,-0.2579195499420166,-0.04473978653550148,0.034220609813928604
1696958671995279400,11.058279296875,-0.24407151341438293,0.02023942768573761,0.018242115154862404
1696958672005292800,11.068292724609375,-0.2366148829460144,-0.05219641700387001,-0.023301972076296806
1696958672015306200,11.07830615234375,-0.2153102308511734,-0.1384802907705307,-0.08188978582620621
1696958672025319700,11.088319580078124,-0.2270277887582779,0.0213046595454216,0.07043853402137756
1696958672035333000,11.0983330078125,-0.21211452782154083,-0.06710968166589737,-0.058454662561416626
1696958672045346300,11.10834619140625,-0.22915825247764587,0.11291470378637314,-0.022236740216612816
1696958672055359700,11.11835986328125,-0.22063638269901276,-0.03834838792681694,0.06830807030200958
1696958672065373200,11.128373291015626,-0.23022349178791046,0.07776200771331787,-0.10532491654157639
1696958672075386600,11.13838671875,-0.20678836107254028,0.11504516750574112,0.041677240282297134
1696958672085399800,11.14839990234375,-0.17589659988880157,-0.1501978635787964,-0.08082455396652222
1696958672095413200,11.158413330078124,-0.2057231217622757,0.02343512699007988,-0.06271559745073318
1696958672105426700,11.1684267578125,-0.20998406410217285,0.05752258375287056,0.036351077258586884
1696958672115440000,11.178440185546876,-0.20359265804290771,0.06817491352558136,-0.1468690037727356
1696958672125453600,11.18845361328125,-0.20039696991443634,0.09054480493068695,0.031024912372231483
1696958672135466800,11.198466796875,-0.19294032454490662,0.02982652559876442,-0.06378082931041718
1696958672145480200,11.208480224609374,-0.2142449915409088,0.09480573982000351,-0.11171631515026093
1696958672155493600,11.21849365234375,-0.2259625494480133,0.1501978635787964,0.017176883295178413
1696958672165507000,11.228507080078124,-0.20785360038280487,-0.009587096981704235,-0.044606633484363556
1696958672175520500,11.2385205078125,-0.20146219432353973,0.06178351491689682,-0.044606633484363556
1696958672185533700,11.24853369140625,-0.24194104969501495,0.1374150663614273,-0.058454662561416626
1696958672195547100,11.258547119140625,-0.235549658536911,0.08095771074295044,0.024633513763546944
1696958672205560600,11.268560546875,-0.2046578973531723,-0.07669677585363388,-0.08188978582620621
1696958672215574000,11.278573974609374,-0.23448441922664642,0.03408745676279068,-0.06910699605941772
1696958672225587200,11.288587158203125,-0.237680122256279,-0.0010652330238372087,0.06298190355300903
1696958672235600600,11.2986005859375,-0.21850591897964478,-0.05219641700387001,-0.06591129302978516
1696958672245614000,11.308614013671875,-0.22915825247764587,0.01384802907705307,0.005459319334477186
1696958672255627500,11.31862744140625,-0.2483324557542801,-0.03834838792681694,-0.028628136962652206
1696958672265641000,11.328640869140624,-0.22809302806854248,-0.08947957307100296,0.026763979345560074
1696958672275654100,11.338654052734375,-0.21957115828990936,-0.07350108027458191,-0.0030625448562204838
1696958672285667600,11.34866748046875,-0.23341917991638184,-0.1395455300807953,0.008655018173158169
1696958672295681000,11.358680908203125,-0.23874534666538239,-0.0958709716796875,0.015046416781842709
1696958672305694500,11.368694580078126,-0.23235395550727844,-0.05858781561255455,0.06298190355300903
1696958672315708000,11.3787080078125,-0.235549658536911,-0.2023942768573761,-0.060585130006074905
1696958672325721000,11.38872119140625,-0.25365862250328064,-0.06817491352558136,0.053394805639982224
1696958672335734500,11.398734619140624,-0.23022349178791046,-0.09267527610063553,0.04913387447595596
1696958672345748000,11.408748046875,-0.23981058597564697,-0.11078423261642456,0.018242115154862404
1696958672355761400,11.418761474609376,-0.25472384691238403,-0.10439283400774002,0.021437814459204674
1696958672365774600,11.428774658203125,-0.2579195499420166,-0.02769605815410614,0.06404713541269302
1696958672375788000,11.4387880859375,-0.24620197713375092,-0.11397993564605713,0.019307348877191544
1696958672385801500,11.448801513671874,-0.24939768016338348,-0.10865376889705658,0.004394086077809334
1696958672395815000,11.45881494140625,-0.2579195499420166,-0.10439283400774002,0.026763979345560074
1696958672405828400,11.468828369140626,-0.25259336829185486,-0.1278279572725296,0.033155377954244614
1696958672415841500,11.478841552734375,-0.24300628900527954,-0.10758853703737259,-0.011584409512579441
1696958672425855000,11.48885498046875,-0.25365862250328064,-0.19387240707874298,-0.007323476951569319
1696958672435868400,11.498868408203125,-0.25152814388275146,-0.10226237028837204,0.011850717477500439
1696958672445881900,11.5088818359375,-0.2472672164440155,-0.11291470378637314,-0.031823836266994476
1696958672455895300,11.518895263671874,-0.2248973250389099,-0.26950395107269287,-0.05312849581241608
1696958672465908500,11.528908447265625,-0.21744069457054138,-0.29400432109832764,-0.03608476743102074
1696958672475922000,11.538921875,-0.22809302806854248,-0.15232832729816437,-0.07762885838747025
1696958672485935400,11.548935302734375,-0.2248973250389099,-0.24287313222885132,-0.06697652488946915
1696958672495948800,11.55894873046875,-0.2153102308511734,-0.252460241317749,-0.0723026916384697
1696958672505962000,11.5689619140625,-0.2153102308511734,-0.12143656611442566,-0.037150003015995026
1696958672515975400,11.578975341796875,-0.21850591897964478,-0.27056917548179626,-0.1585865616798401
1696958672525988900,11.58898876953125,-0.2046578973531723,-0.17895914614200592,-0.025432437658309937
1696958672536002300,11.599002197265625,-0.19720126688480377,-0.18748101592063904,-0.06910699605941772
1696958672546015700,11.609015625,-0.2163754552602768,-0.15445879101753235,-0.15432563424110413
1696958672556029000,11.61902880859375,-0.2046578973531723,-0.1480673849582672,0.029959678649902344
1696958672566042400,11.62904248046875,-0.1940055638551712,-0.20772044360637665,-0.12876003980636597
1696958672576055800,11.639055908203124,-0.21317975223064423,-0.10545806586742401,-0.1031944528222084
1696958672586069200,11.6490693359375,-0.19294032454490662,-0.1608501821756363,-0.017975807189941406
1696958672596082700,11.659082763671876,-0.18867939710617065,-0.21091613173484802,-0.12130340933799744
1696958672606096000,11.669095947265625,-0.20678836107254028,-0.10226237028837204,-0.04673709720373154
1696958672616109300,11.679109375,-0.18654893338680267,-0.1597849577665329,-0.020106272771954536
1696958672626122800,11.689122802734374,-0.17696183919906616,-0.21091613173484802,-0.09467258304357529
1696958672636136200,11.69913623046875,-0.2057231217622757,-0.08841434121131897,-0.07017222791910172
1696958672646149600,11.709149658203126,-0.18867939710617065,-0.19706811010837555,0.004394086077809334
1696958672656162800,11.719162841796875,-0.17589659988880157,-0.10758853703737259,-0.08828118443489075
1696958672666176300,11.72917626953125,-0.2046578973531723,-0.11504516750574112,-0.042476166039705276
1696958672676189700,11.739189697265624,-0.20039696991443634,-0.08628387749195099,-0.017975807189941406
1696958672686203100,11.749203125,-0.18974463641643524,-0.11930610239505768,-0.012649642303586006
1696958672696216300,11.75921630859375,-0.21104928851127625,-0.04047885537147522,-0.11278154700994492
1696958672706229800,11.769229736328125,-0.2046578973531723,-0.1278279572725296,0.061916667968034744
1696958672716243200,11.7792431640625,-0.20359265804290771,-0.05752258375287056,-0.10852061212062836
1696958672726256600,11.789256591796875,-0.2142449915409088,-0.0319569893181324,-0.004127778112888336
1696958672736270000,11.79927001953125,-0.20146219432353973,-0.10332760214805603,0.007589785382151604
1696958672746283300,11.809283203125,-0.21211452782154083,-0.06924014538526535,-0.06271559745073318
1696958672756296700,11.819296630859375,-0.21850591897964478,-0.06710968166589737,-0.010519175790250301
1696958672766310100,11.82931005859375,-0.2046578973531723,-0.07989247888326645,0.029959678649902344
1696958672776323600,11.839323486328125,-0.2153102308511734,-0.05113118514418602,-0.07443315535783768
1696958672786337000,11.8493369140625,-0.22170162200927734,-0.02769605815410614,-0.004127778112888336
1696958672796350200,11.85935009765625,-0.21211452782154083,-0.08202294260263443,0.047003407031297684
1696958672806363600,11.86936376953125,-0.2259625494480133,-0.004260932095348835,-0.12023817747831345
1696958672816377000,11.879377197265624,-0.2142449915409088,-0.04473978653550148,0.10985215753316879
1696958672826390500,11.889390625,-0.2142449915409088,-0.09906667470932007,-0.0829550251364708
1696958672836403700,11.89940380859375,-0.24194104969501495,0.0532616525888443,-0.005193010903894901
1696958672846417200,11.909417236328125,-0.2153102308511734,-0.02556559257209301,0.036351077258586884
1696958672856430600,11.9194306640625,-0.21744069457054138,-0.04047885537147522,-0.045671865344047546
1696958672866444000,11.929444091796874,-0.23128871619701385,-0.01917419396340847,0.00226362026296556
1696958672876457500,11.93945751953125,-0.22063638269901276,-0.05539211630821228,0.05232957378029823
1696958672886470700,11.949470703125,-0.23128871619701385,0.06604444980621338,-0.07656362652778625
1696958672896484000,11.959484130859375,-0.2259625494480133,-0.06071828305721283,0.053394805639982224
1696958672906497500,11.96949755859375,-0.22383208572864532,-0.03941362351179123,-0.006258244160562754
1696958672916511000,11.979510986328124,-0.22809302806854248,0.01704372838139534,-0.045671865344047546
1696958672926524400,11.9895244140625,-0.22063638269901276,-0.01491326279938221,0.029959678649902344
1696958672936537600,11.99953759765625,-0.21957115828990936,-0.06817491352558136,0.006524552125483751
1696958672946551000,12.009551025390625,-0.2259625494480133,-0.03941362351179123,-0.06697652488946915
1696958672956564500,12.019564453125,-0.21850591897964478,-0.0031956990715116262,0.05659050494432449
1696958672966578000,12.029577880859375,-0.22170162200927734,-0.06817491352558136,-0.035019535571336746
1696958672976591000,12.039591064453125,-0.2153102308511734,-0.0319569893181324,-0.017975807189941406
1696958672986604500,12.0496044921875,-0.2163754552602768,-0.02663082629442215,0.04913387447595596
1696958672996618000,12.059617919921875,-0.21957115828990936,-0.05113118514418602,-0.08828118443489075
1696958673006631400,12.06963134765625,-0.2142449915409088,-0.0021304660476744175,0.08535179495811462
1696958673016644900,12.079644775390625,-0.21850591897964478,-0.03834838792681694,-0.060585130006074905
1696958673026658000,12.089657958984375,-0.21744069457054138,0.0159784946590662,0.0001331541279796511
1696958673036671500,12.09967138671875,-0.20785360038280487,-0.05432688444852829,0.06298190355300903
1696958673046685000,12.109684814453125,-0.21744069457054138,-0.0213046595454216,-0.0925421193242073
1696958673056698400,12.119698486328126,-0.20359265804290771,0.012782796286046505,0.07469946891069412
1696958673066711800,12.1297119140625,-0.2153102308511734,-0.05645735189318657,-0.041410934180021286
1696958673076725200,12.139725341796876,-0.19826649129390717,0.0053261648863554,0.022503048181533813
1696958673086738700,12.14973876953125,-0.19933173060417175,-0.06924014538526535,0.04593817517161369
1696958673096752000,12.159752197265625,-0.20146219432353973,-0.04473978653550148,-0.10852061212062836
1696958673106765600,12.169765625,-0.18974463641643524,-0.01491326279938221,0.14926578104496002
1696958673116779000,12.179779052734375,-0.19294032454490662,-0.12037133425474167,-0.11065108329057693
1696958673126792200,12.189792236328126,-0.19187510013580322,0.05006595328450203,0.08002562820911407
