time,seconds_elapsed,z,y,x
1696961451080206300,0.163206298828125,-0.8461885452270508,-0.41714608669281006,-0.2733880877494812
1696961451090104300,0.173104248046875,-0.3084897994995117,-0.002411365509033203,-1.7761762142181396
1696961451100036000,0.1830361328125,-3.313232898712158,-0.8748515844345093,-0.7670934200286865
1696961451110004000,0.19300390625,-0.017378807067871094,0.5284284353256226,-0.7465307712554932
1696961451120007700,0.203007568359375,-1.481191635131836,-0.24801242351531982,0.1328033208847046
1696961451130047000,0.213046875,0.5053815841674805,0.17764663696289062,0.4195786118507385
1696961451140118500,0.223118408203125,-0.7767190933227539,-0.3953859806060791,-0.831783652305603
1696961451150219500,0.233219482421875,1.3861150741577148,0.5758020877838135,-1.0392487049102783
1696961451160344800,0.2433447265625,-0.6085071563720703,-1.1232208013534546,0.35018062591552734
1696961451170488800,0.25348876953125,0.05768394470214844,-0.333878755569458,-1.1205377578735352
1696961451180646100,0.263646240234375,-1.5450878143310547,0.20312321186065674,-2.053497791290283
1696961451190810000,0.27381005859375,-0.8190937042236328,-0.5820027589797974,-0.44959765672683716
1696961451200974300,0.283974365234375,0.7699441909790039,-0.024235129356384277,0.776674747467041
1696961451210998800,0.293998779296875,1.10498046875,-0.47490572929382324,-0.568283200263977
1696961451221012200,0.30401220703125,0.5706653594970703,0.4829047918319702,-0.9058440923690796
1696961451231025700,0.314025634765625,0.40883445739746094,-0.16491210460662842,-1.369292140007019
1696961451241039000,0.3240390625,-1.838395118713379,-0.8379033803939819,-0.3385058343410492
1696961451251052500,0.334052490234375,0.37886619567871094,0.31464648246765137,-1.0848677158355713
1696961451261066000,0.34406591796875,-1.1340312957763672,-0.40107858180999756,0.4133143126964569
1696961451271079400,0.354079345703125,0.32568836212158203,0.4264301061630249,0.3033585548400879
1696961451281092900,0.3640927734375,1.4172048568725586,-0.4990651607513428,0.10661183297634125
1696961451291106300,0.374106201171875,0.6539945602416992,0.3518482446670532,-1.2577906847000122
1696961451301119700,0.38411962890625,-0.7606544494628906,-0.35060548782348633,0.1882924735546112
1696961451311133200,0.39413330078125,2.2537641525268555,-0.01763153076171875,-0.3303722143173218
1696961451321146600,0.404146728515625,-2.862717628479004,-0.09920799732208252,-0.20741327106952667
1696961451331160000,0.41416015625,2.482271194458008,-0.20103347301483154,-0.03174658119678497
1696961451341173500,0.424173583984375,-1.464726448059082,0.6297512054443359,-0.9604321122169495
1696961451351187000,0.43418701171875,1.0918169021606445,-1.4820737838745117,0.3849368095397949
1696961451361200400,0.444200439453125,0.9415225982666016,1.5299495458602905,0.6700596213340759
1696961451371213800,0.4542138671875,-0.16488075256347656,-0.8878190517425537,0.5883493423461914
1696961451381227300,0.464227294921875,-0.029512405395507812,0.7434786558151245,0.5930366516113281
1696961451391240700,0.47424072265625,-0.15886878967285156,0.0724189281463623,-0.2209206223487854
1696961451401254100,0.484254150390625,-2.2910690307617188,-0.3126404285430908,-0.31325453519821167
1696961451411267600,0.494267578125,0.9617719650268555,-0.01247251033782959,-0.7981382012367249
1696961451421281000,0.504281005859375,-1.4344415664672852,-0.3063410520553589,-0.7254798412322998
1696961451431294500,0.51429443359375,-0.8368339538574219,0.27390599250793457,0.6382635831832886
1696961451441308000,0.524307861328125,-0.17725658416748047,-0.4270052909851074,0.4021628201007843
1696961451451321300,0.5343212890625,-0.7368173599243164,-0.2867894172668457,-0.16147470474243164
1696961451461334800,0.544334716796875,-2.9448728561401367,-0.8146278858184814,0.009133920073509216
1696961451471348200,0.55434814453125,1.0796966552734375,0.5382804870605469,-1.1346276998519897
1696961451481361700,0.564361572265625,-1.8672657012939453,0.37291061878204346,-0.9140125513076782
1696961451491375000,0.574375,0.9440526962280273,-1.0199520587921143,0.38708868622779846
1696961451501388500,0.584388427734375,-0.9160909652709961,0.6508196592330933,-0.03409946709871292
1696961451511402000,0.594402099609375,1.0845413208007812,0.3417624235153198,0.5044063925743103
1696961451521415400,0.60441552734375,0.035246849060058594,1.2070707082748413,0.3494744598865509
1696961451531428900,0.614428955078125,-0.19487571716308594,-1.1986898183822632,-0.3885379433631897
1696961451541442300,0.6244423828125,-0.49150943756103516,-0.014006972312927246,-0.5342106819152832
1696961451551455700,0.634455810546875,-0.7973232269287109,0.21895933151245117,-0.06934115290641785
1696961451561469200,0.64446923828125,1.4197120666503906,0.04515707492828369,-0.7113492488861084
1696961451571482600,0.654482666015625,-0.5965604782104492,-0.5430402755737305,-0.8097388744354248
1696961451581496000,0.66449609375,1.1466646194458008,-0.9808557033538818,0.40059977769851685
1696961451591509500,0.674509521484375,-0.3759784698486328,1.2064670324325562,-0.08956924080848694
1696961451601523000,0.68452294921875,-0.39880943298339844,-0.7039258480072021,-0.30485299229621887
1696961451611536400,0.694536376953125,0.17742156982421875,-0.3643660545349121,-0.09828251600265503
1696961451621550000,0.704550048828125,0.48485851287841797,0.33468174934387207,0.11864864826202393
1696961451631563500,0.7145634765625,1.2312335968017578,-0.6340817213058472,-0.3302556574344635
1696961451641577000,0.724576904296875,1.1926069259643555,1.0263882875442505,-1.1153157949447632
1696961451651590400,0.73459033203125,-0.7609491348266602,-0.7204016447067261,0.15376931428909302
1696961451661603800,0.744603759765625,1.586111068725586,-0.2117542028427124,-0.4437643587589264
1696961451671617500,0.754617431640625,-3.0873165130615234,-0.3951045274734497,0.25881823897361755
1696961451681631000,0.764630859375,2.3209543228149414,-0.00612485408782959,-0.0017813406884670258
1696961451691644400,0.77464453125,0.6869239807128906,0.8106465339660645,-0.9710462093353271
1696961451701657900,0.784657958984375,-0.5365076065063477,-1.9743797779083252,0.058967411518096924
1696961451711671300,0.79467138671875,-0.3968496322631836,0.902371883392334,-1.6155197620391846
1696961451721685000,0.80468505859375,0.8605976104736328,-0.4414083957672119,-0.511785089969635
1696961451731698400,0.814698486328125,-1.429549217224121,0.33779895305633545,-0.5680651068687439
1696961451741712000,0.8247119140625,0.08335494995117188,-0.9482669830322266,0.46465861797332764
1696961451751725300,0.834725341796875,-0.872222900390625,0.15779542922973633,-0.2613641619682312
1696961451761738800,0.84473876953125,1.1588172912597656,1.0511226654052734,0.028895847499370575
1696961451771752400,0.85475244140625,0.2559385299682617,-1.4044307470321655,-0.052895065397024155
1696961451781766000,0.864765869140625,-1.8040094375610352,0.7603964805603027,-0.30686095356941223
1696961451791779300,0.874779296875,1.2759313583374023,-0.3954439163208008,-0.27263566851615906
1696961451801792800,0.884792724609375,-0.7546863555908203,0.8586516380310059,-0.6927207708358765
1696961451811806200,0.89480615234375,-1.265101432800293,-0.9836975336074829,1.391816258430481
1696961451821820000,0.90481982421875,0.11419296264648438,0.4059576988220215,0.4433051347732544
1696961451831833300,0.914833251953125,-0.2979269027709961,0.22034454345703125,-0.026515625417232513
1696961451841846800,0.9248466796875,0.9563159942626953,0.09046947956085205,-0.018469594419002533
1696961451851860200,0.934860107421875,-1.436518669128418,0.04146146774291992,-0.08535416424274445
1696961451861873700,0.944873779296875,1.5257863998413086,-0.3243751525878906,0.4874230921268463
1696961451871887000,0.95488720703125,-1.003061294555664,-0.33902955055236816,-1.7071677446365356
1696961451881900800,0.96490087890625,-1.8220524787902832,0.5285683870315552,0.7516998052597046
1696961451891914200,0.974914306640625,0.826446533203125,0.32501447200775146,0.73773592710495
1696961451901927700,0.984927734375,-2.211958885192871,-0.8028223514556885,-0.6186714172363281
1696961451911941000,0.994941162109375,2.701101303100586,0.901321530342102,-1.3617256879806519
1696961451921954600,1.00495458984375,-3.410454273223877,-0.9270459413528442,0.16357238590717316
1696961451931968300,1.01496826171875,3.7159976959228516,0.20200574398040771,0.07727573812007904
1696961451941981700,1.024981689453125,-3.572528839111328,-0.6744976043701172,-0.7853519916534424
1696961451951995100,1.0349951171875,2.3476686477661133,0.7448787689208984,-0.21071572601795197
1696961451962008600,1.045008544921875,0.3554801940917969,-0.0862264633178711,0.23675352334976196
1696961451972022000,1.05502197265625,-0.5060405731201172,0.25792837142944336,-0.06395749747753143
1696961451982035700,1.06503564453125,0.42007923126220703,-1.3965232372283936,-0.9265828132629395
1696961451992049200,1.075049072265625,-0.18122196197509766,1.2272486686706543,0.3614349663257599
1696961452002062600,1.0850625,3.9680051803588867,-0.5688369274139404,-0.2919914126396179
1696961452012076000,1.095075927734375,-2.222903251647949,0.621807336807251,-0.4567490518093109
1696961452022089500,1.10508935546875,2.188526153564453,-1.274969220161438,-0.30011239647865295
1696961452032103200,1.115103271484375,-1.2862272262573242,1.7186297178268433,-0.5136849284172058
1696961452042116600,1.12511669921875,0.8337841033935547,-1.0594011545181274,0.3740282952785492
1696961452052130000,1.135130126953125,-0.7256355285644531,-0.4483424425125122,0.3499215543270111
1696961452062143500,1.1451435546875,1.9109277725219727,1.1199274063110352,-0.5746185183525085
1696961452072157000,1.155156982421875,-0.03900432586669922,-1.5941441059112549,-0.795336127281189
1696961452082170600,1.165170654296875,-2.4036245346069336,0.7236919403076172,0.11628943681716919
1696961452092184000,1.17518408203125,4.23061466217041,-0.313612699508667,-0.21092121303081512
1696961452102197500,1.185197509765625,-4.321486949920654,0.1616060733795166,-0.5388146042823792
1696961452112211000,1.1952109375,3.304218292236328,-0.012555599212646484,0.5195795297622681
1696961452122224400,1.205224365234375,-0.5530128479003906,-0.44985222816467285,-0.336393803358078
1696961452132238000,1.215238037109375,0.8810062408447266,-0.2778630256652832,-0.3001338541507721
1696961452142251500,1.22525146484375,0.1656198501586914,0.08164918422698975,-0.01975265145301819
1696961452152265000,1.235264892578125,-1.2176752090454102,0.44487905502319336,0.5248353481292725
1696961452162278400,1.2452783203125,0.48940086364746094,-1.4123735427856445,0.0025287196040153503
1696961452172291800,1.255291748046875,-2.5447840690612793,1.160224199295044,-0.46714845299720764
1696961452182305300,1.26530517578125,2.5278778076171875,-0.6247327327728271,-0.003035135567188263
1696961452192319000,1.275319091796875,-2.7801060676574707,0.6191391944885254,-0.6683341264724731
1696961452202332400,1.28533251953125,0.7026643753051758,-0.6166831254959106,0.1672063171863556
1696961452212345900,1.295345947265625,-2.1482558250427246,-0.8225550651550293,0.262910395860672
1696961452222359300,1.305359375,1.6954288482666016,1.9019848108291626,0.3222077190876007
1696961452232372700,1.315372802734375,0.31402587890625,-1.9349281787872314,-0.2329331636428833
1696961452242386400,1.325386474609375,-3.4812421798706055,0.46728765964508057,-0.452641099691391
1696961452252399900,1.33539990234375,4.417647361755371,1.2264310121536255,-0.07404883950948715
1696961452262413300,1.345413330078125,-5.28563928604126,-1.1050951480865479,0.09540180116891861
1696961452272426800,1.3554267578125,5.07551383972168,-0.007609724998474121,0.5660187005996704
1696961452282440200,1.365440185546875,-3.6638131141662598,0.3186829090118408,-0.2587798237800598
1696961452292454000,1.375453857421875,2.6727733612060547,1.2069756984710693,0.5760313272476196
1696961452302467300,1.38546728515625,-0.7049751281738281,-0.656589150428772,-1.3087432384490967
1696961452312480800,1.395480712890625,-2.897542953491211,-1.3711800575256348,-0.1511988341808319
1696961452322494200,1.405494140625,2.6012725830078125,2.200103759765625,0.3401176333427429
1696961452332507600,1.415507568359375,-2.3020853996276855,-1.0236468315124512,-0.7621671557426453
1696961452342521300,1.425521240234375,1.3714942932128906,0.6367213726043701,1.2281562089920044
1696961452352534800,1.43553466796875,-0.48311901092529297,-2.1923556327819824,-1.5939760208129883
1696961452362548200,1.44554833984375,-1.7598552703857422,1.0679901838302612,-0.2823563516139984
1696961452372561700,1.455561767578125,2.3669700622558594,-0.03797745704650879,-0.926862895488739
1696961452382575000,1.4655751953125,-0.713322639465332,0.00061798095703125,0.7257349491119385
1696961452392588800,1.4755888671875,-0.7462072372436523,-0.34727656841278076,-0.8248076438903809
1696961452402602200,1.485602294921875,1.0764427185058594,-0.5459785461425781,-0.27657604217529297
1696961452412615700,1.49561572265625,1.2544689178466797,1.0222375392913818,-0.3286913335323334
1696961452422629000,1.505629150390625,-0.3430156707763672,-0.7852166891098022,-0.019929267466068268
1696961452432642600,1.515642578125,2.6666975021362305,-0.15021216869354248,0.2843228280544281
1696961452442656300,1.52565625,-1.2764616012573242,0.7228549718856812,-0.23845255374908447
1696961452452669700,1.535669677734375,3.1295595169067383,-0.5667992830276489,0.16621989011764526
1696961452462683100,1.54568310546875,-1.3306083679199219,0.7223215103149414,0.24718040227890015
1696961452472696600,1.555696533203125,1.1439085006713867,-0.15214431285858154,0.420127809047699
1696961452482710000,1.5657099609375,0.3327465057373047,0.0014646053314208984,0.5402143001556396
1696961452492723500,1.575723388671875,-1.6440544128417969,-0.943217396736145,-0.03902801126241684
1696961452502737200,1.585737060546875,1.5323219299316406,0.3397425413131714,0.8087518215179443
1696961452512750600,1.59575048828125,-1.3333511352539062,1.4745911359786987,-0.11524270474910736
1696961452522764000,1.605763916015625,0.7126626968383789,-2.4675519466400146,0.2924848794937134
1696961452532777500,1.615777587890625,-2.495650291442871,1.0820192098617554,0.46478933095932007
1696961452542791000,1.625791015625,0.9191732406616211,-0.024854063987731934,1.3022421598434448
1696961452552804600,1.6358046875,-0.5099430084228516,1.6075431108474731,-0.23422808945178986
1696961452562818000,1.645818115234375,-1.6733779907226562,-2.251739978790283,0.04242648184299469
1696961452572831500,1.65583154296875,-0.4017162322998047,1.3501402139663696,0.05517921969294548
1696961452582845000,1.665844970703125,1.1665754318237305,-0.6832833290100098,-0.3764227628707886
1696961452592858400,1.6758583984375,-1.4888086318969727,0.33142101764678955,-0.5578136444091797
1696961452602872000,1.6858720703125,-0.6617546081542969,-0.19224750995635986,0.8484200835227966
1696961452612885500,1.695885498046875,-0.8055572509765625,-0.6320326328277588,0.5165479779243469
1696961452622899000,1.70589892578125,-0.23904800415039062,0.7878684997558594,-0.1601683795452118
1696961452632912400,1.715912353515625,-0.3375663757324219,-0.9217593669891357,0.6361956000328064
1696961452642925800,1.72592578125,0.9932479858398438,0.14925014972686768,-0.039433225989341736
1696961452652939500,1.735939453125,0.5257139205932617,-0.3872802257537842,-0.1798645257949829
1696961452662953000,1.745952880859375,-0.010558128356933594,1.2040774822235107,-0.7498858571052551
1696961452672966400,1.75596630859375,-0.14832115173339844,-1.2765612602233887,1.3263719081878662
1696961452682979800,1.765979736328125,0.5059585571289062,-0.26490771770477295,0.5619890689849854
1696961452692993300,1.7759931640625,-1.2441425323486328,1.0130847692489624,0.9818119406700134
1696961452703007000,1.786007080078125,3.351228713989258,-0.20569896697998047,-0.19365322589874268
1696961452713020400,1.7960205078125,-3.221557140350342,0.13460946083068848,0.010893531143665314
1696961452723033900,1.806033935546875,3.2229156494140625,0.008934378623962402,0.10598184168338776
1696961452733047300,1.81604736328125,-1.2538938522338867,-0.14034783840179443,-0.4584391713142395
1696961452743060700,1.826060791015625,0.5914039611816406,0.8165489435195923,0.5266991853713989
1696961452753074400,1.836074462890625,-1.6942329406738281,-0.7576717138290405,0.28141382336616516
1696961452763088000,1.846087890625,2.1544322967529297,1.2698767185211182,0.49488404393196106
1696961452773101300,1.856101318359375,-3.0416884422302246,-1.2961046695709229,0.578498363494873
1696961452783114800,1.86611474609375,4.449987411499023,0.4090200662612915,-0.9347279667854309
1696961452793128200,1.876128173828125,-3.575282096862793,-0.25325584411621094,0.19322407245635986
1696961452803141600,1.8861416015625,2.761406898498535,0.777025580406189,0.3805793225765228
1696961452813155300,1.8961552734375,-1.341660499572754,-0.738579273223877,1.8933560848236084
1696961452823168800,1.906168701171875,0.07672786712646484,0.371812105178833,0.40522322058677673
1696961452833182200,1.91618212890625,0.7395610809326172,-1.679540991783142,1.116780161857605
1696961452843195600,1.926195556640625,-0.14457988739013672,1.5910096168518066,0.7608011960983276
1696961452853209000,1.936208984375,1.2396116256713867,-1.3801560401916504,-0.08938851952552795
1696961452863222800,1.946222900390625,-0.6912908554077148,0.8858696222305298,-0.5743060111999512
1696961452873236200,1.956236328125,0.046303749084472656,-0.3676419258117676,0.43021684885025024
1696961452883249700,1.966249755859375,-1.2832698822021484,-0.7819967269897461,1.0150700807571411
1696961452893263000,1.97626318359375,2.2122793197631836,2.032309055328369,-0.034022048115730286
1696961452903276500,1.986276611328125,-0.9155673980712891,-2.0329740047454834,1.47285795211792
1696961452913290200,1.996290283203125,-0.00048065185546875,1.0518392324447632,0.6663248538970947
1696961452923303700,2.0063037109375,0.15688228607177734,-1.1037122011184692,0.3450922966003418
1696961452933317000,2.016317138671875,-0.6637945175170898,1.485973834991455,0.3207707107067108
1696961452943330600,2.02633056640625,1.0793075561523438,-0.11854398250579834,-0.281648725271225
1696961452953344000,2.036343994140625,-2.2819018363952637,-0.15581166744232178,1.0284793376922607
1696961452963357700,2.046357666015625,0.8945722579956055,-0.325756311416626,0.47577065229415894
1696961452973371100,2.05637109375,-1.6074199676513672,-0.14001893997192383,0.17789973318576813
1696961452983384600,2.066384521484375,2.0284290313720703,1.161150574684143,1.3338017463684082
1696961452993398000,2.07639794921875,-1.8238835334777832,-1.2521547079086304,-0.23690378665924072
1696961453003411500,2.086411376953125,0.9408378601074219,0.8885380029678345,0.24256674945354462
1696961453013425200,2.096425048828125,-0.8476123809814453,-1.0809695720672607,-2.12286114692688
1696961453023438600,2.1064384765625,-2.851761817932129,-0.41109228134155273,1.5321038961410522
1696961453033452000,2.1164521484375,3.493220329284668,0.8549699783325195,0.917412519454956
1696961453043465500,2.126465576171875,-1.7966341972351074,0.0014977455139160156,0.1862880140542984
1696961453053479000,2.13647900390625,0.6103725433349609,-0.3137422800064087,0.573261022567749
1696961453063492600,2.14649267578125,-0.0069293975830078125,-0.8640948534011841,0.9830549955368042
1696961453073506000,2.156506103515625,1.5629730224609375,1.3463255167007446,0.1398974508047104
1696961453083519500,2.16651953125,-0.5273838043212891,-0.4374943971633911,-0.17882020771503448
1696961453093533000,2.176532958984375,2.4084348678588867,-0.04406118392944336,1.229261040687561
1696961453103546400,2.18654638671875,-1.974294662475586,0.34635090827941895,1.2399134635925293
1696961453113560000,2.19656005859375,1.0357751846313477,0.14252042770385742,1.2426648139953613
1696961453123573500,2.206573486328125,-1.3278255462646484,-1.019547462463379,0.8245843052864075
1696961453133587200,2.216587158203125,0.7483911514282227,0.27074098587036133,-0.4618053436279297
1696961453143600600,2.2266005859375,0.8500299453735352,1.1936930418014526,0.4061048626899719
1696961453153614000,2.236614013671875,-0.8387012481689453,-0.5036302804946899,-1.0856928825378418
1696961453163627800,2.246627685546875,-0.13510799407958984,-0.3336750268936157,0.4905749559402466
1696961453173641200,2.25664111328125,-1.343637466430664,-0.4825047254562378,-0.3061235845088959
1696961453183655000,2.266655029296875,-1.9642047882080078,0.7027425765991211,0.8518339991569519
1696961453193668400,2.27666845703125,4.128964424133301,-0.34385955333709717,1.298372507095337
1696961453203681800,2.286681884765625,-3.463930130004883,-1.2021996974945068,0.3263806104660034
1696961453213695500,2.296695556640625,3.1373395919799805,0.7580455541610718,-1.4869091510772705
1696961453223709000,2.306708984375,-1.2939834594726562,0.7108352184295654,0.27079808712005615
1696961453233722600,2.31672265625,3.042881965637207,0.13848936557769775,0.527834951877594
1696961453243736000,2.326736083984375,-4.48677921295166,-1.3066625595092773,1.3673598766326904
1696961453253749500,2.33674951171875,1.9403648376464844,0.6238764524459839,0.720917820930481
1696961453263763200,2.34676318359375,0.6648292541503906,-0.3794358968734741,-0.3178354501724243
1696961453273776600,2.356776611328125,0.5251960754394531,0.9508051872253418,0.7266956567764282
1696961453283790300,2.366790283203125,0.8104772567749023,-2.0650634765625,-1.3526264429092407
1696961453293803800,2.3768037109375,-2.7089853286743164,0.4839237928390503,-0.07492636144161224
1696961453303817200,2.386817138671875,3.0648345947265625,0.9459155797958374,0.12999248504638672
1696961453313831000,2.396830810546875,-2.677767753601074,0.03207254409790039,1.2847115993499756
1696961453323844400,2.40684423828125,2.447737693786621,-1.7435660362243652,0.37320733070373535
1696961453333858000,2.416858154296875,-1.622457504272461,0.7023608684539795,0.9979077577590942
1696961453343871500,2.42687158203125,2.3252296447753906,0.48314523696899414,0.30553799867630005
1696961453353885000,2.436885009765625,-0.0027065277099609375,0.6504760980606079,0.0015978515148162842
1696961453363898600,2.446898681640625,-1.1433124542236328,-0.9585450887680054,-0.5354347825050354
1696961453373912000,2.456912109375,-0.5094566345214844,-0.0977334976196289,0.13493123650550842
1696961453383925800,2.46692578125,0.9140205383300781,1.115747094154358,1.1108468770980835
1696961453393939200,2.476939208984375,-0.23931407928466797,-1.089855432510376,0.9859321713447571
1696961453403952600,2.48695263671875,0.8017969131469727,-0.055298805236816406,-0.5943827629089355
1696961453413966300,2.49696630859375,-2.2743940353393555,-0.21176671981811523,-0.21390417218208313
1696961453423979800,2.506979736328125,1.431929588317871,-0.3462367057800293,-0.5306975841522217
1696961453433993500,2.516993408203125,0.11304950714111328,0.5130084753036499,-1.1110670566558838
1696961453444007000,2.5270068359375,-1.7495059967041016,-1.1581062078475952,0.031164467334747314
1696961453454020400,2.537020263671875,1.415719985961914,1.2208747863769531,0.13464990258216858
1696961453464034000,2.547033935546875,-1.5625391006469727,-1.7482836246490479,0.35073035955429077
1696961453474047500,2.557047607421875,2.7487030029296875,0.6733987331390381,-0.1613452136516571
1696961453484061000,2.56706103515625,-3.2783169746398926,-0.23169660568237305,0.4491679072380066
1696961453494074600,2.57707470703125,4.552995681762695,0.6234843730926514,-0.4038153886795044
1696961453504088000,2.587088134765625,-2.998241424560547,0.16474783420562744,0.09537732601165771
1696961453514101500,2.5971015625,3.882875442504883,0.06262993812561035,1.555943250656128
1696961453524115000,2.607114990234375,-1.1832141876220703,-0.3031320571899414,1.4759217500686646
1696961453534128400,2.61712841796875,0.8377656936645508,0.7422562837600708,0.19190368056297302
1696961453544142000,2.62714208984375,-1.754833698272705,-0.5196372270584106,0.42972099781036377
1696961453554155500,2.637155517578125,1.3398866653442383,0.3923536539077759,-0.3865351676940918
1696961453564169000,2.6471689453125,-2.2171082496643066,0.28977298736572266,-0.5363370180130005
1696961453574182400,2.657182373046875,0.5908956527709961,-0.6540940999984741,0.14135727286338806
1696961453584195800,2.66719580078125,-1.933687686920166,0.6276642084121704,0.12659066915512085
1696961453594209500,2.67720947265625,1.5413665771484375,-0.8845256567001343,0.46917426586151123
1696961453604223000,2.687222900390625,-1.4349145889282227,-0.4249159097671509,0.1105213314294815
1696961453614236400,2.697236328125,0.9601707458496094,0.9817627668380737,-0.41437479853630066
1696961453624249900,2.707249755859375,-1.4789257049560547,-0.43818485736846924,-1.01851487159729
1696961453634263300,2.71726318359375,0.5159940719604492,0.38425111770629883,0.33752089738845825
1696961453644276700,2.72727685546875,-1.376058578491211,-1.4880865812301636,-1.160035490989685
1696961453654290400,2.73729052734375,-1.2178945541381836,1.127256989479065,0.32271647453308105
1696961453664303900,2.747303955078125,2.635316848754883,-0.049544453620910645,-0.07184826582670212
1696961453674317300,2.7573173828125,-1.3586387634277344,-0.03150522708892822,0.564505934715271
1696961453684330800,2.767330810546875,0.6815042495727539,-1.0461928844451904,-0.380460649728775
1696961453694344200,2.77734423828125,1.190704345703125,1.3207305669784546,-1.4016757011413574
1696961453704358000,2.78735791015625,-0.861079216003418,-0.22726929187774658,0.1208282858133316
1696961453714371300,2.797371337890625,1.4955358505249023,-0.3705785274505615,0.05701245367527008
1696961453724384800,2.807384765625,-1.9520549774169922,-0.2380962371826172,0.24753732979297638
1696961453734398200,2.817398193359375,1.763718605041504,1.2872482538223267,0.0383782833814621
1696961453744411600,2.82741162109375,-2.0286312103271484,-0.11838757991790771,-0.22442778944969177
1696961453754425300,2.83742529296875,1.2624711990356445,-0.34951353073120117,0.25753670930862427
1696961453764438800,2.847438720703125,-0.977386474609375,-0.09902536869049072,-0.8293722867965698
1696961453774452200,2.8574521484375,0.17539024353027344,0.14101839065551758,-0.46581190824508667
1696961453784465700,2.867465576171875,0.09298992156982422,-0.19553732872009277,0.6412447690963745
1696961453794479000,2.87747900390625,-0.47110939025878906,0.2897837162017822,0.41644734144210815
1696961453804492800,2.887492919921875,-0.9228668212890625,-0.4179028272628784,0.28671982884407043
1696961453814506200,2.89750634765625,-0.14583110809326172,0.9618953466415405,0.7687090039253235
1696961453824519700,2.907519775390625,0.38491344451904297,-0.2790297269821167,-0.8214600682258606
1696961453834533000,2.917533203125,-0.4522514343261719,-0.5243453979492188,-0.8610844016075134
1696961453844546600,2.927546630859375,-1.1441669464111328,-0.4017270803451538,-1.2005159854888916
1696961453854560300,2.937560302734375,1.1018667221069336,0.03843832015991211,-0.1745285540819168
1696961453864573700,2.94757373046875,-1.4143972396850586,0.10169863700866699,0.2506089210510254
1696961453874587100,2.957587158203125,0.9243288040161133,-0.7585779428482056,0.48285338282585144
1696961453884600600,2.9676005859375,-1.0847139358520508,-0.012629389762878418,-1.3053516149520874
1696961453894614000,2.977614013671875,2.5379772186279297,0.7135463953018188,0.02180781215429306
1696961453904627700,2.987627685546875,-1.0753498077392578,0.7490923404693604,-0.2447648048400879
1696961453914641200,2.99764111328125,1.3118839263916016,-1.7557275295257568,0.6212407946586609
1696961453924654600,3.007654541015625,-1.3318462371826172,1.0766453742980957,0.6921631693840027
1696961453934668000,3.01766796875,2.0448122024536133,-0.2884976863861084,0.23375317454338074
1696961453944681500,3.027681396484375,-0.8589801788330078,0.17887485027313232,-0.013057902455329895
1696961453954695000,3.03769482421875,0.2711505889892578,-0.42511725425720215,-0.6711964011192322
1696961453964708600,3.04770849609375,-1.888728141784668,0.18187034130096436,-0.015790238976478577
1696961453974722000,3.05772216796875,1.6931610107421875,-0.09196007251739502,-0.6260310411453247
1696961453984735500,3.067735595703125,-2.3483972549438477,0.3813573122024536,0.5915502309799194
1696961453994749000,3.0777490234375,0.60906982421875,-0.35374677181243896,0.264919638633728
1696961454004762400,3.087762451171875,-0.8365316390991211,1.0971224308013916,-0.4465521574020386
1696961454014776000,3.097776123046875,-0.056870460510253906,-1.2485300302505493,-1.0209063291549683
1696961454024789500,3.10778955078125,-0.3968820571899414,0.853195071220398,0.31331196427345276
1696961454034803000,3.117802978515625,-0.3200416564941406,-1.074151635169983,-0.7720633745193481
1696961454044816400,3.12781640625,-1.0361614227294922,-0.2013568878173828,-1.1309232711791992
1696961454054829800,3.137829833984375,-0.4405860900878906,0.6254286766052246,-0.10160462558269501
1696961454064843500,3.147843505859375,1.5772333145141602,-0.22793304920196533,0.2108617126941681
1696961454074857000,3.15785693359375,-0.6708669662475586,-0.4539891481399536,0.7609164714813232
1696961454084870400,3.167870361328125,1.362401008605957,0.413952112197876,0.1897963285446167
1696961454094883800,3.1778837890625,-1.047471046447754,-0.15739703178405762,-0.21467623114585876
1696961454104897300,3.187897216796875,-0.4368581771850586,0.6848657131195068,0.32171326875686646
1696961454114911000,3.197910888671875,1.8905181884765625,-1.5395241975784302,-0.385984867811203
1696961454124924400,3.20792431640625,-2.6051955223083496,1.0231425762176514,0.22223222255706787
1696961454134937900,3.217937744140625,3.7017345428466797,0.07625579833984375,0.17968697845935822
1696961454144951300,3.227951416015625,-2.34335994720459,0.16462862491607666,-1.3378593921661377
1696961454154964700,3.23796484375,1.3780155181884766,-0.8023135662078857,-0.49408090114593506
1696961454164978400,3.247978515625,-2.2527894973754883,1.1475746631622314,0.6678098440170288
1696961454174992000,3.257991943359375,0.1130218505859375,-1.4414722919464111,-0.14123202860355377
1696961454185005600,3.268005615234375,-0.2643146514892578,1.2265629768371582,1.040648341178894
1696961454195019000,3.27801904296875,1.003098487854004,-0.9265460968017578,-1.0672608613967896
1696961454205032400,3.288032470703125,-1.9937524795532227,0.28542160987854004,-0.37632426619529724
1696961454215046100,3.298046142578125,2.244363784790039,0.15402531623840332,-0.0023452937602996826
1696961454225059600,3.3080595703125,-2.1277294158935547,0.5730146169662476,0.5446944236755371
1696961454235073300,3.3180732421875,0.6444931030273438,-1.1351912021636963,-0.5240457057952881
1696961454245086700,3.328086669921875,-1.9991536140441895,-0.32713782787323,-0.05036929249763489
1696961454255100200,3.33810009765625,2.0178871154785156,0.6876311302185059,-0.5638245344161987
1696961454265113900,3.34811376953125,0.9318075180053711,0.052452802658081055,-0.3527865707874298
1696961454275127300,3.358127197265625,-0.9060544967651367,-0.21064484119415283,-0.8534413576126099
1696961454285141000,3.36814111328125,0.8059825897216797,-0.43576812744140625,-0.0008370727300643921
1696961454295154400,3.378154541015625,0.5988245010375977,1.0857222080230713,0.5958846807479858
1696961454305168000,3.38816796875,-1.035247802734375,-1.360276699066162,-0.755277156829834
1696961454315181600,3.398181640625,1.5295839309692383,0.39382851123809814,0.9880268573760986
1696961454325195000,3.408195068359375,-0.2314453125,0.2904989719390869,-0.1252552717924118
1696961454335208700,3.418208740234375,1.011561393737793,0.3785223960876465,-0.8658425807952881
1696961454345222100,3.42822216796875,1.433354377746582,-0.2614322900772095,-1.0379871129989624
1696961454355235600,3.438235595703125,-3.506237030029297,-0.4946272373199463,0.7124438881874084
1696961454365249300,3.448249267578125,2.823843002319336,1.05928635597229,1.795680284500122
1696961454375262700,3.4582626953125,-4.9512939453125,-0.5312968492507935,-0.14938023686408997
1696961454385276200,3.468276123046875,3.728583335876465,-0.3964962959289551,-0.3752342462539673
1696961454395289900,3.478289794921875,-3.0323638916015625,0.7906657457351685,-0.2035793960094452
1696961454405303300,3.48830322265625,1.8865785598754883,-0.6465071439743042,-0.9924683570861816
1696961454415317000,3.49831689453125,-2.227851390838623,0.763625979423523,0.6333231329917908
1696961454425330400,3.508330322265625,2.159602165222168,-0.029181480407714844,1.3860529661178589
1696961454435344000,3.51834375,-3.234656810760498,-0.14136183261871338,-0.4653173089027405
1696961454445357600,3.528357666015625,1.9625673294067383,0.20340847969055176,-0.05452882498502731
1696961454455371000,3.53837109375,-2.6823320388793945,-0.5916529893875122,-1.1837687492370605
1696961454465384700,3.548384765625,1.910268783569336,0.266571044921875,-1.7399632930755615
1696961454475398100,3.558398193359375,-1.5738468170166016,-0.36065173149108887,0.21456147730350494
1696961454485411600,3.56841162109375,1.0341978073120117,1.4563480615615845,0.3233965039253235
1696961454495425300,3.57842529296875,-1.3465909957885742,-1.8027536869049072,0.8598217368125916
1696961454505438700,3.588438720703125,1.744856834411621,1.0042117834091187,0.392496258020401
1696961454515452400,3.598452392578125,0.30765342712402344,-0.17852139472961426,-0.4137585461139679
1696961454525465900,3.6084658203125,0.8705244064331055,0.29983270168304443,-1.5276917219161987
1696961454535479300,3.618479248046875,-0.38932323455810547,0.2510824203491211,0.08250404894351959
1696961454545493000,3.628492919921875,0.7717208862304688,-0.19862496852874756,0.17580780386924744
1696961454555506400,3.63850634765625,-0.841094970703125,0.13987326622009277,0.4033193290233612
1696961454565520000,3.648519775390625,0.1264333724975586,-0.06646716594696045,1.5707298517227173
1696961454575533300,3.658533203125,0.9768686294555664,-0.8612319231033325,-0.7558165192604065
1696961454585546800,3.668546630859375,-0.9610099792480469,1.1776561737060547,-1.2538237571716309
1696961454595560400,3.678560546875,0.9612483978271484,-0.014641761779785156,-2.080794095993042
1696961454605574000,3.688573974609375,-2.076272487640381,-0.6684408187866211,1.2662444114685059
1696961454615587300,3.69858740234375,1.6421737670898438,0.4350924491882324,0.9004108309745789
1696961454625600800,3.708600830078125,-2.8766279220581055,-0.17141401767730713,-0.11819681525230408
1696961454635614200,3.7186142578125,1.5176115036010742,-0.8888463973999023,-0.7907664179801941
1696961454645628000,3.7286279296875,0.8730440139770508,0.7916398048400879,-0.8882752656936646
1696961454655641300,3.738641357421875,-1.2369070053100586,-1.2527533769607544,-0.31599754095077515
1696961454665654800,3.74865478515625,-0.8231735229492188,0.9942828416824341,-0.5669273734092712
1696961454675668200,3.758668212890625,1.5394630432128906,-0.050725340843200684,0.9175518155097961
1696961454685681700,3.768681640625,-1.6652555465698242,-0.24022948741912842,1.696120023727417
1696961454695695400,3.7786953125,2.635819435119629,-0.842619776725769,0.07808074355125427
1696961454705708800,3.788708740234375,-0.8491067886352539,0.7378679513931274,-0.9092061519622803
1696961454715722200,3.79872216796875,1.7375898361206055,-0.3844780921936035,-1.0900880098342896
1696961454725735700,3.808735595703125,-0.35637569427490234,0.917622447013855,-1.2210915088653564
1696961454735749000,3.8187490234375,-1.6466312408447266,-0.37391412258148193,0.9270902276039124
1696961454745762800,3.8287626953125,1.5593500137329102,-0.6083900928497314,1.0740729570388794
1696961454755776300,3.8387763671875,-0.8665409088134766,0.1106027364730835,0.5387957692146301
1696961454765789700,3.848789794921875,0.7948751449584961,-0.545417308807373,-0.12445772439241409
1696961454775803100,3.85880322265625,-0.3725290298461914,-0.1884934902191162,-0.018720299005508423
1696961454785816600,3.868816650390625,1.6783275604248047,0.9010359048843384,-1.4400866031646729
1696961454795830000,3.878830078125,-1.7003908157348633,-0.37809717655181885,-0.6589301228523254
1696961454805843700,3.88884375,-0.5164699554443359,-0.4876464605331421,0.5153448581695557
1696961454815857200,3.898857177734375,-0.1568012237548828,-1.1170215606689453,0.07480592280626297
1696961454825870600,3.90887060546875,0.22606658935546875,1.3123087882995605,-0.8344757556915283
1696961454835884000,3.918884033203125,-0.7874898910522461,-1.0043001174926758,-1.085917353630066
1696961454845897500,3.9288974609375,0.35151100158691406,0.18524110317230225,-1.9693299531936646
1696961454855911200,3.9389111328125,0.15461254119873047,0.5530253648757935,-1.040016770362854
1696961454865924600,3.948924560546875,-0.9680690765380859,-0.4553978443145752,1.2913615703582764
1696961454875938000,3.95893798828125,0.18297767639160156,-0.8833091259002686,0.12118203192949295
1696961454885951500,3.968951416015625,-1.6798830032348633,0.1448591947555542,-0.4562336802482605
1696961454895965000,3.97896484375,2.425368309020996,-0.12254667282104492,-0.16380344331264496
1696961454905978600,3.988978515625,-0.013291358947753906,0.2798091173171997,-1.0193716287612915
1696961454915992000,3.998991943359375,-1.3711748123168945,-0.6158783435821533,-0.028524577617645264
1696961454926005500,4.009005615234375,2.1871728897094727,0.2726641893386841,0.24373671412467957
1696961454936019000,4.01901904296875,-0.8001909255981445,0.9207671880722046,0.6900624632835388
1696961454946032400,4.029032470703125,0.6267404556274414,-1.365077257156372,0.8971696496009827
1696961454956046000,4.039046142578125,-2.5093131065368652,-0.22185182571411133,-0.15144240856170654
1696961454966059500,4.0490595703125,2.443279266357422,0.10304915904998779,-0.5967483520507812
1696961454976073000,4.059072998046875,0.13344860076904297,1.2267799377441406,-1.3099818229675293
1696961454986086400,4.06908642578125,-1.8562078475952148,-1.4505515098571777,-0.23377779126167297
1696961454996099800,4.079099853515625,1.402298927307129,0.21925950050354004,0.20117011666297913
1696961455006113500,4.089113525390625,-0.7660551071166992,0.8447664976119995,0.17395558953285217
1696961455016127000,4.099126953125,0.9088840484619141,-1.5775573253631592,-0.5228503942489624
1696961455026140400,4.109140380859375,-0.38402748107910156,0.23481261730194092,-0.6948546767234802
1696961455036153900,4.11915380859375,-0.1396961212158203,-0.24190688133239746,-1.361322283744812
1696961455046167300,4.129167236328125,-0.16842269897460938,0.5208524465560913,-0.28069764375686646
1696961455056181000,4.139180908203125,0.7258148193359375,-0.26479780673980713,0.006900429725646973
1696961455066194400,4.1491943359375,-1.4113597869873047,-1.3628454208374023,0.9373184442520142
1696961455076207900,4.159207763671875,1.957193374633789,0.5492831468582153,-0.5007303357124329
1696961455086221300,4.16922119140625,0.5284585952758789,0.22151637077331543,-1.0294289588928223
1696961455096234800,4.17923486328125,1.1913776397705078,-0.9306380748748779,-0.7436867952346802
1696961455106248200,4.189248291015625,-1.4550275802612305,0.2649853229522705,-0.40920788049697876
1696961455116262000,4.199261962890625,1.291879653930664,-0.44854748249053955,0.8677053451538086
1696961455126275300,4.209275390625,0.6009111404418945,0.33396685123443604,-0.05531027913093567
1696961455136288800,4.219288818359375,-0.4178342819213867,-1.003692865371704,0.26709336042404175
1696961455146302200,4.22930224609375,0.5682687759399414,0.8596439361572266,-0.3996788263320923
1696961455156315600,4.239315673828125,-0.9859685897827148,-0.9605660438537598,0.14545617997646332
1696961455166329300,4.249329345703125,0.9947910308837891,0.9830514192581177,-0.5876655578613281
1696961455176342800,4.2593427734375,-0.5229082107543945,-1.1402220726013184,-0.43059051036834717
1696961455186356200,4.269356201171875,-1.6640024185180664,0.13001132011413574,0.240052729845047
1696961455196369700,4.27936962890625,0.7151956558227539,-0.44814085960388184,0.37677836418151855
1696961455206383000,4.289383056640625,-0.36173152923583984,-0.022398948669433594,-0.42804285883903503
1696961455216396800,4.299396728515625,1.0109682083129883,-0.47778141498565674,-0.7558058500289917
1696961455226410200,4.30941015625,-0.7789268493652344,-0.462225079536438,-1.267907738685608
1696961455236423700,4.319423583984375,-1.0305767059326172,-0.6316527128219604,-0.5082554221153259
1696961455246437000,4.32943701171875,0.30484867095947266,0.2901967763900757,-0.794952392578125
1696961455256450600,4.339450439453125,-0.02007579803466797,-0.4221315383911133,0.05851667374372482
1696961455266464300,4.34946435546875,1.099339485168457,-0.19723498821258545,-0.17033931612968445
1696961455276477700,4.359477783203125,-0.24090862274169922,-0.5772523880004883,-1.144521713256836
1696961455286491100,4.3694912109375,0.12793540954589844,0.12092077732086182,-0.656494140625
1696961455296504600,4.379504638671875,-0.2450122833251953,0.14870691299438477,-0.5570386052131653
1696961455306518000,4.38951806640625,0.4536476135253906,0.013114571571350098,0.2032288908958435
1696961455316531700,4.39953173828125,-0.6703462600708008,-0.0642772912979126,0.997267484664917
1696961455326545200,4.409545166015625,0.5413341522216797,-1.153153896331787,0.7180163860321045
1696961455336558600,4.41955859375,1.0804805755615234,0.9643501043319702,-0.8023591041564941
1696961455346572000,4.429572021484375,-2.1146273612976074,0.09749650955200195,0.44429320096969604
1696961455356585500,4.43958544921875,2.3824338912963867,-0.7703250646591187,0.7356833815574646
1696961455366599200,4.44959912109375,-2.8909945487976074,-0.47649431228637695,-1.0284829139709473
1696961455376612600,4.459612548828125,1.7508420944213867,0.3419973850250244,-0.5876963138580322
1696961455386626000,4.4696259765625,-0.9596443176269531,-0.9335033893585205,-0.9157839417457581
1696961455396639500,4.479639404296875,-0.5376510620117188,-0.9927963018417358,-0.5194556713104248
1696961455406653000,4.48965283203125,-0.34539031982421875,1.4819896221160889,-0.8399213552474976
1696961455416666400,4.499666259765625,-0.13356685638427734,-2.2811551094055176,-0.540923535823822
1696961455426680000,4.50968017578125,0.20659637451171875,0.14503693580627441,-0.367112398147583
1696961455436693500,4.519693603515625,0.5365543365478516,-0.5848948955535889,0.059065282344818115
1696961455446707000,4.52970703125,0.6124839782714844,0.8703722953796387,-0.21092341840267181
1696961455456720600,4.539720703125,0.9170389175415039,-0.7572271823883057,-0.18531538546085358
1696961455466734000,4.549734130859375,-1.4411754608154297,-0.5551913976669312,0.14369988441467285
1696961455476747500,4.55974755859375,0.18219661712646484,0.14114665985107422,-0.24060484766960144
1696961455486761200,4.56976123046875,0.5450725555419922,-0.1710437536239624,0.47155922651290894
1696961455496774700,4.579774658203125,1.9531917572021484,0.6820412874221802,-0.2378302961587906
1696961455506788400,4.589788330078125,-2.77850341796875,-1.2007955312728882,-0.6656425595283508
1696961455516801800,4.5998017578125,0.9030570983886719,0.5109176635742188,0.8359078764915466
1696961455526815200,4.609815185546875,-0.3228597640991211,0.04723775386810303,-0.6111757159233093
1696961455536829000,4.619828857421875,-2.1100807189941406,-0.030062079429626465,-0.9238112568855286
1696961455546842400,4.62984228515625,-0.11288642883300781,-1.3346388339996338,-0.8650306463241577
1696961455556856000,4.63985595703125,-1.9726648330688477,0.15121519565582275,0.2902427613735199
1696961455566869500,4.649869384765625,2.9687204360961914,-0.3828284740447998,-0.7972033023834229
1696961455576883000,4.659883056640625,-3.595803737640381,-0.7478561401367188,-1.4390982389450073
1696961455586896600,4.669896728515625,2.3583755493164062,-0.4260627031326294,0.5311564803123474
1696961455596910000,4.67991015625,-1.7570228576660156,0.2377697229385376,0.17849946022033691
1696961455606923800,4.689923828125,0.9096527099609375,-1.6525392532348633,-0.5285813808441162
1696961455616937200,4.699937255859375,1.232436180114746,0.7315688133239746,-0.11745306849479675
1696961455626950700,4.70995068359375,0.4215812683105469,-0.8471783399581909,-0.7270927429199219
1696961455636964400,4.71996435546875,-0.7559537887573242,0.660224199295044,-0.8003897666931152
1696961455646977800,4.729977783203125,1.2000303268432617,-0.787031888961792,-0.09720540046691895
1696961455656991500,4.739991455078125,-1.4224538803100586,-0.5235564708709717,-1.0683399438858032
1696961455667005000,4.7500048828125,1.3481693267822266,0.2757769823074341,-0.40348026156425476
1696961455677018400,4.760018310546875,-1.0492019653320312,-1.461074709892273,-0.9362279176712036
1696961455687032000,4.770031982421875,0.3248710632324219,-0.33796262741088867,-0.9872053265571594
1696961455697045500,4.78004541015625,0.14301776885986328,0.49625730514526367,-0.39354580640792847
1696961455707059200,4.79005908203125,0.9841423034667969,-0.30902767181396484,0.10566020011901855
1696961455717072600,4.80007275390625,-0.8861923217773438,-1.3437714576721191,-0.598905622959137
1696961455727086000,4.810086181640625,1.9598150253295898,1.0862298011779785,-0.2703537940979004
1696961455737099800,4.820099853515625,-0.974268913269043,-1.0734912157058716,0.20485800504684448
1696961455747113200,4.83011328125,0.9535055160522461,-0.6613378524780273,-1.6795573234558105
1696961455757127000,4.840126953125,0.13843536376953125,-1.0650098323822021,0.31034761667251587
1696961455767140400,4.850140380859375,1.8060665130615234,2.1343226432800293,0.775530219078064
1696961455777153800,4.86015380859375,-1.8058476448059082,-2.519838333129883,-0.46298089623451233
1696961455787167500,4.87016748046875,-0.22843647003173828,0.7330207824707031,-0.09506051987409592
1696961455797181000,4.880180908203125,0.2647819519042969,-1.2498397827148438,-0.15711617469787598
1696961455807194600,4.890194580078125,-0.5626296997070312,0.6835223436355591,-1.1089346408843994
1696961455817208000,4.9002080078125,0.10257911682128906,0.4450967311859131,-0.8698775172233582
1696961455827221500,4.910221435546875,-1.3937625885009766,-1.9685057401657104,0.39201033115386963
1696961455837235200,4.920235107421875,0.8416471481323242,0.7790713310241699,0.6210606098175049
1696961455847248600,4.93024853515625,0.3818540573120117,-0.7487471103668213,-0.39484015107154846
1696961455857262300,4.940262451171875,-1.1864185333251953,1.4365670680999756,-0.7389994263648987
1696961455867275800,4.95027587890625,-0.1178750991821289,-1.0081992149353027,0.017451807856559753
1696961455877289200,4.960289306640625,-1.5565681457519531,-0.037587523460388184,-1.2494930028915405
1696961455887302700,4.970302734375,1.3765010833740234,-0.38942670822143555,0.22457166016101837
1696961455897316400,4.98031640625,-1.202589988708496,0.3081866502761841,0.49844589829444885
1696961455907329800,4.990329833984375,0.539616584777832,-1.1863957643508911,-1.0927486419677734
1696961455917343200,5.00034326171875,0.8295164108276367,1.0644968748092651,-0.24551895260810852
1696961455927356700,5.010356689453125,-0.1717233657836914,-0.6088943481445312,-0.733910858631134
1696961455937370000,5.0203701171875,-0.2912931442260742,-1.345273494720459,-1.076385498046875
1696961455947383800,5.0303837890625,-2.0449657440185547,0.5538226366043091,-0.06090894341468811
1696961455957397200,5.040397216796875,1.8986053466796875,-0.57346510887146,0.3754322826862335
1696961455967410700,5.05041064453125,-0.8631114959716797,0.19527184963226318,-0.58180832862854
1696961455977424100,5.060424072265625,1.0413551330566406,-1.0055090188980103,-0.426779568195343
1696961455987437600,5.0704375,-0.5193910598754883,0.16415882110595703,-1.4136937856674194
1696961455997451000,5.080450927734375,0.6900854110717773,0.29779911041259766,-0.9548784494400024
1696961456007464700,5.090464599609375,-1.4195194244384766,-0.8573242425918579,0.3336647152900696
1696961456017478100,5.10047802734375,1.7484245300292969,-0.1792963743209839,1.138479232788086
1696961456027491600,5.11049169921875,-0.1471414566040039,-0.7298082113265991,0.015886113047599792
1696961456037505000,5.120505126953125,2.171574592590332,2.027571678161621,-0.41641008853912354
1696961456047518500,5.1305185546875,-0.037192344665527344,-2.091279983520508,-0.9514676332473755
1696961456057532200,5.1405322265625,-1.6485462188720703,0.23686492443084717,0.8010150194168091
1696961456067545600,5.150545654296875,1.7963991165161133,-0.17000699043273926,0.28079402446746826
1696961456077559000,5.16055908203125,-0.08554840087890625,0.8546397686004639,1.213333249092102
1696961456087572500,5.170572509765625,0.3500957489013672,-1.8743706941604614,0.40333878993988037
1696961456097586000,5.1805859375,1.3050661087036133,0.5389355421066284,0.23258495330810547
1696961456107599600,5.190599609375,-0.3333768844604492,0.09626328945159912,-1.5613834857940674
1696961456117613000,5.200613037109375,-1.002821922302246,-0.9348698854446411,-1.8458703756332397
1696961456127626500,5.21062646484375,-2.0620274543762207,-0.14003205299377441,0.9964711666107178
1696961456137640000,5.220639892578125,-0.058554649353027344,-0.33370327949523926,1.309834599494934
1696961456147653400,5.2306533203125,0.9610710144042969,-0.407090425491333,-0.686772346496582
1696961456157667000,5.2406669921875,-0.7461309432983398,-0.4070318937301636,-0.8410857915878296
1696961456167680500,5.250680419921875,-0.897064208984375,0.3059912919998169,-0.4427735209465027
1696961456177694000,5.26069384765625,1.9724540710449219,0.19138991832733154,0.08287106454372406
1696961456187707400,5.270707275390625,-1.248758316040039,-0.5830284357070923,0.9853641986846924
1696961456197720800,5.280720947265625,0.38446903228759766,0.21487820148468018,1.2942640781402588
1696961456207734500,5.290734619140625,0.9389200210571289,-0.29729366302490234,1.343616247177124
1696961456217748000,5.300748046875,-0.7743644714355469,0.435024619102478,-0.06959021091461182
1696961456227761400,5.310761474609375,0.6741724014282227,-1.2899653911590576,-1.5709415674209595
1696961456237774800,5.32077490234375,-0.16052913665771484,1.5829031467437744,0.04954808950424194
1696961456247788300,5.330788330078125,-1.6657743453979492,-2.1863584518432617,0.9324419498443604
1696961456257802000,5.340802001953125,-0.18944072723388672,0.8200751543045044,0.16084550321102142
1696961456267815400,5.3508154296875,-0.33594608306884766,-0.8941725492477417,0.2569180428981781
1696961456277828900,5.360828857421875,2.4179534912109375,0.708307147026062,-1.2023181915283203
1696961456287842300,5.37084228515625,-2.4389591217041016,-1.619694709777832,-0.5436204075813293
1696961456297855700,5.380855712890625,2.4365224838256836,0.5087037086486816,0.1698870211839676
1696961456307869200,5.390869140625,-0.8101119995117188,-0.3936210870742798,-0.4878913164138794
1696961456317883000,5.4008828125,0.3489694595336914,0.04072558879852295,1.173551082611084
1696961456327896300,5.410896240234375,-0.2052316665649414,-0.2455819845199585,1.2428122758865356
1696961456337909800,5.42090966796875,1.947000503540039,-1.1487104892730713,0.09490945935249329
1696961456347923200,5.430923095703125,-0.3712310791015625,1.0542129278182983,-0.4526221752166748
1696961456357937000,5.44093701171875,0.6757612228393555,-0.21735930442810059,0.35759907960891724
1696961456367950300,5.450950439453125,-0.5543489456176758,0.2053755521774292,1.220346450805664
1696961456377963800,5.4609638671875,0.011831283569335938,-1.548314094543457,0.5688215494155884
1696961456387977500,5.4709775390625,-1.9185729026794434,0.08846664428710938,0.10534191131591797
1696961456397991000,5.480990966796875,0.9199733734130859,0.12258625030517578,0.584470808506012
1696961456408004600,5.491004638671875,1.003178596496582,-0.2341318130493164,-0.08400215208530426
1696961456418018000,5.50101806640625,-0.21858692169189453,-0.7279183864593506,-0.6119511723518372
1696961456428031500,5.511031494140625,0.9005508422851562,-0.05384492874145508,1.5236304998397827
1696961456438045200,5.521045166015625,-1.1415443420410156,0.6792938709259033,1.112312912940979
1696961456448058600,5.53105859375,2.0117406845092773,-0.6844557523727417,0.9556409120559692
1696961456458072300,5.541072265625,-1.8600826263427734,-0.04005026817321777,-0.29601916670799255
1696961456468085800,5.551085693359375,1.9857683181762695,-0.8955892324447632,-0.3256014883518219
1696961456478099200,5.56109912109375,-1.1980228424072266,0.9879337549209595,0.67067551612854
1696961456488113000,5.57111279296875,-0.25356197357177734,-1.055016040802002,0.166145920753479
1696961456498126300,5.581126220703125,-1.0698070526123047,0.23653769493103027,0.11899083852767944
1696961456508140000,5.59114013671875,-0.8177919387817383,-0.3215615749359131,1.163177490234375
1696961456518153500,5.601153564453125,1.1207199096679688,-1.0420371294021606,0.2001020908355713
1696961456528167000,5.6111669921875,-1.8980379104614258,0.3818933963775635,-0.7908987998962402
1696961456538180600,5.6211806640625,1.9292612075805664,0.9096553325653076,0.525547981262207
1696961456548194000,5.631194091796875,-1.6553544998168945,-0.9687496423721313,0.5057648420333862
1696961456558207700,5.641207763671875,0.5761079788208008,0.2759150266647339,0.7965652942657471
1696961456568221200,5.65122119140625,-0.012363433837890625,-0.21542489528656006,1.1919282674789429
1696961456578234600,5.661234619140625,1.2303533554077148,0.10082793235778809,0.12188926339149475
1696961456588248300,5.671248291015625,-1.994408130645752,-0.9576785564422607,0.17166432738304138
1696961456598261800,5.68126171875,2.454434394836426,1.7239270210266113,1.3364253044128418
1696961456608275500,5.691275390625,-2.6175780296325684,-1.4576878547668457,0.45037975907325745
1696961456618289000,5.701288818359375,2.555191993713379,0.7823020219802856,1.5831191539764404
1696961456628302300,5.71130224609375,0.07332897186279297,-1.1084321737289429,0.6656769514083862
1696961456638316000,5.72131591796875,0.2639007568359375,0.13869786262512207,0.40476933121681213
1696961456648329500,5.73132958984375,-0.4162321090698242,0.00281679630279541,-1.0132471323013306
1696961456658343200,5.74134326171875,-0.4782247543334961,-0.8584504127502441,0.22808468341827393
1696961456668356600,5.751356689453125,0.034461021423339844,0.22394824028015137,0.9816657900810242
1696961456678370000,5.7613701171875,0.08785533905029297,0.0664207935333252,0.4588835537433624
1696961456688383700,5.7713837890625,0.12184333801269531,-0.32383036613464355,0.19556811451911926
1696961456698397200,5.781397216796875,-0.23648452758789062,-1.0226092338562012,0.12488353252410889
1696961456708411000,5.791410888671875,-0.37482357025146484,0.7638952732086182,0.3098681569099426
1696961456718424300,5.80142431640625,1.2741069793701172,-0.05211365222930908,-0.9490964412689209
1696961456728437800,5.811437744140625,-0.16749858856201172,0.11561799049377441,1.759655475616455
1696961456738451500,5.821451416015625,0.058295249938964844,-0.772322416305542,1.3809280395507812
1696961456748465000,5.83146484375,0.5557975769042969,0.5414025783538818,-0.09239616990089417
1696961456758478600,5.841478515625,0.009596824645996094,0.09974706172943115,0.3172253370285034
1696961456768492000,5.851491943359375,-0.7416276931762695,-0.6712033748626709,-0.3373202085494995
1696961456778505500,5.86150537109375,-0.25299835205078125,-0.5184962749481201,0.24409973621368408
1696961456788519200,5.871519287109375,2.763638496398926,0.8229883909225464,1.1213979721069336
1696961456798532600,5.88153271484375,-0.4104948043823242,-0.19717514514923096,1.0999999046325684
1696961456808546300,5.89154638671875,-0.46619129180908203,-0.7826458215713501,0.8391664028167725
1696961456818559700,5.901559814453125,1.1163501739501953,-0.12478673458099365,-1.15721595287323
1696961456828574200,5.91157421875,-2.3855667114257812,0.28527915477752686,0.548169732093811
1696961456838587000,5.9215869140625,2.704866409301758,0.06617724895477295,0.37901896238327026
1696961456848599300,5.931599365234375,-2.8207430839538574,-1.2763646841049194,1.2654770612716675
1696961456858612200,5.9416123046875,2.845895767211914,1.3402938842773438,0.9153978824615479
1696961456868625000,5.951625,-3.373290538787842,-1.897193431854248,-0.2254841923713684
1696961456878637800,5.961637939453125,3.578108787536621,0.7156773805618286,-0.6599465608596802
1696961456888650800,5.971650634765625,-4.345722198486328,-0.31515800952911377,0.03206327557563782
1696961456898664000,5.981663818359375,3.2875242233276367,0.09258091449737549,-0.3319929540157318
1696961456908677000,5.991677001953125,-3.8311996459960938,-0.08692407608032227,0.6606062650680542
1696961456918690600,6.001690673828125,2.344571113586426,-0.10571551322937012,0.2218160331249237
1696961456928704300,6.011704345703125,-1.435877799987793,-0.44361138343811035,0.5970369577407837
1696961456938718000,6.021718017578125,4.4555463790893555,0.9571994543075562,0.28365087509155273
1696961456948731600,6.031731689453125,-3.1929659843444824,-0.8360010385513306,-0.28058868646621704
1696961456958745600,6.04174560546875,1.0915632247924805,-0.6877440214157104,0.24187195301055908
1696961456968759800,6.051759765625,-0.02437877655029297,1.2625337839126587,0.4824223220348358
1696961456978774000,6.06177392578125,0.8226337432861328,-1.4550608396530151,0.09948751330375671
1696961456988788000,6.0717880859375,-0.8178205490112305,0.7586569786071777,0.4759044349193573
1696961456998802200,6.08180224609375,1.7266368865966797,-0.5824317932128906,0.4985393285751343
1696961457008816400,6.09181640625,0.947880744934082,1.0403169393539429,-0.17991280555725098
1696961457018830000,6.101830078125,0.8303794860839844,-1.3267205953598022,-0.5931000709533691
1696961457028843500,6.111843505859375,-2.153275489807129,0.2040092945098877,1.1086745262145996
1696961457038857200,6.121857177734375,2.833132743835449,-0.06080043315887451,0.6189451813697815
1696961457048870700,6.13187060546875,-0.8673563003540039,0.05603015422821045,-1.0774502754211426
1696961457058884000,6.141884033203125,0.4253520965576172,-0.2896212339401245,0.4595806896686554
1696961457068897500,6.1518974609375,-1.343282699584961,0.22432482242584229,1.0605257749557495
1696961457078911000,6.161910888671875,2.732694625854492,0.32897913455963135,0.7140893936157227
1696961457088924700,6.171924560546875,0.0022935867309570312,0.5264910459518433,0.5815908908843994
1696961457098938000,6.181938232421875,0.5333585739135742,-1.6000348329544067,0.6119230389595032
1696961457108951600,6.19195166015625,-0.3855466842651367,1.4852960109710693,-0.23566874861717224
1696961457118965000,6.201965087890625,-1.6986026763916016,-1.0678960084915161,0.23748883605003357
1696961457128978400,6.211978515625,1.9188861846923828,-0.292181134223938,-0.28294533491134644
1696961457138992000,6.2219921875,0.03712654113769531,1.1983492374420166,1.7007091045379639
1696961457149005600,6.232005615234375,2.457056999206543,-0.1170969009399414,1.1660606861114502
1696961457159019000,6.24201904296875,-1.5438547134399414,-0.7557992935180664,0.520195722579956
1696961457169032400,6.252032470703125,0.39516258239746094,1.1958417892456055,0.41704681515693665
1696961457179046000,6.2620458984375,-0.06455421447753906,-0.964462161064148,0.7188758850097656
1696961457189059600,6.2720595703125,0.6717739105224609,-0.10854196548461914,0.37568843364715576
1696961457199073000,6.282072998046875,0.8524799346923828,-0.9496127367019653,0.49035152792930603
1696961457209086500,6.29208642578125,-1.0652570724487305,0.7023990154266357,-0.2499440610408783
1696961457219100000,6.302099853515625,-0.8663959503173828,-0.3150366544723511,-0.3363339304924011
1696961457229113300,6.31211328125,0.9331150054931641,0.046238064765930176,-0.058347731828689575
1696961457239127000,6.322126953125,-1.591670036315918,-0.21140837669372559,0.9704249501228333
1696961457249140500,6.332140380859375,1.285700798034668,-0.08737051486968994,0.42535287141799927
1696961457259154000,6.34215380859375,-1.5503759384155273,-0.14960932731628418,0.4572731852531433
1696961457269167400,6.35216748046875,3.3760900497436523,1.2299823760986328,0.1568308174610138
1696961457279180800,6.362180908203125,-1.970463752746582,-0.8335864543914795,0.4029102325439453
1696961457289194200,6.3721943359375,0.13773155212402344,0.19408392906188965,0.9037976861000061
1696961457299208000,6.3822080078125,-0.9373598098754883,-0.4261733293533325,0.3811866044998169
1696961457309221400,6.392221435546875,2.4776554107666016,1.1451681852340698,-0.1678672730922699
1696961457319234800,6.40223486328125,-2.2547950744628906,-0.7332478761672974,0.6403013467788696
1696961457329248300,6.412248291015625,0.919219970703125,-0.6253846883773804,0.42695337533950806
1696961457339261700,6.42226171875,0.9651985168457031,0.8068981170654297,1.0904133319854736
1696961457349275400,6.432275390625,-0.29366588592529297,0.4116230010986328,-0.03963378071784973
1696961457359288800,6.442288818359375,-2.347738742828369,-0.9376713037490845,0.41801849007606506
1696961457369302300,6.45230224609375,0.3859691619873047,-0.47816312313079834,-0.8111048936843872
1696961457379315700,6.462315673828125,-0.8911762237548828,0.7766324281692505,0.31741005182266235
1696961457389329400,6.472329345703125,1.0899944305419922,-0.7087869644165039,0.1994001269340515
1696961457399342800,6.4823427734375,-1.3729019165039062,0.4662039279937744,0.911945104598999
1696961457409356300,6.492356201171875,1.5080327987670898,-0.8323934078216553,0.6050047874450684
1696961457419370000,6.502369873046875,-0.9425296783447266,0.604236364364624,0.49908310174942017
1696961457429383400,6.512383544921875,1.2144412994384766,0.32775115966796875,1.503807544708252
1696961457439397000,6.522397216796875,-0.2798013687133789,-0.3842204809188843,0.5397070646286011
1696961457449410600,6.53241064453125,0.303192138671875,0.48432719707489014,-0.1383855640888214
1696961457459424000,6.542424072265625,-0.8542108535766602,0.9433944225311279,1.2691855430603027
1696961457469437700,6.552437744140625,1.1361141204833984,-1.482731819152832,1.438133955001831
1696961457479451100,6.562451171875,-2.164745807647705,0.014652848243713379,-0.0021363794803619385
1696961457489464800,6.57246484375,1.1219377517700195,0.4229269027709961,-0.6502494215965271
1696961457499478300,6.582478271484375,-0.2527141571044922,0.07970535755157471,0.9753727912902832
1696961457509491700,6.59249169921875,-1.4657201766967773,-0.5137952566146851,0.7507643699645996
1696961457519505400,6.60250537109375,-0.0997610092163086,-0.8799875974655151,0.511466383934021
1696961457529518800,6.612518798828125,-1.2907943725585938,1.0388731956481934,-0.32533377408981323
1696961457539532500,6.622532470703125,2.0040626525878906,-1.1905995607376099,0.24069327116012573
1696961457549546000,6.6325458984375,-0.004096031188964844,0.029137849807739258,-0.11684957146644592
1696961457559559400,6.642559326171875,-2.546649932861328,-0.48463892936706543,-0.7291522026062012
1696961457569573000,6.652572998046875,0.22727394104003906,1.5092675685882568,0.33196404576301575
1696961457579586600,6.662586669921875,0.6097307205200195,-2.2474794387817383,0.20166733860969543
1696961457589600300,6.672600341796875,-2.2113962173461914,0.5177106857299805,0.9347119331359863
1696961457599613700,6.68261376953125,2.0607290267944336,-0.5642751455307007,-0.40307876467704773
1696961457609627100,6.692627197265625,0.3822364807128906,0.8644059896469116,-0.0062437355518341064
1696961457619640800,6.702640869140625,0.8639583587646484,0.4711393117904663,-0.40557247400283813
1696961457629654300,6.712654296875,-3.0321240425109863,-1.0084426403045654,1.4595003128051758
1696961457639668000,6.72266796875,2.945394515991211,0.31057488918304443,1.5156821012496948
1696961457649681400,6.732681396484375,-1.2108354568481445,-0.4430335760116577,0.03253912925720215
1696961457659694800,6.74269482421875,1.796858787536621,0.20798444747924805,0.6216808557510376
1696961457669708500,6.75270849609375,0.42067527770996094,-0.17444777488708496,0.9988601803779602
1696961457679722000,6.762721923828125,0.8260822296142578,0.18344354629516602,0.5023249387741089
1696961457689735700,6.772735595703125,1.2638921737670898,0.37329792976379395,1.5748823881149292
1696961457699749000,6.7827490234375,-1.4590339660644531,-0.05122387409210205,0.9737260341644287
1696961457709762600,6.792762451171875,-3.23374605178833,-1.147698998451233,0.5253615379333496
1696961457719776300,6.8027763671875,0.6298742294311523,-0.1338435411453247,-1.2875529527664185
1696961457729789700,6.812789794921875,-3.1912827491760254,0.5162487030029297,-0.6251264810562134
1696961457739803400,6.822803466796875,0.29607582092285156,-1.2724058628082275,1.133889079093933
1696961457749816800,6.83281689453125,0.27338695526123047,0.8124083280563354,1.1038331985473633
1696961457759830300,6.842830322265625,-0.5298662185668945,-0.04638218879699707,0.3443007469177246
1696961457769844000,6.852843994140625,0.1539020538330078,0.5119266510009766,0.5317189693450928
1696961457779857400,6.862857421875,-1.3199920654296875,-0.7795059680938721,-0.2753587067127228
1696961457789870800,6.872870849609375,-2.1150941848754883,0.6250395774841309,0.603217363357544
1696961457799884500,6.882884521484375,2.158344268798828,0.2493962049484253,-0.030758380889892578
1696961457809898000,6.89289794921875,-2.6782870292663574,0.4984409809112549,0.5564168691635132
1696961457819911700,6.90291162109375,3.3777036666870117,-1.9323067665100098,0.8596584796905518
1696961457829925000,6.912925048828125,-2.3381543159484863,0.5910704135894775,-1.1002086400985718
1696961457839938600,6.9229384765625,2.0355472564697266,1.0158573389053345,0.23548045754432678
1696961457849952300,6.9329521484375,-0.692479133605957,-0.36129510402679443,0.3420597314834595
1696961457859965700,6.942965576171875,0.07421588897705078,-1.1582857370376587,0.9360835552215576
1696961457869979400,6.9529794921875,1.2398185729980469,1.225844144821167,0.8348575830459595
1696961457879992800,6.962992919921875,-0.16481304168701172,-2.1283295154571533,-1.0408401489257812
1696961457890006300,6.97300634765625,-0.719508171081543,0.9162328243255615,-0.6126324534416199
1696961457900020000,6.98302001953125,-0.4970712661743164,-0.19294071197509766,-0.14494368433952332
1696961457910033400,6.993033447265625,1.0115327835083008,-0.2651991844177246,1.009974718093872
1696961457920047000,7.003047119140625,0.8183298110961914,0.9673175811767578,0.7052225470542908
1696961457930060500,7.013060546875,0.4143056869506836,-0.8640862703323364,1.0490810871124268
1696961457940074000,7.023073974609375,0.680476188659668,0.12339305877685547,-0.4295370876789093
1696961457950087700,7.033087646484375,-0.29152965545654297,0.16603338718414307,-0.3054071068763733
1696961457960101000,7.04310107421875,-1.613905906677246,-0.46262598037719727,0.057015448808670044
1696961457970114800,7.05311474609375,1.373636245727539,0.6712204217910767,1.5158748626708984
1696961457980128300,7.063128173828125,2.0588207244873047,1.3024603128433228,0.3266773223876953
1696961457990141700,7.0731416015625,-1.9089770317077637,-1.5231428146362305,-0.16542595624923706
1696961458000155400,7.0831552734375,1.4265203475952148,-0.4588679075241089,-0.16874998807907104
1696961458010168800,7.0931689453125,0.6404352188110352,0.607359766960144,0.4507075548171997
1696961458020182500,7.1031826171875,-0.2868194580078125,0.7386107444763184,0.004674255847930908
1696961458030196000,7.113196044921875,-0.04694843292236328,-0.8755481243133545,1.2153911590576172
1696961458040209400,7.12320947265625,0.08180904388427734,0.8619555234909058,-0.25857967138290405
1696961458050223000,7.13322314453125,-0.7309894561767578,-1.4298650026321411,-0.7357275485992432
1696961458060236500,7.143236572265625,-0.8956584930419922,0.008987188339233398,-0.45193231105804443
1696961458070250200,7.153250244140625,0.8952274322509766,0.8639875650405884,-0.2779902219772339
1696961458080263700,7.163263671875,-1.662546157836914,-0.15563130378723145,0.07633095979690552
1696961458090277000,7.173277099609375,1.0949115753173828,-0.20030438899993896,0.6637169122695923
1696961458100290800,7.183290771484375,-0.819584846496582,0.35963428020477295,0.16243141889572144
1696961458110304300,7.19330419921875,0.2871389389038086,-0.3463592529296875,0.3093683123588562
1696961458120318000,7.20331787109375,-0.2624969482421875,0.5688320398330688,0.15805798768997192
1696961458130331400,7.213331298828125,-0.9210968017578125,0.9923872947692871,0.6848142743110657
1696961458140344800,7.2233447265625,0.7921552658081055,-0.6500197649002075,1.0519108772277832
1696961458150358500,7.233358642578125,0.9046564102172852,0.7907271385192871,0.18143218755722046
1696961458160372000,7.2433720703125,-0.7800798416137695,-0.6973546743392944,0.6537547707557678
1696961458170385700,7.2533857421875,-0.48638153076171875,-0.2617006301879883,-0.13286805152893066
1696961458180399000,7.263399169921875,0.3752164840698242,0.6165475845336914,1.317677617073059
1696961458190412500,7.27341259765625,-0.605677604675293,0.7597757577896118,0.0915684700012207
1696961458200426200,7.28342626953125,-0.9869194030761719,-1.2529027462005615,0.14829158782958984
1696961458210439700,7.293439697265625,-0.24923038482666016,0.25367915630340576,-0.2533780336380005
1696961458220453400,7.303453369140625,-0.8507795333862305,-0.6162267923355103,-0.46893054246902466
1696961458230466800,7.313466796875,-0.6233673095703125,0.009686827659606934,0.38050198554992676
1696961458240480300,7.323480224609375,0.8410120010375977,0.6583297252655029,0.8291940689086914
1696961458250494000,7.333493896484375,-0.7676591873168945,-0.39633166790008545,0.010719239711761475
1696961458260507400,7.34350732421875,1.221888542175293,0.7351397275924683,0.08701938390731812
1696961458270521000,7.35352099609375,1.5962095260620117,-0.15082359313964844,0.018107473850250244
1696961458280534500,7.363534423828125,-1.7816448211669922,-0.5940980911254883,-0.8796792030334473
1696961458290548000,7.3735478515625,1.0852899551391602,0.25384199619293213,0.04546409845352173
1696961458300561700,7.383561767578125,0.5905055999755859,1.3381532430648804,0.23800891637802124
1696961458310575000,7.3935751953125,0.8140287399291992,-1.1978996992111206,0.024618446826934814
1696961458320588800,7.4035888671875,-0.5265789031982422,0.005611062049865723,0.14925611019134521
1696961458330602200,7.413602294921875,2.0027761459350586,-0.4000985622406006,0.30581724643707275
1696961458340615700,7.42361572265625,0.655735969543457,1.7727361917495728,0.5650588274002075
1696961458350629400,7.43362939453125,-0.20630550384521484,-1.4526240825653076,0.31330305337905884
1696961458360642800,7.443642822265625,-0.8178863525390625,-0.024374842643737793,0.7289287447929382
1696961458370656500,7.453656494140625,1.755025863647461,0.44898951053619385,0.505916178226471
1696961458380670000,7.463669921875,-1.9053092002868652,-0.09235036373138428,-0.4309772849082947
1696961458390683400,7.473683349609375,-0.01761150360107422,-1.1442209482192993,-0.07443153858184814
1696961458400697000,7.483697021484375,0.6562328338623047,1.1133519411087036,0.07259637117385864
1696961458410710500,7.49371044921875,-1.2522754669189453,-0.3086477518081665,-0.3093329071998596
1696961458420724200,7.50372412109375,0.07962989807128906,-0.6765536069869995,-0.7692124843597412
1696961458430737700,7.513737548828125,-0.0021104812622070312,0.7735041379928589,-0.16549664735794067
1696961458440751000,7.523751220703125,0.29039669036865234,-0.6024113893508911,-0.38111186027526855
1696961458450764800,7.533764892578125,-0.9574127197265625,0.4590102434158325,0.5410692095756531
1696961458460778200,7.5437783203125,1.0571699142456055,0.3053107261657715,-0.015154480934143066
1696961458470791700,7.553791748046875,0.6624593734741211,1.0738728046417236,0.2370200753211975
1696961458480805400,7.563805419921875,1.26300048828125,-1.844651460647583,0.0033794045448303223
1696961458490818800,7.57381884765625,-3.180136203765869,0.20769965648651123,0.3986547589302063
1696961458500832500,7.58383251953125,3.599808692932129,0.880186915397644,0.16751283407211304
1696961458510846000,7.593845947265625,-3.8405113220214844,0.3528069257736206,0.33778393268585205
1696961458520859400,7.603859375,4.072409629821777,-1.757036566734314,-0.876560389995575
1696961458530873000,7.613873046875,-4.282626628875732,0.5876061916351318,-0.11070728302001953
1696961458540886500,7.623886474609375,2.720113754272461,-0.029563069343566895,-0.7791368961334229
1696961458550900200,7.633900146484375,-3.603908061981201,0.1994929313659668,0.42266446352005005
1696961458560913700,7.64391357421875,1.6569328308105469,-0.7264605760574341,-0.17586588859558105
1696961458570927000,7.653927001953125,-1.8318901062011719,0.7837494611740112,0.04985707998275757
1696961458580940800,7.66394091796875,2.894350051879883,-0.36952221393585205,-0.7213950157165527
1696961458590954200,7.673954345703125,-1.934255599975586,-0.08873927593231201,0.27433621883392334
1696961458600968000,7.683968017578125,1.3683815002441406,0.35533905029296875,0.6188749074935913
1696961458610981400,7.6939814453125,-0.15957927703857422,0.44116222858428955,0.09523707628250122
1696961458620994800,7.703994873046875,-0.040123939514160156,0.3316103219985962,0.8292614817619324
1696961458631008500,7.714008544921875,0.6668319702148438,-0.7442708015441895,-1.26385498046875
1696961458641022000,7.72402197265625,0.8751344680786133,1.275496482849121,0.44739723205566406
1696961458651035600,7.73403564453125,1.4953126907348633,-0.6287609338760376,0.36629408597946167
1696961458661049000,7.744049072265625,-0.1432027816772461,0.13308203220367432,0.05517876148223877
1696961458671062500,7.7540625,-0.34438419342041016,0.09163296222686768,0.4511721730232239
1696961458681076200,7.764076171875,-0.2430744171142578,0.450931191444397,-0.45319926738739014
1696961458691089700,7.774089599609375,-0.9307479858398438,-1.892965316772461,-0.5521771907806396
1696961458701103400,7.784103271484375,-0.25483131408691406,1.3016481399536133,-0.022632837295532227
1696961458711116800,7.79411669921875,-1.7638211250305176,-1.0932081937789917,1.5320727825164795
1696961458721130200,7.804130126953125,2.096695899963379,0.9279972314834595,-0.5032894015312195
1696961458731144000,7.81414404296875,-1.1070966720581055,-0.007204532623291016,-0.9083185195922852
1696961458741157400,7.824157470703125,-0.6973104476928711,0.005101442337036133,-0.17384469509124756
1696961458751171000,7.834171142578125,-0.8575944900512695,-1.588829517364502,-0.18380695581436157
1696961458761184500,7.8441845703125,0.31042957305908203,1.6008960008621216,0.404052734375
1696961458771198000,7.854197998046875,0.5427589416503906,0.34335434436798096,0.33115893602371216
1696961458781211600,7.864211669921875,-0.7588405609130859,-0.5628762245178223,-0.5741313695907593
1696961458791225000,7.87422509765625,1.680558204650879,-0.5500736236572266,-0.6253832578659058
1696961458801238800,7.88423876953125,0.8022451400756836,1.2802897691726685,-0.7520753145217896
1696961458811252200,7.894252197265625,-0.1647796630859375,-0.32509303092956543,0.5090029835700989
1696961458821265700,7.904265625,1.2310504913330078,-0.18084442615509033,0.2168012261390686
1696961458831279400,7.914279296875,-2.385075092315674,0.1399860382080078,0.07009398937225342
1696961458841292800,7.924292724609375,3.747304916381836,-0.9260847568511963,-0.9580197930335999
1696961458851306500,7.934306396484375,-1.1031856536865234,-0.0879671573638916,-1.6324095726013184
1696961458861320000,7.94431982421875,1.0797357559204102,0.5165524482727051,-0.022623956203460693
1696961458871333400,7.95433349609375,-2.1762614250183105,-1.2629972696304321,0.9941868185997009
1696961458881347000,7.96434716796875,2.0243120193481445,1.2333307266235352,-0.7429904341697693
1696961458891360500,7.974360595703125,0.23217296600341797,-0.5068427324295044,1.2443208694458008
1696961458901374200,7.984374267578125,0.3944406509399414,-0.6895426511764526,-0.8897611498832703
1696961458911387600,7.9943876953125,-0.5907936096191406,0.012439489364624023,-0.03418689966201782
1696961458921401000,8.004401123046875,1.2317991256713867,0.9611623287200928,0.9177820086479187
1696961458931414800,8.014414794921874,-0.18582725524902344,-0.3852667808532715,0.005548059940338135
1696961458941428200,8.02442822265625,-1.423837661743164,0.26138877868652344,-0.7712018489837646
1696961458951442000,8.03444189453125,0.5251808166503906,-0.44013381004333496,0.2601420283317566
1696961458961455400,8.044455322265625,0.6860685348510742,0.26753509044647217,-0.7077231407165527
1696961458971468800,8.05446875,-1.2315387725830078,0.2694185972213745,-0.05337756872177124
1696961458981482500,8.064482421875,0.5396842956542969,0.1536102294921875,0.06914567947387695
1696961458991496000,8.074495849609375,-2.391343593597412,0.15816891193389893,-0.05740249156951904
1696961459001509600,8.084509521484375,1.623443603515625,-0.7770929336547852,-0.6313449740409851
1696961459011523000,8.094523193359375,-2.562716484069824,-0.06111407279968262,-1.9596853256225586
1696961459021536500,8.10453662109375,1.0810842514038086,0.06629776954650879,0.11329963803291321
1696961459031550200,8.11455029296875,-2.4576354026794434,0.27944445610046387,-0.5588341951370239
1696961459041563600,8.124563720703126,2.598827362060547,0.07769083976745605,-0.006024360656738281
1696961459051577300,8.134577392578125,-2.808109760284424,-0.28394055366516113,-0.43330568075180054
1696961459061590800,8.1445908203125,1.1985445022583008,-1.1897873878479004,-1.466568946838379
1696961459071604200,8.154604248046875,-0.7353534698486328,0.6122441291809082,-0.6776260733604431
1696961459081618000,8.164617919921875,0.8154401779174805,1.2791986465454102,0.05052182078361511
1696961459091631400,8.17463134765625,-0.5630970001220703,-1.17870032787323,0.2629696726799011
1696961459101645000,8.18464501953125,1.9466304779052734,0.5617566108703613,0.19930121302604675
1696961459111658500,8.194658447265626,-0.10905170440673828,-0.049193739891052246,-1.525567650794983
1696961459121672000,8.204671875,3.2751893997192383,0.37950944900512695,0.41444963216781616
1696961459131685600,8.214685546875,-1.6546859741210938,-0.0536118745803833,0.24445092678070068
1696961459141699000,8.224698974609375,0.3791370391845703,0.14250445365905762,0.3608784079551697
1696961459151712800,8.234712646484375,0.6504840850830078,-0.2879607677459717,-0.09660667181015015
1696961459161726200,8.244726318359374,2.0348987579345703,-0.27875208854675293,-0.5543789267539978
1696961459171739600,8.25473974609375,-1.0625839233398438,0.09540629386901855,-1.431322455406189
1696961459181753300,8.26475341796875,-0.41509246826171875,-1.1274042129516602,-1.165703296661377
1696961459191766800,8.274766845703125,-0.4896831512451172,0.8705734014511108,-0.5459023714065552
1696961459201780200,8.2847802734375,0.2815265655517578,0.4022560119628906,0.776154637336731
1696961459211794000,8.2947939453125,-1.0437145233154297,-1.7650392055511475,-1.1091275215148926
1696961459221807400,8.304807373046875,0.015229225158691406,-0.29992997646331787,-0.7364327907562256
1696961459231821000,8.314821044921874,0.6992387771606445,1.0407335758209229,-1.005761742591858
1696961459241834500,8.32483447265625,-1.1460208892822266,0.8913024663925171,0.8335660696029663
1696961459251848000,8.334847900390624,2.1345691680908203,-0.11752676963806152,0.504484236240387
1696961459261861600,8.344861572265625,-1.1019296646118164,-1.177461862564087,0.11615103483200073
1696961459271875000,8.354875,1.8306446075439453,0.9019186496734619,-0.24064244329929352
1696961459281888800,8.364888671875,-0.4386281967163086,0.05992758274078369,0.008907884359359741
1696961459291902200,8.374902099609375,-0.08419513702392578,0.8251218795776367,0.2232513725757599
1696961459301915600,8.38491552734375,-1.6712207794189453,-0.5571582317352295,-0.42192786931991577
1696961459311929300,8.394929443359375,1.8601360321044922,0.07371318340301514,-0.0018607079982757568
1696961459321942800,8.40494287109375,-1.6048164367675781,-0.9392390251159668,-2.227931022644043
1696961459331956500,8.41495654296875,-0.7314863204956055,0.7570749521255493,-1.087628722190857
1696961459341970000,8.424969970703126,-0.5712518692016602,-1.332029104232788,-0.9727473258972168
1696961459351983400,8.4349833984375,0.24779987335205078,0.9660762548446655,0.2023259401321411
1696961459361997000,8.4449970703125,-1.2390832901000977,-0.13577628135681152,-0.41845348477363586
1696961459372010500,8.455010498046875,0.2925291061401367,-0.6001378297805786,-0.7435489892959595
1696961459382024200,8.465024169921875,2.208834648132324,0.1821434497833252,-1.4099799394607544
1696961459392037600,8.47503759765625,-2.4316983222961426,0.05116617679595947,-0.692696750164032
1696961459402051000,8.485051025390625,0.5901889801025391,-0.015627503395080566,0.12896594405174255
1696961459412064800,8.495064697265626,2.1515941619873047,0.2896822690963745,0.12738344073295593
1696961459422078200,8.505078125,-0.5729913711547852,0.6956150531768799,-0.2384139895439148
1696961459432092000,8.515091796875,2.252863883972168,-0.9221203327178955,-0.16465911269187927
1696961459442105300,8.525105224609375,-1.4561433792114258,0.8713842630386353,0.7445720434188843
1696961459452118800,8.535118896484375,1.7298259735107422,0.5406888723373413,-0.4796768128871918
1696961459462132500,8.545132568359374,-1.7053747177124023,0.437646746635437,0.9219556450843811
1696961459472146000,8.55514599609375,1.3761930465698242,-0.8152559995651245,0.4962465465068817
1696961459482159600,8.56515966796875,-2.1122326850891113,-0.26442670822143555,-1.0625380277633667
1696961459492173000,8.575173095703125,0.06772136688232422,0.14608466625213623,-0.4206230044364929
1696961459502186500,8.5851865234375,0.693669319152832,0.4455404281616211,-0.5360066294670105
1696961459512200200,8.5952001953125,-1.1868982315063477,-0.579715371131897,-0.3402411937713623
1696961459522213600,8.605213623046875,-0.9543056488037109,-0.296628475189209,-0.1141013503074646
1696961459532227300,8.615227294921874,-2.0178985595703125,-0.18475258350372314,-1.1732419729232788
1696961459542240800,8.62524072265625,1.8194398880004883,0.34295856952667236,-1.1420499086380005
1696961459552254200,8.635254150390624,-0.24447059631347656,-0.04504585266113281,0.4819542169570923
1696961459562268000,8.645267822265625,-0.5964078903198242,-0.4494887590408325,1.0746508836746216
1696961459572281300,8.65528125,2.3426637649536133,0.10528922080993652,-0.4246109426021576
1696961459582295000,8.665294921875,1.2422761917114258,1.7254678010940552,-0.12534907460212708
1696961459592308500,8.67530859375,-2.4396204948425293,-1.6802022457122803,0.8110223412513733
1696961459602322000,8.685322021484374,0.25164127349853516,0.47712934017181396,-0.3382764458656311
1696961459612335600,8.695335693359375,-0.8304653167724609,0.10703170299530029,-0.11830908060073853
1696961459622349000,8.70534912109375,2.106329917907715,1.205397367477417,-1.3158984184265137
1696961459632362800,8.71536279296875,-1.0239143371582031,-2.235671043395996,-0.34599238634109497
1696961459642376200,8.725376220703126,-1.6334943771362305,0.3252418041229248,0.20176300406455994
1696961459652389600,8.7353896484375,0.5113868713378906,0.7020031213760376,-0.43974870443344116
1696961459662403300,8.7454033203125,-0.33613014221191406,-0.4781014919281006,-0.9447083473205566
1696961459672416800,8.755416748046875,-0.6314029693603516,-0.40940117835998535,0.8384330868721008
1696961459682430500,8.765430419921875,-0.24289989471435547,-0.04900777339935303,-0.45836296677589417
1696961459692444000,8.77544384765625,-0.7972345352172852,-0.0751192569732666,-1.7337397336959839
1696961459702457300,8.785457275390625,-0.3405485153198242,0.558916449546814,1.0903422832489014
1696961459712471000,8.795470947265626,0.9459972381591797,-0.4073723554611206,0.7527874708175659
1696961459722484500,8.805484375,0.1589517593383789,-0.26509392261505127,-0.3800165057182312
1696961459732498200,8.815498291015626,0.8800296783447266,1.6623669862747192,-0.02522185444831848
1696961459742511600,8.82551171875,-0.6036214828491211,-0.7981582880020142,0.21770057082176208
1696961459752525000,8.835525146484375,-0.3161144256591797,-0.37684690952301025,-0.38592761754989624
1696961459762538800,8.845538818359374,0.3489408493041992,0.0014672279357910156,0.19901257753372192
1696961459772552200,8.85555224609375,1.9966468811035156,1.2349424362182617,0.009425520896911621
1696961459782566000,8.86556591796875,-1.2108268737792969,-0.4621565341949463,-0.21629346907138824
1696961459792579300,8.875579345703125,1.344050407409668,-1.1911273002624512,0.6577259302139282
1696961459802592800,8.8855927734375,-1.1782655715942383,0.09384274482727051,-0.5474170446395874
1696961459812606500,8.8956064453125,1.8876533508300781,0.2285757064819336,0.3802971839904785
1696961459822620000,8.905619873046875,-0.9030933380126953,-0.8758983612060547,-1.0860223770141602
1696961459832633600,8.915633544921874,-0.06474876403808594,-0.19488799571990967,0.006434530019760132
1696961459842647000,8.92564697265625,0.21755409240722656,0.26837074756622314,0.29182660579681396
1696961459852660500,8.935660400390624,1.4887685775756836,-0.1354532241821289,0.5999106168746948
1696961459862674200,8.945674072265625,-2.176393508911133,-0.6692628860473633,0.005226045846939087
1696961459872687600,8.9556875,3.368070602416992,0.7032572031021118,-0.11597540974617004
1696961459882701000,8.965701171875,-2.5084471702575684,-0.21916723251342773,-0.23489470779895782
1696961459892714800,8.97571484375,1.626814842224121,0.2740441560745239,0.5823732614517212
1696961459902728200,8.985728271484374,-0.9009151458740234,-0.06640052795410156,0.3767164647579193
1696961459912742000,8.995741943359375,1.4146556854248047,-0.7508701086044312,0.015033125877380371
1696961459922755300,9.00575537109375,-1.1791419982910156,0.9232931137084961,-0.10643205046653748
1696961459932768800,9.015768798828125,1.4905614852905273,-0.6765189170837402,0.2698756456375122
1696961459942782500,9.025782470703126,-0.5870332717895508,-0.150831937789917,0.997261643409729
1696961459952796000,9.0357958984375,-0.5430841445922852,-0.3689824342727661,-0.813076913356781
1696961459962809600,9.0458095703125,-2.1812381744384766,-0.309792160987854,0.20663496851921082
1696961459972823000,9.055822998046875,3.0766124725341797,-0.3777768611907959,-1.0172754526138306
1696961459982836500,9.06583642578125,-2.7328848838806152,-0.12875664234161377,-0.354822039604187
1696961459992850200,9.07585009765625,2.120420455932617,-0.8234317302703857,0.27958944439888
1696961460002863600,9.085863525390625,-1.454707145690918,0.17200517654418945,-0.18855097889900208
1696961460012877300,9.095877197265626,1.272892951965332,0.3960738182067871,-0.26737111806869507
1696961460022890800,9.105890869140625,-0.5081453323364258,-0.22139155864715576,0.2657190263271332
1696961460032904200,9.115904296875,0.9320859909057617,0.30349254608154297,1.4192227125167847
1696961460042918000,9.12591796875,1.2113113403320312,0.33168041706085205,0.708337664604187
1696961460052931300,9.135931396484375,-0.005724906921386719,-1.0740987062454224,0.4282107949256897
1696961460062945000,9.145945068359374,-0.28336429595947266,1.195826768875122,0.5888939499855042
1696961460072958500,9.15595849609375,1.0745248794555664,-0.5043649673461914,0.4913371503353119
1696961460082972000,9.165971923828126,-1.4664592742919922,-0.4106154441833496,-0.7512836456298828
1696961460092985600,9.175985595703125,-2.3138632774353027,-0.9431129693984985,-0.10519537329673767
1696961460102999000,9.1859990234375,2.1845149993896484,1.2179646492004395,0.8519246578216553
1696961460113012700,9.1960126953125,-2.117623805999756,-1.1113747358322144,0.46365275979042053
1696961460123026200,9.206026123046875,-1.3869600296020508,-0.5829591751098633,-2.0576789379119873
1696961460133039600,9.21603955078125,-0.2795982360839844,0.3268864154815674,0.37008288502693176
1696961460143053300,9.22605322265625,1.6426820755004883,0.49259650707244873,0.1497984528541565
1696961460153066800,9.236066650390624,-4.540823936462402,-1.8065545558929443,0.8678184747695923
1696961460163080400,9.24608056640625,2.6238508224487305,0.9977400302886963,0.8653916716575623
1696961460173094000,9.256093994140626,0.1318502426147461,0.2607508897781372,-0.40404629707336426
1696961460183107600,9.266107666015625,-0.3947181701660156,-0.11446225643157959,-0.18101221323013306
1696961460193121000,9.27612109375,0.3138704299926758,-0.946195125579834,2.4505460262298584
1696961460203134700,9.286134765625,-0.12314414978027344,1.5183074474334717,-0.40102052688598633
1696961460213148200,9.296148193359375,-2.1498661041259766,-0.7904677391052246,-0.03018680214881897
1696961460223161900,9.306161865234374,2.199313163757324,-0.031113505363464355,0.39771512150764465
1696961460233175600,9.316175537109375,-3.116523265838623,-0.4757307767868042,-0.8309915065765381
1696961460243189000,9.32618896484375,0.7282352447509766,0.08836483955383301,0.18298470973968506
1696961460253202700,9.33620263671875,0.2097787857055664,-0.998616099357605,-0.1454186737537384
1696961460263216000,9.346216064453126,1.135549545288086,0.34240520000457764,0.21378403902053833
1696961460273229800,9.356229736328125,-1.3715324401855469,-0.34460878372192383,0.8028488755226135
1696961460283243500,9.366243408203125,1.1012802124023438,-0.6958357095718384,-0.23485293984413147
1696961460293257000,9.376257080078124,-1.3964815139770508,-0.34271812438964844,-0.1102515459060669
1696961460303270700,9.386270751953125,1.4938793182373047,-0.03170573711395264,1.1189351081848145
1696961460313284000,9.3962841796875,-0.03516387939453125,-0.1799767017364502,-0.48165008425712585
1696961460323297800,9.4062978515625,0.20833492279052734,-0.8948889970779419,0.4158443510532379
1696961460333311500,9.4163115234375,1.254476547241211,-0.07085299491882324,-0.03554287552833557
1696961460343325000,9.426324951171875,-0.7414751052856445,-0.09465360641479492,0.9870541095733643
1696961460353338600,9.436338623046876,1.2624578475952148,-0.3513209819793701,0.6015175580978394
1696961460363352000,9.44635205078125,-0.19334888458251953,0.4373823404312134,1.3870230913162231
1696961460373365800,9.45636572265625,1.3981037139892578,-0.3842555284500122,-0.053455859422683716
1696961460383379500,9.46637939453125,-2.199784278869629,-1.1031235456466675,-0.82710862159729
1696961460393393000,9.476392822265625,2.1934680938720703,0.2535898685455322,0.9194813966751099
1696961460403406600,9.486406494140626,0.859644889831543,-0.3461693525314331,0.9283841848373413
1696961460413420000,9.496419921875,-1.1980972290039062,-0.39609086513519287,0.6791839599609375
1696961460423433700,9.506433837890626,2.4512014389038086,-0.9499677419662476,-0.17841435968875885
1696961460433447400,9.516447509765625,-4.718349933624268,-1.0696576833724976,-1.0292152166366577
1696961460443460900,9.5264609375,1.6588382720947266,0.6828889846801758,-0.7081960439682007
1696961460453474600,9.536474609375,-0.5907831192016602,-1.4207677841186523,-0.8079488277435303
1696961460463488000,9.546488037109375,-0.602726936340332,-0.5662785768508911,0.31925031542778015
1696961460473501700,9.556501708984374,0.8422689437866211,0.752519965171814,0.8301656246185303
1696961460483515100,9.56651513671875,2.5849685668945312,-0.2846869230270386,0.029863178730010986
1696961460493528800,9.57652880859375,-1.4832477569580078,0.10088479518890381,0.5830658674240112
1696961460503542300,9.586542236328125,0.4468526840209961,-0.6856867074966431,0.4552299976348877
1696961460513555700,9.5965556640625,-0.04164314270019531,0.11757326126098633,0.1570797562599182
1696961460523569400,9.6065693359375,1.2873973846435547,0.14840161800384521,-0.09721288084983826
1696961460533582800,9.616582763671875,-0.8709068298339844,-1.0295385122299194,-0.2190355658531189
1696961460543596500,9.626596435546874,0.3743743896484375,-0.25095486640930176,0.5951691269874573
1696961460553610000,9.63660986328125,0.8036985397338867,0.38822901248931885,-0.9266054630279541
1696961460563623400,9.64662353515625,-2.8008580207824707,-0.9071615934371948,0.7573521137237549
1696961460573637000,9.65663720703125,1.5932559967041016,0.05562162399291992,-0.24332423508167267
1696961460583650600,9.666650634765626,-3.978738784790039,-1.8407939672470093,-1.306708574295044
1696961460593664300,9.676664306640625,3.860285758972168,1.6293832063674927,0.6542974710464478
1696961460603677700,9.686677734375,-2.007230281829834,-1.3487930297851562,0.2411521077156067
1696961460613691100,9.696691162109374,1.8109321594238281,0.6601235866546631,0.22587841749191284
1696961460623704800,9.706704833984375,-1.2999544143676758,0.31360626220703125,0.08639752864837646
1696961460633718300,9.71671826171875,1.4233531951904297,-0.39274871349334717,1.0029078722000122
1696961460643732000,9.72673193359375,-2.0785770416259766,-0.1715996265411377,0.20551791787147522
1696961460653745400,9.736745361328126,0.9562129974365234,-0.47096478939056396,0.5992815494537354
1696961460663758800,9.7467587890625,-0.9719057083129883,0.2937440872192383,0.5921472311019897
1696961460673772500,9.7567724609375,1.2384405136108398,0.6327439546585083,0.6356145739555359
1696961460683786000,9.766785888671874,-0.041649818420410156,-0.6979012489318848,-0.689124345779419
1696961460693799700,9.776799560546875,-0.42840003967285156,0.13490474224090576,1.1234991550445557
1696961460703813000,9.786813232421874,1.2593822479248047,-0.23682522773742676,0.783037543296814
1696961460713826600,9.79682666015625,-1.7264299392700195,-0.21930062770843506,0.7625225782394409
1696961460723840300,9.80684033203125,2.2582225799560547,-0.5365318059921265,0.6178970336914062
1696961460733853700,9.816853759765625,-1.5378904342651367,-0.4077281951904297,-0.8146674633026123
1696961460743867400,9.826867431640625,-0.23879241943359375,-0.3490074872970581,0.758045494556427
1696961460753880800,9.836880859375,1.7585725784301758,-0.29711079597473145,-1.178058385848999
1696961460763894300,9.846894287109375,-1.4478225708007812,-0.4147604703903198,-0.32235971093177795
1696961460773908000,9.856907958984374,-0.053340911865234375,-0.14594364166259766,0.47009938955307007
1696961460783921400,9.86692138671875,1.495182991027832,-0.13090193271636963,0.8686853647232056
1696961460793935000,9.87693505859375,-1.037135124206543,-0.5638971328735352,-0.3392200469970703
1696961460803948500,9.886948486328125,-0.050067901611328125,0.17495369911193848,0.06536269187927246
1696961460813962000,9.8969619140625,0.657719612121582,-0.40514516830444336,0.036465078592300415
1696961460823975700,9.9069755859375,1.539921760559082,0.2524641752243042,-0.317950963973999
1696961460833989000,9.916989013671875,-1.4221916198730469,-1.3395317792892456,-0.6973538398742676
1696961460844002800,9.9270029296875,2.2569522857666016,0.23003053665161133,0.454898864030838
1696961460854016300,9.937016357421875,-1.1792936325073242,0.3321465253829956,1.103570580482483
1696961460864029700,9.94702978515625,2.072622299194336,-1.3436014652252197,0.7527276277542114
1696961460874043400,9.95704345703125,-0.7755718231201172,0.35413408279418945,0.402351438999176
1696961460884056800,9.967056884765626,1.2240219116210938,-0.7660592794418335,0.17532438039779663
1696961460894070500,9.977070556640625,0.46628284454345703,-1.2343108654022217,0.6684165000915527
1696961460904084000,9.987083984375,1.8176050186157227,0.49231672286987305,0.01838889718055725
1696961460914097400,9.997097412109374,-0.5899906158447266,-0.37865376472473145,0.7863204479217529
1696961460924111000,10.007111083984375,1.5907831192016602,0.30880701541900635,1.1573097705841064
1696961460934124500,10.01712451171875,-2.0692338943481445,-1.5810165405273438,-0.00666123628616333
1696961460944138000,10.027137939453125,1.014143943786621,0.703865647315979,0.4803297817707062
1696961460954151700,10.037151611328126,0.3807868957519531,-0.3459291458129883,-0.8954119682312012
1696961460964165000,10.0471650390625,-1.574066162109375,-0.788933277130127,-0.06804542243480682
1696961460974178800,10.0571787109375,2.0907459259033203,0.5258249044418335,-0.41545286774635315
1696961460984192300,10.067192138671874,-2.7122116088867188,-0.9448583126068115,-1.14626145362854
1696961460994205700,10.077205810546875,1.075474739074707,-0.5591511726379395,0.25693345069885254
1696961461004219400,10.087219482421874,0.32282543182373047,0.8024451732635498,0.4265492856502533
1696961461014232800,10.09723291015625,-1.6987924575805664,-2.137821912765503,-0.1982705146074295
1696961461024246500,10.10724658203125,0.08795547485351562,1.5665082931518555,0.29597049951553345
1696961461034260000,10.117260009765625,0.6424427032470703,-0.9961587190628052,0.11735588312149048
1696961461044273400,10.1272734375,-0.013392448425292969,-0.566095232963562,0.3913213610649109
1696961461054287000,10.137287109375,1.233612060546875,1.0562629699707031,0.16240432858467102
1696961461064300500,10.147300537109375,-1.2208118438720703,-0.807297945022583,-0.05731898546218872
1696961461074314200,10.157314208984374,0.27832984924316406,-0.23807430267333984,1.5665860176086426
1696961461084327700,10.16732763671875,0.4537506103515625,-0.14489448070526123,0.2614884078502655
1696961461094341000,10.177341064453126,-0.35041332244873047,0.003966569900512695,-0.18503834307193756
1696961461104354800,10.187354736328125,-0.1868724822998047,-0.05435585975646973,0.5313379764556885
1696961461114368300,10.1973681640625,0.5775690078735352,0.43086445331573486,-0.1490570604801178
1696961461124382000,10.2073818359375,-1.0062761306762695,-0.4756516218185425,-1.6775248050689697
1696961461134395400,10.2173955078125,-1.3334217071533203,-0.6507811546325684,-0.24033710360527039
1696961461144408800,10.227408935546874,-0.6374034881591797,-0.451358437538147,-0.751750648021698
1696961461154422500,10.237422607421875,-1.2717170715332031,0.2738673686981201,0.2606758177280426
1696961461164436000,10.24743603515625,1.2017316818237305,-0.4213184118270874,-0.8068052530288696
1696961461174449700,10.25744970703125,-2.1752758026123047,-0.1654353141784668,0.6609047651290894
1696961461184463000,10.267463134765626,0.47217559814453125,-0.656867504119873,-0.42656469345092773
1696961461194476500,10.2774765625,-3.242861270904541,-0.31677162647247314,-0.9085277318954468
1696961461204490200,10.287490234375,3.794766426086426,0.6050127744674683,0.10167217254638672
1696961461214503700,10.297503662109374,-3.024801731109619,-0.3126031160354614,0.6690865159034729
1696961461224517400,10.307517333984375,2.4154720306396484,-0.8218679428100586,1.8975801467895508
1696961461234530800,10.31753076171875,-2.1792922019958496,0.15480542182922363,-0.1742793619632721
1696961461244544300,10.327544189453125,0.9701719284057617,-0.831436276435852,-0.0005393028259277344
1696961461254558000,10.337557861328126,1.0438003540039062,-0.009284019470214844,-0.06332136690616608
1696961461264571400,10.3475712890625,-0.23590564727783203,-0.27112483978271484,-0.3803814649581909
1696961461274585000,10.357585205078125,0.5629701614379883,-0.762883186340332,0.17445075511932373
1696961461284598500,10.3675986328125,-0.012615203857421875,0.06948482990264893,0.5992867946624756
1696961461294612000,10.377612060546875,0.9809103012084961,-1.0033024549484253,0.31071341037750244
1696961461304625700,10.387625732421874,2.8417739868164062,0.717316746711731,0.07976555824279785
1696961461314639000,10.39763916015625,-1.361403465270996,-0.6842262744903564,-0.34871500730514526
1696961461324652800,10.40765283203125,1.499155044555664,-1.2001190185546875,-0.20784512162208557
1696961461334666200,10.417666259765625,-0.492431640625,0.4747731685638428,-0.16787396371364594
1696961461344679700,10.4276796875,-0.6874876022338867,-1.3174028396606445,-1.0310248136520386
1696961461354693400,10.437693359375,1.431478500366211,0.09497213363647461,-0.3708098530769348
1696961461364706800,10.447706787109375,0.20498180389404297,-1.0025566816329956,0.1341623067855835
1696961461374720500,10.457720458984374,0.38173866271972656,-0.8208421468734741,0.2405220866203308
1696961461384734000,10.46773388671875,1.7334747314453125,0.7420576810836792,0.2985166311264038
1696961461394747400,10.477747314453126,0.630549430847168,-1.1033360958099365,-0.04282163083553314
1696961461404761000,10.487760986328125,-0.005911827087402344,-1.0143574476242065,0.2139350175857544
1696961461414774500,10.4977744140625,0.03731250762939453,0.7781054973602295,-0.3846007287502289
1696961461424788200,10.507788330078125,-0.7836589813232422,-0.7454193830490112,0.5537678003311157
1696961461434801700,10.5178017578125,0.7144536972045898,0.21399462223052979,0.5275787115097046
1696961461444815000,10.527815185546874,-0.3096141815185547,-0.5930709838867188,-0.1050865650177002
1696961461454828800,10.537828857421875,-0.3752918243408203,-0.5428788661956787,-0.9369341135025024
1696961461464842200,10.54784228515625,-0.2637977600097656,0.8307586908340454,0.05358463525772095
1696961461474856000,10.55785595703125,-0.41578102111816406,-0.7602169513702393,-0.6996293067932129
1696961461484869400,10.567869384765626,-2.0054712295532227,-0.42220914363861084,0.11756390333175659
1696961461494882800,10.5778828125,0.18867111206054688,-0.1519862413406372,0.274715393781662
1696961461504896500,10.587896484375,0.43665027618408203,-1.151047945022583,-1.0874757766723633
1696961461514910000,10.597909912109374,1.1961326599121094,1.3138445615768433,-0.2957322597503662
1696961461524923400,10.60792333984375,-1.0812139511108398,-0.6944228410720825,0.5731706619262695
1696961461534937000,10.61793701171875,0.6180582046508789,0.2531353235244751,1.1032854318618774
1696961461544950500,10.627950439453125,-0.21538162231445312,0.5399197340011597,0.019690006971359253
1696961461554964000,10.6379638671875,-1.232975959777832,-0.26326560974121094,-0.8291083574295044
1696961461564977400,10.647977294921875,-0.16897296905517578,-0.644824743270874,-0.3539741635322571
1696961461574990800,10.657990966796875,-0.9762172698974609,0.36026430130004883,0.16912299394607544
1696961461585004300,10.66800439453125,2.1223068237304688,-0.42066681385040283,-0.5719118118286133
1696961461595018000,10.67801806640625,-3.7182998657226562,0.6002018451690674,-0.1734333336353302
1696961461605031400,10.688031494140626,1.604705810546875,-1.2051780223846436,0.24273979663848877
1696961461615044900,10.698044921875,-1.888789176940918,0.910010576248169,-0.7326012849807739
1696961461625058300,10.708058349609376,0.74908447265625,0.20711755752563477,0.5943578481674194
1696961461635071700,10.71807177734375,-2.1687140464782715,-2.0346438884735107,-1.2367992401123047
1696961461645085400,10.72808544921875,-0.8406801223754883,0.6005003452301025,-0.3223056495189667
1696961461655099000,10.738098876953124,3.46724796295166,-0.3510552644729614,-1.4869767427444458
1696961461665112300,10.7481123046875,-4.703571796417236,-0.7516745328903198,0.05241015553474426
1696961461675125800,10.758125732421876,2.2319860458374023,0.8667244911193848,1.2108455896377563
1696961461685139200,10.76813916015625,-1.3631553649902344,-0.47461724281311035,0.3236664831638336
1696961461695153000,10.77815283203125,-0.43334102630615234,-0.9656511545181274,-1.8606809377670288
1696961461705166300,10.788166259765624,0.6238918304443359,0.10310995578765869,0.014082580804824829
1696961461715179800,10.7981796875,0.1679229736328125,-1.451964259147644,-0.2458939254283905
1696961461725193200,10.808193115234374,1.7822542190551758,2.4797701835632324,-0.24964988231658936
1696961461735206700,10.81820654296875,1.8922195434570312,-1.3717108964920044,1.2568110227584839
1696961461745220400,10.828220458984376,-0.8319692611694336,-0.4915273189544678,0.12698709964752197
1696961461755233800,10.83823388671875,0.1723155975341797,-0.278627872467041,-0.11834865808486938
1696961461765247200,10.848247314453126,0.6162986755371094,-0.639858603477478,-0.42008480429649353
1696961461775260700,10.8582607421875,0.9113960266113281,-0.6637934446334839,0.46596935391426086
1696961461785274000,10.868274169921875,0.8271656036376953,-0.3489246368408203,-0.9658071994781494
1696961461795287800,10.878287841796874,-0.08763790130615234,0.6033045053482056,0.4617675244808197
1696961461805301200,10.88830126953125,1.5712146759033203,-1.3690840005874634,0.27235743403434753
1696961461815314700,10.898314697265626,-1.3816089630126953,-0.7251989841461182,-0.08182395994663239
1696961461825328000,10.908328125,0.07973575592041016,-0.12319529056549072,-0.3739759922027588
1696961461835341600,10.918341552734375,1.1647872924804688,0.8445650339126587,-0.5179007053375244
1696961461845355300,10.928355224609374,0.3256978988647461,-1.5434666872024536,-0.5679872632026672
1696961461855368700,10.93836865234375,-0.9792633056640625,-0.39574897289276123,-0.793913722038269
1696961461865382100,10.948382080078124,0.12296009063720703,-0.11651372909545898,0.1704690158367157
1696961461875395600,10.9583955078125,0.9071550369262695,0.9834930896759033,-0.48525214195251465
1696961461885409300,10.9684091796875,0.3028573989868164,-1.4101980924606323,0.06099101901054382
1696961461895422700,10.978422607421875,-0.8199558258056641,0.6386721134185791,-0.5337405204772949
1696961461905436200,10.988436279296875,-0.29195404052734375,-1.2485188245773315,0.23693829774856567
1696961461915449900,10.998449951171875,1.1767892837524414,0.8430478572845459,-0.13821737468242645
1696961461925463300,11.00846337890625,-0.10682964324951172,-0.4418870210647583,-0.3640925884246826
1696961461935477000,11.01847705078125,-0.024435043334960938,0.9981625080108643,0.6355465650558472
1696961461945490400,11.028490478515625,1.294856071472168,-1.922091007232666,1.3037124872207642
1696961461955503900,11.03850390625,0.23058605194091797,1.1454944610595703,-1.0440925359725952
1696961461965517600,11.048517578125,-2.244938373565674,-0.5962624549865723,-0.4615536332130432
1696961461975531000,11.058531005859376,1.5840330123901367,-0.15655076503753662,0.24356186389923096
1696961461985544700,11.068544677734375,-1.0290441513061523,0.11418592929840088,-0.1594865918159485
1696961461995558100,11.07855810546875,1.4061450958251953,0.43795883655548096,-0.06276978552341461
1696961462005571600,11.088571533203124,-2.1481947898864746,-1.7765014171600342,-0.35781580209732056
1696961462015585300,11.098585205078125,0.7149028778076172,0.7749227285385132,-0.7958157062530518
1696961462025598700,11.1085986328125,0.46024322509765625,-0.33371245861053467,-0.34972769021987915
1696961462035612400,11.1186123046875,-1.3330106735229492,0.42223572731018066,-0.5217154026031494
1696961462045625900,11.1286259765625,0.35672569274902344,-1.096230387687683,-0.07532146573066711
1696961462055639300,11.138639404296875,1.2115440368652344,0.6924221515655518,-0.22122687101364136
1696961462065653000,11.148653076171875,-0.6600742340087891,0.07871139049530029,-0.7394432425498962
1696961462075666400,11.15866650390625,0.4927997589111328,-1.1714658737182617,-1.0152705907821655
1696961462085680000,11.16868017578125,-0.19614219665527344,0.4638460874557495,0.08834882080554962
1696961462095693600,11.178693603515624,0.8030624389648438,0.03800833225250244,-1.1115775108337402
1696961462105707000,11.18870703125,-1.6318531036376953,-0.9685317277908325,-0.9643566608428955
1696961462115720700,11.198720703125,1.847360610961914,0.033588290214538574,0.3695494830608368
1696961462125734100,11.208734130859375,-0.4702186584472656,-0.3636207580566406,0.6077889204025269
1696961462135747800,11.218747802734375,2.1594018936157227,1.123581051826477,0.5101977586746216
1696961462145761300,11.22876123046875,-0.45095252990722656,-0.6078392267227173,0.09313860535621643
1696961462155774700,11.238774658203125,-0.6407928466796875,-0.7409272193908691,-0.6799343228340149
1696961462165788400,11.248788330078124,1.4971208572387695,0.7221817970275879,0.41398927569389343
1696961462175801900,11.2588017578125,-0.9583206176757812,-0.10158431529998779,0.3640696704387665
1696961462185815600,11.268815673828126,-0.4833507537841797,-0.6101797819137573,-0.5554509162902832
1696961462195829000,11.2788291015625,-0.5350017547607422,-0.43534231185913086,-1.1844587326049805
1696961462205842400,11.288842529296875,-1.5610542297363281,1.0327180624008179,0.2488468438386917
1696961462215856000,11.298856201171875,1.1713027954101562,-0.6934928894042969,0.3303806185722351
1696961462225869600,11.30886962890625,-1.6089496612548828,-0.3391522169113159,-0.8837994337081909
1696961462235883300,11.31888330078125,-0.6684103012084961,0.5187159776687622,-0.13027216494083405
1696961462245896700,11.328896728515625,0.6950826644897461,-0.9725552797317505,-0.7256062626838684
1696961462255910100,11.33891015625,-3.507706642150879,-0.12204968929290771,0.041302695870399475
1696961462265923800,11.348923828125,1.0116815567016602,-0.20328426361083984,-0.5704861879348755
1696961462275937300,11.358937255859376,0.5407600402832031,0.8205686807632446,0.5277395844459534
1696961462285951000,11.368950927734375,-0.6462926864624023,-1.3433425426483154,-0.5493091940879822
1696961462295964400,11.37896435546875,-0.5307254791259766,0.6286473274230957,-1.6460515260696411
1696961462305977900,11.388977783203124,0.9857606887817383,-0.209722638130188,0.03577166795730591
1696961462315991600,11.398991455078125,0.8347444534301758,-0.3591940402984619,-0.14702701568603516
1696961462326005000,11.4090048828125,-1.0985260009765625,0.6960972547531128,-0.4261597692966461
1696961462336018700,11.419018798828125,2.06793212890625,-1.3554669618606567,0.6168445348739624
1696961462346032000,11.4290322265625,-0.8432369232177734,0.41386306285858154,0.17688380181789398
1696961462356045600,11.439045654296875,2.3031129837036133,-0.6135091781616211,-0.32999151945114136
1696961462366059300,11.449059326171875,0.7488107681274414,-0.0996706485748291,-0.877604067325592
1696961462376072700,11.45907275390625,-0.6863870620727539,0.40541303157806396,0.26893964409828186
1696961462386086400,11.46908642578125,2.2492542266845703,-0.9033675193786621,-0.043983519077301025
1696961462396099800,11.479099853515624,-4.776381492614746,-0.7119044065475464,-0.1939423531293869
1696961462406113300,11.48911328125,3.3836612701416016,0.6566694974899292,-0.49087345600128174
1696961462416127000,11.499126953125,-0.20837116241455078,-0.6633208990097046,0.06974667310714722
1696961462426140400,11.509140380859375,-0.7522497177124023,0.100288987159729,0.24993419647216797
1696961462436154000,11.519154052734375,1.7394609451293945,0.13286733627319336,0.45687052607536316
1696961462446167600,11.52916748046875,-0.3720073699951172,0.50728440284729,-0.36687418818473816
1696961462456181000,11.539180908203125,-0.8534069061279297,-0.6289820671081543,0.6086920499801636
1696961462466194400,11.5491943359375,-0.8418083190917969,-0.36000120639801025,-0.8089369535446167
1696961462476207900,11.559207763671875,0.3984403610229492,0.6606975793838501,0.37555474042892456
1696961462486221600,11.5692216796875,1.3967456817626953,0.4886730909347534,0.24733136594295502
1696961462496235000,11.579235107421875,-2.9704813957214355,-2.043243408203125,-1.549500584602356
1696961462506248400,11.58924853515625,2.5471744537353516,1.5312336683273315,-1.4157906770706177
1696961462516262000,11.599261962890624,-3.498887062072754,-0.8103033304214478,0.7665115594863892
1696961462526275300,11.609275390625,3.9505157470703125,-0.05206775665283203,0.7062444686889648
1696961462536288800,11.619288818359376,-3.424006938934326,-0.7350423336029053,-0.5944090485572815
1696961462546302500,11.629302490234375,1.626657485961914,0.37936604022979736,-0.8291897773742676
1696961462556316000,11.63931591796875,1.7905817031860352,0.7131557464599609,-0.4114606976509094
1696961462566329300,11.649329345703125,-1.8509955406188965,-1.6382132768630981,-0.7646951675415039
1696961462576342800,11.6593427734375,2.335468292236328,0.8879290819168091,1.4365718364715576
1696961462586356200,11.669356201171874,0.13666629791259766,0.37072575092315674,0.6830209493637085
1696961462596370000,11.679369873046875,0.4131641387939453,-0.0009986162185668945,0.795305609703064
1696961462606383400,11.68938330078125,1.3386764526367188,0.522789478302002,-0.5327345728874207
1696961462616396800,11.699396728515625,-1.6365880966186523,-0.848734974861145,0.6500927805900574
1696961462626410200,11.70941015625,1.1821765899658203,1.3282206058502197,0.5786731243133545
1696961462636423700,11.719423583984375,0.5287561416625977,-1.277068853378296,0.2547765076160431
1696961462646437400,11.729437255859375,-1.814058780670166,1.1428183317184448,0.13513006269931793
1696961462656450800,11.739450927734374,-1.4561376571655273,-0.684481143951416,0.5254970788955688
1696961462666464300,11.74946435546875,-0.03372001647949219,-0.05332183837890625,-1.1832188367843628
1696961462676477700,11.759477783203126,-2.752901554107666,-0.263472318649292,-1.3254739046096802
1696961462686491100,11.7694912109375,-0.6290140151977539,-0.8115736246109009,-1.4693727493286133
1696961462696504800,11.7795048828125,-1.535893440246582,0.0012128353118896484,-1.5665292739868164
1696961462706518300,11.789518310546875,0.7717914581298828,0.24806690216064453,0.8125067949295044
1696961462716531700,11.79953173828125,-0.9698524475097656,-0.6208785772323608,-0.41216912865638733
1696961462726545200,11.809545166015624,-1.1113471984863281,0.5170164108276367,0.450264036655426
1696961462736558600,11.81955859375,2.7429542541503906,0.2314661741256714,0.5665028691291809
1696961462746572300,11.829572265625,-1.9187445640563965,-0.37013494968414307,-0.24663907289505005
1696961462756585700,11.839585693359375,0.8283243179321289,0.3532257080078125,-0.39840129017829895
1696961462766599200,11.84959912109375,-0.31106090545654297,0.3187817335128784,2.0386383533477783
1696961462776612600,11.859612548828125,2.7855005264282227,-0.49324774742126465,0.05304693430662155
1696961462786626000,11.8696259765625,-2.0203051567077637,0.052647948265075684,-1.3533263206481934
1696961462796639700,11.8796396484375,0.6222457885742188,0.28085899353027344,-0.9899736642837524
1696961462806653200,11.889653076171875,-2.4953579902648926,-1.410155177116394,1.2964152097702026
1696961462816666600,11.89966650390625,1.1038684844970703,-0.24017643928527832,-0.2906493544578552
1696961462826680000,11.90968017578125,-0.39063167572021484,0.14251196384429932,-1.0050030946731567
1696961462836693500,11.919693603515626,1.9666309356689453,-0.8814771175384521,0.4902491569519043
1696961462846707000,11.92970703125,-0.872650146484375,0.3279147148132324,0.6397959589958191
1696961462856720600,11.939720703125,0.2951231002807617,-1.8062173128128052,-0.6922162175178528
1696961462866734000,11.949734130859374,-0.2122478485107422,0.36368703842163086,-0.15148916840553284
1696961462876747500,11.95974755859375,0.715601921081543,-0.8045462369918823,0.324248731136322
1696961462886761000,11.969760986328126,2.113846778869629,0.9526857137680054,-0.5153031349182129
1696961462896774400,11.9797744140625,-0.3668785095214844,-1.6881142854690552,0.7128430604934692
1696961462906788000,11.9897880859375,-0.24152660369873047,0.6615337133407593,-1.2759279012680054
1696961462916801500,11.999801513671875,1.4077081680297852,-1.6096242666244507,0.2664010524749756
1696961462926815000,12.00981494140625,1.6246118545532227,1.4922181367874146,0.6357136964797974
1696961462936828400,12.019828369140624,1.6299781799316406,-2.0186727046966553,0.8394852876663208
1696961462946841900,12.029841796875,-3.9462294578552246,-0.5001599788665771,-0.9498950839042664
1696961462956855600,12.03985546875,1.607863426208496,0.500832200050354,0.3682084083557129
1696961462966869000,12.049868896484375,-1.2155141830444336,-0.8691900968551636,-0.5036599040031433
1696961462976882400,12.05988232421875,0.29287242889404297,-1.584083080291748,-1.6091887950897217
1696961462986896100,12.069896240234375,-1.0693159103393555,-0.13541030883789062,-0.6550506949424744
1696961462996909600,12.07990966796875,1.1996135711669922,-0.9686776399612427,-0.13939425349235535
1696961463006923000,12.089923095703124,0.7286586761474609,0.4838523864746094,-0.15410101413726807
1696961463016936700,12.099936767578125,-1.236663818359375,-1.2516025304794312,0.8723016381263733
1696961463026950100,12.1099501953125,2.116758346557617,0.4175068140029907,-0.5398223400115967
1696961463036963800,12.1199638671875,-0.5688533782958984,-0.11389195919036865,-0.05397158861160278
1696961463046977300,12.129977294921876,2.224421501159668,-0.9702835083007812,0.9427065849304199
1696961463056990700,12.13999072265625,0.19757556915283203,-0.13809466361999512,0.20670287311077118
1696961463067004400,12.15000439453125,1.5072145462036133,0.06752753257751465,-0.2752716541290283
1696961463077017900,12.160017822265624,0.528965950012207,0.2650594711303711,0.7382841110229492
1696961463087031600,12.170031494140625,-0.38001346588134766,-1.013990879058838,-0.3585655093193054
1696961463097045000,12.180044921875,-2.99753475189209,-0.9860177040100098,0.9514282941818237
1696961463107058400,12.190058349609375,3.0509567260742188,1.4129875898361206,-0.43770846724510193
1696961463117072100,12.200072021484376,-3.833425998687744,-2.028400421142578,-1.0003284215927124
1696961463127085600,12.21008544921875,1.2610359191894531,-0.7804858684539795,-1.0487537384033203
1696961463137099300,12.220099365234375,-0.7246923446655273,1.731053113937378,0.31127262115478516
1696961463147112700,12.23011279296875,-0.6418352127075195,-1.1728582382202148,-0.5100347995758057
1696961463157126100,12.240126220703125,-3.0826101303100586,-0.9954980611801147,0.3976232409477234
1696961463167139800,12.250139892578124,1.3506498336791992,-0.4825923442840576,0.7674139738082886
1696961463177153300,12.2601533203125,-1.9118919372558594,0.9089685678482056,0.4509749710559845
1696961463187167000,12.2701669921875,1.370244026184082,-0.9172282218933105,-0.497763454914093
1696961463197180400,12.280180419921875,-2.0405726432800293,-0.09243988990783691,0.2944589853286743
1696961463207193900,12.29019384765625,2.3750200271606445,-1.3745559453964233,-0.21839384734630585
1696961463217207600,12.30020751953125,-1.6505193710327148,1.160683274269104,0.41925615072250366
1696961463227221000,12.310220947265625,0.9620790481567383,-1.187881588935852,0.012120291590690613
1696961463237234700,12.320234619140624,-2.4530673027038574,-0.7079724073410034,0.18536677956581116
1696961463247248100,12.330248046875,1.9826240539550781,-0.5300264358520508,0.025694921612739563
1696961463257261600,12.340261474609376,-0.9906558990478516,0.4408928155899048,-0.6967871785163879
1696961463267275300,12.350275146484375,1.1044607162475586,-1.601357102394104,-0.47326087951660156
1696961463277288700,12.360288818359376,-0.40892696380615234,-0.7478549480438232,0.4052198529243469
1696961463287302400,12.370302490234375,0.0648050308227539,-0.680544376373291,-0.5691566467285156
1696961463297315800,12.38031591796875,1.3544855117797852,0.19933831691741943,0.32505980134010315
1696961463307329300,12.390329345703124,-0.5225286483764648,-1.7776906490325928,0.2621161937713623
1696961463317343000,12.400343017578125,1.8442182540893555,0.5558617115020752,0.4468497335910797
1696961463327356400,12.4103564453125,-0.10584735870361328,-1.2398368120193481,-0.969452440738678
1696961463337370000,12.4203701171875,0.936370849609375,-0.3049432039260864,0.15709815919399261
1696961463347383600,12.430383544921876,0.8671598434448242,-1.1742815971374512,-0.34932899475097656
1696961463357397000,12.44039697265625,-0.7502431869506836,-0.502192497253418,0.5499491691589355
1696961463367410700,12.45041064453125,1.053243637084961,-1.1457971334457397,0.07219506800174713
1696961463377424100,12.460424072265624,1.2276926040649414,0.05449175834655762,-0.5573598742485046
1696961463387437600,12.4704375,0.2741203308105469,-0.45543408393859863,0.18893477320671082
1696961463397451300,12.480451171875,-0.5532417297363281,-1.223922848701477,0.2898894250392914
1696961463407464700,12.490464599609375,-0.44666385650634766,-0.4520900249481201,0.009029269218444824
1696961463417478400,12.500478515625,0.48702430725097656,-0.6277871131896973,-0.2173779010772705
1696961463427491800,12.510491943359375,1.3271636962890625,0.8537043333053589,0.9081387519836426
1696961463437505300,12.52050537109375,-1.7440834045410156,-2.299245834350586,0.2524125277996063
1696961463447519000,12.53051904296875,0.9652423858642578,0.8452242612838745,0.07042095065116882
1696961463457532400,12.540532470703125,-0.41791439056396484,-0.3592195510864258,-0.7472330927848816
1696961463467545900,12.5505458984375,-1.4870672225952148,-0.9190171957015991,0.07141521573066711
1696961463477559300,12.560559326171875,-0.28394126892089844,-0.8538841009140015,-0.0040534138679504395
1696961463487572700,12.57057275390625,-0.4216299057006836,0.5183523893356323,-0.10408586263656616
1696961463497586400,12.58058642578125,1.3670845031738281,-1.3871464729309082,-0.44496893882751465
1696961463507600000,12.590599853515625,-2.005356788635254,0.10672366619110107,0.8660399317741394
1696961463517613300,12.60061328125,0.030297279357910156,-0.9706968069076538,-0.7540733218193054
1696961463527626800,12.610626708984375,-0.5243234634399414,0.25639593601226807,-0.4405484199523926
1696961463537640200,12.62064013671875,0.7439737319946289,-0.8315502405166626,0.3979620039463043
1696961463547654000,12.63065380859375,-1.9393301010131836,-0.8265769481658936,0.22290697693824768
