time,seconds_elapsed,z,y,x
1696965594283725800,0.190725830078125,0.2514162063598633,0.06952345371246338,0.10072609037160873
1696965594293741600,0.200741455078125,-0.9465742111206055,-0.010462641716003418,0.08857236057519913
1696965594303759600,0.210759521484375,-0.8038911819458008,0.4432520270347595,0.8122388124465942
1696965594313779700,0.22077978515625,1.5071907043457031,0.7766112089157104,0.4934099316596985
1696965594323801300,0.23080126953125,1.0420703887939453,0.147335946559906,0.051479458808898926
1696965594333824500,0.240824462890625,-1.7460355758666992,-0.3177488148212433,-0.01566256582736969
1696965594343848400,0.250848388671875,-0.5833902359008789,0.4968160390853882,0.6590589284896851
1696965594353872600,0.26087255859375,1.8335838317871094,0.6720653772354126,0.4211452007293701
1696965594363897000,0.27089697265625,0.183746337890625,0.0391727089881897,-0.17853617668151855
1696965594373912300,0.280912353515625,-1.0978927612304688,-0.36571675539016724,0.03733271360397339
1696965594383926300,0.29092626953125,-0.7088260650634766,0.3125230669975281,0.6339249610900879
1696965594393940200,0.300940185546875,1.4566307067871094,0.552242636680603,0.393392413854599
1696965594403954200,0.3109541015625,0.9539241790771484,0.14503741264343262,-0.28991568088531494
1696965594413968100,0.320968017578125,-1.7829413414001465,-0.3659094274044037,-0.06668795645236969
1696965594423982300,0.330982421875,-0.5873994827270508,0.38140106201171875,0.598131537437439
1696965594433996300,0.340996337890625,1.8245773315429688,0.4748843312263489,0.36881816387176514
1696965594444010200,0.35101025390625,0.1695556640625,-0.21772730350494385,-0.2701302468776703
1696965594454024200,0.361024169921875,-1.2972345352172852,-0.24170640110969543,-0.01280142366886139
1696965594464038400,0.371038330078125,-0.5064859390258789,0.37750691175460815,0.5496493577957153
1696965594474052400,0.38105224609375,1.5951080322265625,0.47055667638778687,0.17070269584655762
1696965594484066300,0.39106640625,0.7215023040771484,-0.08478277921676636,-0.2870958149433136
1696965594494080300,0.401080322265625,-1.9005985260009766,-0.480959415435791,0.017652809619903564
1696965594504094200,0.41109423828125,-0.30942630767822266,0.3303702473640442,0.6216708421707153
1696965594514108400,0.4211083984375,1.9698162078857422,0.4581466317176819,0.18275785446166992
1696965594524122400,0.431122314453125,-0.017744064331054688,-0.2639298141002655,-0.4164244532585144
1696965594534136300,0.44113623046875,-1.319188117980957,-0.28862425684928894,-0.05280765891075134
1696965594544150300,0.451150390625,-0.2949247360229492,0.18196725845336914,0.5759190320968628
1696965594554164500,0.46116455078125,1.6275959014892578,0.3634011745452881,0.14226800203323364
1696965594564178400,0.471178466796875,0.4976463317871094,-0.1990196704864502,-0.30786508321762085
1696965594574192400,0.4811923828125,-1.9691100120544434,-0.3993467390537262,-0.007419198751449585
1696965594584206300,0.491206298828125,-0.05617713928222656,0.2716028094291687,0.5276088118553162
1696965594594220500,0.501220458984375,1.8417139053344727,0.29657185077667236,0.05484768748283386
1696965594604234500,0.511234375,-0.04467296600341797,-0.3949227035045624,-0.2872961759567261
1696965594614248400,0.52124853515625,-1.4045486450195312,-0.4227360486984253,0.031146377325057983
1696965594624262400,0.531262451171875,-0.04300498962402344,0.2068014144897461,0.4080713391304016
1696965594634276400,0.5412763671875,1.6809587478637695,0.20126330852508545,0.09245523810386658
1696965594644290600,0.55129052734375,0.27117347717285156,-0.3388805091381073,-0.2890543043613434
1696965594654304500,0.561304443359375,-1.9843358993530273,-0.42586684226989746,0.08726423978805542
1696965594664318500,0.571318359375,0.0787200927734375,0.1911090612411499,0.4105062186717987
1696965594674332400,0.58133251953125,2.178685188293457,0.2846933603286743,0.14714565873146057
1696965594684346600,0.5913466796875,-0.30606555938720703,-0.3385903537273407,-0.31936830282211304
1696965594694360600,0.601360595703125,-1.703744888305664,-0.4162362217903137,0.02331969141960144
1696965594704374500,0.61137451171875,0.2600088119506836,0.32718533277511597,0.47176435589790344
1696965594714388500,0.621388427734375,1.8432893753051758,0.11605942249298096,0.0768134593963623
1696965594724402400,0.63140234375,-0.2361440658569336,-0.009072542190551758,-0.37231943011283875
1696965594734416600,0.641416748046875,-1.2896156311035156,-0.49058860540390015,0.05296093225479126
1696965594744430600,0.6514306640625,-0.8194732666015625,0.5330085754394531,0.4775201082229614
1696965594754444500,0.661444580078125,3.204230308532715,0.30066990852355957,0.0850379467010498
1696965594764458500,0.67145849609375,-1.3609867095947266,-0.1746056079864502,-0.39839208126068115
1696965594774472700,0.68147265625,-1.3422327041625977,-0.1745682954788208,0.11757603287696838
1696965594784486700,0.691486572265625,0.3806896209716797,0.5167008638381958,0.4310775399208069
1696965594794500600,0.70150048828125,1.6134347915649414,0.4119938015937805,-0.035499632358551025
1696965594804514600,0.7115146484375,-0.36379432678222656,-0.10586845874786377,-0.30332350730895996
1696965594814528800,0.72152880859375,-2.0029520988464355,-0.057140469551086426,0.19988906383514404
1696965594824542700,0.731542724609375,0.7397785186767578,0.5925449132919312,0.48170867562294006
1696965594834556700,0.741556640625,1.8790569305419922,0.36795300245285034,0.020770281553268433
1696965594844570600,0.751570556640625,-1.0933008193969727,-0.285421222448349,-0.37108463048934937
1696965594854584600,0.76158447265625,-1.289078712463379,0.10671985149383545,0.25090280175209045
1696965594864598800,0.771598876953125,0.8868589401245117,0.4229394793510437,0.5245227813720703
1696965594874612700,0.78161279296875,1.3695182800292969,0.2445949912071228,-0.07895369827747345
1696965594884626700,0.791626708984375,-0.737156867980957,-0.23686301708221436,-0.36120739579200745
1696965594894641000,0.801640869140625,-1.6900367736816406,-0.029807984828948975,0.2144562304019928
1696965594904654800,0.81165478515625,0.9881887435913086,0.426910400390625,0.39404726028442383
1696965594914668800,0.821668701171875,1.6595849990844727,0.12998682260513306,-0.16937345266342163
1696965594924683000,0.83168310546875,-1.2549467086791992,-0.4351380169391632,-0.38033950328826904
1696965594934697000,0.841697021484375,-1.2711257934570312,-0.04037833213806152,0.24237984418869019
1696965594944711200,0.851711181640625,1.0052738189697266,0.2642057538032532,0.3564380407333374
1696965594954725000,0.86172509765625,1.2568740844726562,0.017630934715270996,-0.2884513735771179
1696965594964739300,0.8717392578125,-0.943934440612793,-0.41034141182899475,-0.3230951428413391
1696965594974753300,0.881753173828125,-1.6318473815917969,-0.04914093017578125,0.3084248900413513
1696965594984767200,0.891767333984375,1.704690933227539,0.5772860050201416,0.5869549512863159
1696965594994781400,0.901781494140625,1.4139652252197266,0.3050939440727234,-0.1357526034116745
1696965595004795400,0.91179541015625,-1.3715295791625977,-0.2151758074760437,-0.16277249157428741
1696965595014809600,0.9218095703125,-0.6827621459960938,0.776725709438324,0.31610292196273804
1696965595024823600,0.931823486328125,-0.17279052734375,1.8833435773849487,0.0917482078075409
1696965595034837800,0.941837646484375,1.642512321472168,0.9221518635749817,-0.1043565422296524
1696965595044851700,0.951851806640625,-1.4161872863769531,-0.34676048159599304,0.32942405343055725
1696965595054865700,0.96186572265625,-0.6374292373657227,0.0710708498954773,0.23348358273506165
1696965595064879900,0.9718798828125,-0.26042938232421875,0.644598126411438,0.3687211871147156
1696965595074893800,0.981893798828125,1.452235221862793,1.2408218383789062,0.15147244930267334
1696965595084908000,0.991907958984375,0.820591926574707,1.375880479812622,-0.8740766644477844
1696965595094922000,1.001921875,-1.98858642578125,1.1399871110916138,0.12226980924606323
1696965595104936200,1.011936279296875,2.037238121032715,-0.8637763261795044,1.172938346862793
1696965595114950100,1.0219501953125,-1.6573829650878906,0.27917516231536865,0.09920799732208252
1696965595124964400,1.03196435546875,0.0810699462890625,0.653765857219696,-0.2309267818927765
1696965595134978300,1.041978271484375,-1.7493610382080078,1.3242212533950806,-0.05869758129119873
1696965595144992300,1.0519921875,2.544919967651367,0.7095515727996826,0.5287407636642456
1696965595155006500,1.06200634765625,0.5607175827026367,0.40230345726013184,0.13524597883224487
1696965595165020400,1.0720205078125,-2.2234067916870117,-0.685508131980896,-0.268267422914505
1696965595175034600,1.08203466796875,-0.7023630142211914,0.7048212289810181,0.5117472410202026
1696965595185048600,1.092048583984375,0.9268522262573242,0.6184951066970825,0.686326265335083
1696965595195062800,1.102062744140625,0.3151826858520508,0.34213006496429443,-0.3208538293838501
1696965595205076700,1.11207666015625,-0.019884109497070312,0.10455495119094849,-0.6003551483154297
1696965595215090700,1.122090576171875,-1.020669937133789,0.5122314691543579,0.2669525146484375
1696965595225105000,1.13210498046875,0.2797412872314453,0.7536429762840271,0.9148789644241333
1696965595235118800,1.142118896484375,0.7705268859863281,0.5078794360160828,0.0315362811088562
1696965595245133000,1.152133056640625,-0.07191181182861328,0.24111485481262207,-0.36697497963905334
1696965595255147000,1.16214697265625,-1.0963134765625,0.40009748935699463,-0.1545395404100418
1696965595265161200,1.1721611328125,-0.1083984375,0.5106538534164429,0.5210009217262268
1696965595275175200,1.182175048828125,1.629812240600586,0.6815173625946045,0.06189870834350586
1696965595285189000,1.192189208984375,-0.09383296966552734,0.5626761317253113,-0.3152572214603424
1696965595295203300,1.202203369140625,-1.6976385116577148,0.36880773305892944,0.09366071224212646
1696965595305217300,1.21221728515625,0.7816476821899414,0.48064738512039185,0.41063570976257324
1696965595315231500,1.2222314453125,1.1973562240600586,0.3457513451576233,-0.1254967302083969
1696965595325245400,1.232245361328125,-0.7695131301879883,0.04208791255950928,-0.48964983224868774
1696965595335259600,1.242259765625,-1.1948919296264648,0.29351937770843506,0.13577866554260254
1696965595345273600,1.252273681640625,0.25442028045654297,0.6198878288269043,0.5142477750778198
1696965595355287600,1.26228759765625,1.477585792541504,0.45251166820526123,-0.04760780930519104
1696965595365301800,1.2723017578125,-0.33033180236816406,-0.08108365535736084,-0.4592509865760803
1696965595375315700,1.282315673828125,-1.728902816772461,0.0958869457244873,-0.1429165154695511
1696965595385330000,1.292329833984375,0.49930572509765625,0.6813684701919556,0.488461434841156
1696965595395344000,1.30234375,1.0889759063720703,0.3281221389770508,0.10784044861793518
1696965595405358000,1.312358154296875,-0.2645254135131836,-0.09890532493591309,-0.33920127153396606
1696965595415372000,1.3223720703125,-1.2934207916259766,0.30559659004211426,-0.15198008716106415
1696965595425386000,1.332385986328125,0.17581653594970703,0.6374914646148682,0.5039029717445374
1696965595435400200,1.342400146484375,1.4621877670288086,0.5850123167037964,0.15490558743476868
1696965595445414100,1.3524140625,0.23408222198486328,-0.12129783630371094,-0.33909738063812256
1696965595455428400,1.362428466796875,-2.239253520965576,-0.03508436679840088,-0.20855100452899933
1696965595465442300,1.3724423828125,0.6063337326049805,0.7667181491851807,0.546054482460022
1696965595475456500,1.38245654296875,1.6426801681518555,0.4736349582672119,0.31757652759552
1696965595485470500,1.392470458984375,-0.5185556411743164,-0.18854176998138428,-0.3872503340244293
1696965595495484400,1.402484375,-1.6080102920532227,0.03676486015319824,-0.11932022869586945
1696965595505498600,1.41249853515625,0.3391590118408203,0.532683253288269,0.484050452709198
1696965595515512600,1.4225126953125,1.5489978790283203,0.4471747875213623,0.2882656455039978
1696965595525526800,1.43252685546875,0.0969085693359375,-0.3012692928314209,-0.3590410649776459
1696965595535540700,1.442540771484375,-2.333712577819824,-0.09444332122802734,-0.1430370956659317
1696965595545555000,1.452554931640625,0.8172340393066406,0.7031939029693604,0.6206557154655457
1696965595555569000,1.46256884765625,1.0253076553344727,0.35816729068756104,0.31632667779922485
1696965595565582800,1.472582763671875,-0.07119178771972656,-0.2541496753692627,-0.3614533543586731
1696965595575597000,1.48259716796875,-1.1977977752685547,0.022621512413024902,-0.19725412130355835
1696965595585611000,1.492611083984375,-0.01926136016845703,0.5289032459259033,0.5775167942047119
1696965595595625200,1.502625244140625,1.6742477416992188,0.49604034423828125,0.34273484349250793
1696965595605639200,1.51263916015625,-0.07840633392333984,-0.22413814067840576,-0.3475930988788605
1696965595615653400,1.5226533203125,-1.8998537063598633,-0.06526076793670654,-0.1895407736301422
1696965595625667300,1.532667236328125,0.5537843704223633,0.6942964792251587,0.6186070442199707
1696965595635681500,1.542681640625,1.758467674255371,0.4403873682022095,0.2653089463710785
1696965595645695500,1.552695556640625,-0.48488807678222656,-0.23611044883728027,-0.32506173849105835
1696965595655709400,1.56270947265625,-1.490260124206543,-0.12961041927337646,-0.19118675589561462
1696965595665723600,1.5727236328125,-0.024292945861816406,0.5828276872634888,0.584309458732605
1696965595675737600,1.582737548828125,2.340913772583008,0.392450213432312,0.1968245506286621
1696965595685751800,1.592751708984375,-0.4535989761352539,-0.17566239833831787,-0.36335304379463196
1696965595695765800,1.602765869140625,-2.3160505294799805,-0.26450204849243164,-0.1734943389892578
1696965595705780000,1.612780029296875,0.5068874359130859,0.711927056312561,0.6013833284378052
1696965595715794000,1.6227939453125,2.407485008239746,0.4476121664047241,0.21561148762702942
1696965595725807900,1.632807861328125,-1.068171501159668,-0.30599749088287354,-0.4415090084075928
1696965595735822000,1.642822021484375,-2.008470058441162,0.020892977714538574,0.0009044408798217773
1696965595745836000,1.6528359375,1.1124849319458008,0.6333117485046387,0.5802526473999023
1696965595755850200,1.662850341796875,2.405198097229004,0.6206327676773071,-0.04336932301521301
1696965595765864200,1.6728642578125,-2.1892690658569336,-0.16320347785949707,-0.47509312629699707
1696965595775878400,1.68287841796875,-2.1519007682800293,0.0036003589630126953,0.3711896538734436
1696965595785892400,1.692892333984375,3.036376953125,0.9250525236129761,0.430132120847702
1696965595795906300,1.70290625,1.0661497116088867,0.4964555501937866,-0.20490866899490356
1696965595805920500,1.71292041015625,-3.8778815269470215,-0.18634045124053955,-0.45353689789772034
1696965595815934500,1.7229345703125,1.406834602355957,0.4635474681854248,0.6885597705841064
1696965595825948700,1.73294873046875,2.9035348892211914,0.815520167350769,0.0068129003047943115
1696965595835962600,1.742962646484375,-3.3992743492126465,0.2632589340209961,-0.5568134784698486
1696965595845976800,1.752976806640625,-0.4745330810546875,0.002725362777709961,0.34908077120780945
1696965595855990800,1.76299072265625,3.3477745056152344,0.7761977910995483,0.35826510190963745
1696965595866004700,1.773004638671875,-1.86714506149292,0.7205082178115845,-0.34374797344207764
1696965595876019000,1.78301904296875,-2.0566654205322266,-0.03833138942718506,-0.005659371614456177
1696965595886033000,1.793032958984375,3.518294334411621,0.8139452934265137,0.4274584949016571
1696965595896047000,1.803047119140625,-1.5024242401123047,0.8332787752151489,-0.094002366065979
1696965595906061000,1.81306103515625,-2.165858745574951,0.16903042793273926,-0.16625197231769562
1696965595916075300,1.8230751953125,3.967531204223633,0.6952738761901855,0.41950562596321106
1696965595926089200,1.833089111328125,-2.2706217765808105,0.7874400615692139,0.08832597732543945
1696965595936103200,1.843103271484375,-1.0626211166381836,0.37612664699554443,-0.1661667376756668
1696965595946117400,1.853117431640625,3.093111038208008,0.8308510780334473,0.2834392488002777
1696965595956131300,1.86313134765625,-2.988267421722412,0.8601986169815063,0.01162111759185791
1696965595966145500,1.8731455078125,1.4491090774536133,0.6507673263549805,-0.022576212882995605
1696965595976159500,1.883159423828125,0.27945518493652344,0.7955195903778076,0.2958196997642517
1696965595986173700,1.893173583984375,-1.9948348999023438,0.9704424142837524,0.008729398250579834
1696965595996187600,1.903187744140625,2.5903663635253906,0.8813462257385254,0.2510850727558136
1696965596006201600,1.91320166015625,-2.6214728355407715,0.9384160041809082,-0.14909155666828156
1696965596016215800,1.9232158203125,1.6379737854003906,0.9992101192474365,0.21211525797843933
1696965596026229800,1.933229736328125,0.019469261169433594,0.7463964223861694,0.2825393080711365
1696965596036244000,1.943243896484375,-1.600881576538086,0.9836611747741699,-0.0007969141006469727
1696965596046258000,1.9532578125,2.515810012817383,1.140872836112976,0.41315269470214844
1696965596056272100,1.963272216796875,-2.829484462738037,0.8586573600769043,-0.16854327917099
1696965596066286000,1.9732861328125,1.7031793594360352,1.2994917631149292,0.3589816391468048
1696965596076300300,1.98330029296875,-1.1547574996948242,0.6884020566940308,0.1050260066986084
1696965596086314200,1.993314208984375,-0.27675819396972656,1.3894095420837402,0.07760229706764221
1696965596096328200,2.003328125,1.1839542388916016,0.8306295871734619,0.4662187993526459
1696965596106342400,2.01334228515625,-2.9018306732177734,1.1655614376068115,-0.17780078947544098
1696965596116356600,2.023356689453125,3.0282649993896484,1.2010252475738525,0.5761920213699341
1696965596126370600,2.03337060546875,-2.830010414123535,0.8734934329986572,-0.117849200963974
1696965596136384800,2.043384765625,1.3977899551391602,1.5597556829452515,0.46346068382263184
1696965596146399000,2.05339892578125,-0.4816131591796875,0.6894594430923462,-0.04257407784461975
1696965596156413000,2.063412841796875,-0.9321022033691406,1.5380795001983643,0.18710923194885254
1696965596166427100,2.07342724609375,1.4328584671020508,0.8329949378967285,0.3120993375778198
1696965596176441000,2.083441162109375,-2.3398618698120117,1.3906277418136597,-0.15109410881996155
1696965596186455300,2.093455322265625,1.7669382095336914,1.1542189121246338,0.6218568086624146
1696965596196469500,2.103469482421875,-1.3923053741455078,1.2534071207046509,-0.18535447120666504
1696965596206483500,2.1134833984375,0.3833484649658203,1.1866739988327026,0.3895913064479828
1696965596216497700,2.12349755859375,0.0006341934204101562,1.209692358970642,0.08399185538291931
1696965596226512000,2.133511962890625,-0.3472099304199219,1.1281248331069946,0.2824958860874176
1696965596236525800,2.14352587890625,0.32721614837646484,1.2382700443267822,-0.005270808935165405
1696965596246540000,2.1535400390625,-1.2284317016601562,0.9274976253509521,0.01810583472251892
1696965596256554200,2.16355419921875,1.2045183181762695,1.0852996110916138,0.06008920073509216
1696965596266568200,2.173568115234375,-1.6805133819580078,0.5630216598510742,-0.21247032284736633
1696965596276582400,2.18358251953125,0.17727088928222656,0.6816304922103882,0.011399984359741211
1696965596286596400,2.193596435546875,0.0006742477416992188,0.6388229131698608,-0.03165876865386963
1696965596296610600,2.203610595703125,-0.6956281661987305,0.9583674669265747,-0.13207808136940002
1696965596306624800,2.213624755859375,0.20456886291503906,1.013035535812378,0.04474908113479614
1696965596316638700,2.223638671875,-0.4112892150878906,0.7901643514633179,-0.018622219562530518
1696965596326653000,2.23365283203125,-0.15174007415771484,0.6198081970214844,-0.09562617540359497
1696965596336667100,2.243667236328125,0.2646293640136719,0.7537599802017212,-0.055336952209472656
1696965596346681000,2.25368115234375,-0.8002185821533203,0.7674421072006226,0.025299131870269775
1696965596356695300,2.2636953125,0.5921916961669922,1.123855710029602,0.2849907875061035
1696965596366709500,2.27370947265625,-0.6983213424682617,1.2214068174362183,0.14125096797943115
1696965596376723500,2.283723388671875,0.8223953247070312,0.7918074131011963,0.21515095233917236
1696965596386737700,2.293737548828125,-1.1459112167358398,0.593342661857605,-0.05495750904083252
1696965596396751600,2.303751708984375,1.1590042114257812,0.8869537115097046,0.306673526763916
1696965596406765800,2.313765869140625,-0.9632358551025391,0.6429016590118408,0.009282708168029785
1696965596416780000,2.323780029296875,0.3537607192993164,0.8945248126983643,0.15286004543304443
1696965596426794000,2.3337939453125,-0.6772708892822266,0.6959105730056763,0.21147960424423218
1696965596436808200,2.34380810546875,0.3574342727661133,0.6540333032608032,0.268638551235199
1696965596446822400,2.353822509765625,0.04820823669433594,0.5003417730331421,0.03215306997299194
1696965596456836400,2.36383642578125,-0.3213825225830078,0.23782289028167725,0.10870277881622314
1696965596466850600,2.3738505859375,0.2552175521850586,0.3904685974121094,0.30522269010543823
1696965596476864800,2.38386474609375,0.41414451599121094,1.0298339128494263,0.4164310097694397
1696965596486878700,2.393878662109375,-0.24260520935058594,1.1515690088272095,0.5706166625022888
1696965596496893000,2.403892822265625,0.7647590637207031,1.381597638130188,0.6778028607368469
1696965596506907000,2.413906982421875,-0.751399040222168,0.9837855100631714,0.3357754349708557
1696965596516921000,2.423921142578125,0.19953155517578125,1.2018381357192993,0.29087185859680176
1696965596526935300,2.433935302734375,0.27878284454345703,1.6790000200271606,0.5437638163566589
1696965596536949200,2.44394921875,-0.2433185577392578,1.529140591621399,0.46117138862609863
1696965596546963500,2.45396337890625,0.10434913635253906,1.9781361818313599,0.8611553907394409
1696965596556977700,2.463977783203125,-0.47899436950683594,1.8809326887130737,0.6979943513870239
1696965596566991600,2.47399169921875,-0.23345470428466797,1.7215920686721802,0.5279234051704407
1696965596577005800,2.484005859375,0.0637664794921875,1.553330659866333,0.5037803649902344
1696965596587019800,2.494019775390625,-0.16107463836669922,1.4670671224594116,0.5271902084350586
1696965596597034000,2.504033935546875,-0.5853433609008789,1.25859534740448,0.5809996724128723
1696965596607048200,2.514048095703125,0.8392314910888672,1.7121537923812866,0.8447927236557007
1696965596617062100,2.524062255859375,-0.6095609664916992,1.219282865524292,0.5542615056037903
1696965596627076400,2.534076416015625,0.2948455810546875,1.5252647399902344,0.9066957235336304
1696965596637090600,2.544090576171875,0.05030250549316406,1.4519189596176147,0.8605353832244873
1696965596647104500,2.5541044921875,-0.28867149353027344,1.6083167791366577,0.8997950553894043
1696965596657118700,2.56411865234375,0.39983177185058594,1.4815144538879395,1.300736665725708
1696965596667132700,2.574132568359375,-0.12680530548095703,1.201500654220581,0.4419448971748352
1696965596677146600,2.584146728515625,-0.1836071014404297,0.53740394115448,0.09860259294509888
1696965596687160800,2.594160888671875,0.4473094940185547,1.3248172998428345,0.3234784007072449
1696965596697174800,2.6041748046875,-0.19865989685058594,0.3161700963973999,-0.03828263282775879
1696965596707189000,2.61418896484375,-0.025869369506835938,1.0236095190048218,0.2929227948188782
1696965596717203000,2.624202880859375,-0.32137012481689453,0.3737550973892212,0.06263279914855957
1696965596727217200,2.634217041015625,0.18100833892822266,1.1962395906448364,0.40839987993240356
1696965596737231000,2.644231201171875,-0.0008974075317382812,0.4593229293823242,-0.2591424584388733
1696965596747245000,2.6542451171875,-0.4825448989868164,1.0332716703414917,0.2373865246772766
1696965596757259300,2.66425927734375,0.2591838836669922,0.4503357410430908,0.03705251216888428
1696965596767273200,2.674273193359375,-0.7295150756835938,1.0194849967956543,0.3769930601119995
1696965596777287400,2.684287353515625,0.22316837310791016,0.32726311683654785,-0.04900527000427246
1696965596787301400,2.69430126953125,-0.4695243835449219,1.2123303413391113,0.30961596965789795
1696965596797315600,2.704315673828125,0.17192745208740234,0.4239436388015747,0.032099902629852295
1696965596807329500,2.71432958984375,-0.4872760772705078,0.8938717842102051,0.3765142560005188
1696965596817343500,2.724343505859375,0.449951171875,0.5078147649765015,0.07685256004333496
1696965596827357700,2.734357666015625,-0.6779184341430664,0.8867859840393066,0.6724867820739746
1696965596837371600,2.74437158203125,0.7610502243041992,0.3242795467376709,0.23473531007766724
1696965596847385900,2.7543857421875,-0.39222145080566406,0.9999728202819824,0.3802114725112915
1696965596857399800,2.76439990234375,0.31089115142822266,0.2554816007614136,0.17038798332214355
1696965596867414000,2.7744140625,-0.1868877410888672,0.9556347131729126,0.5026757121086121
1696965596877428000,2.784427978515625,0.1669149398803711,0.2632969617843628,0.2470536231994629
1696965596887442000,2.79444189453125,0.19001102447509766,0.6242549419403076,0.27336692810058594
1696965596897456000,2.8044560546875,0.2226715087890625,0.37185871601104736,0.17158526182174683
1696965596907470000,2.814469970703125,0.0643930435180664,0.45536911487579346,0.28683674335479736
1696965596917484300,2.824484375,1.3003549575805664,0.5612107515335083,-0.3577430844306946
1696965596927498200,2.834498291015625,-0.6515512466430664,0.26644372940063477,0.2193533182144165
1696965596937512400,2.844512451171875,1.1793527603149414,-0.051772236824035645,0.27202844619750977
1696965596947526400,2.8545263671875,0.2156972885131836,0.49518585205078125,-0.036229729652404785
1696965596957540600,2.86454052734375,1.093658447265625,0.22844302654266357,-0.3702085614204407
1696965596967554600,2.874554443359375,0.6942863464355469,0.16296136379241943,0.3143352270126343
1696965596977568800,2.88456884765625,1.1551132202148438,0.29276859760284424,-0.07014232873916626
1696965596987583000,2.8945830078125,-0.1945018768310547,-0.025857210159301758,-0.1833564043045044
1696965596997597000,2.904596923828125,2.208059310913086,0.48610901832580566,-0.03942328691482544
1696965597007611100,2.914611083984375,-0.11890125274658203,-0.006547093391418457,0.24791312217712402
1696965597017625000,2.924625,1.3237371444702148,-0.07751142978668213,-0.2515183687210083
1696965597027639300,2.934639404296875,0.6803674697875977,0.24326932430267334,-0.14466524124145508
1696965597037653500,2.944653564453125,1.1850614547729492,0.2222670316696167,-0.1207316517829895
1696965597047667500,2.95466748046875,0.981353759765625,-0.19801104068756104,0.07723003625869751
1696965597057681700,2.964681640625,0.9408540725708008,0.24417459964752197,-0.26047223806381226
1696965597067695900,2.97469580078125,0.05550193786621094,-0.3343660831451416,-0.13942360877990723
1696965597077709800,2.984709716796875,2.0618467330932617,0.15032804012298584,-0.21885478496551514
1696965597087724000,2.99472412109375,-0.3357515335083008,-0.20919859409332275,-0.14767777919769287
1696965597097738200,3.00473828125,1.5432891845703125,0.002103447914123535,-0.2802380323410034
1696965597107752200,3.014752197265625,0.7233667373657227,-0.23411870002746582,0.09109753370285034
1696965597117766400,3.024766357421875,0.3551769256591797,-0.45459961891174316,-0.4051845073699951
1696965597127780400,3.0347802734375,0.9431676864624023,-0.42241764068603516,0.26262760162353516
1696965597137794600,3.044794677734375,0.9998445510864258,-0.36333906650543213,-0.025848448276519775
1696965597147808800,3.054808837890625,0.8696823120117188,-0.509564995765686,0.4790151119232178
1696965597157822700,3.06482275390625,1.5906295776367188,-0.3235424757003784,0.26772254705429077
1696965597167837000,3.0748369140625,0.5804214477539062,-1.1271636486053467,0.30002325773239136
1696965597177851100,3.08485107421875,1.4077863693237305,-0.40136194229125977,0.49537694454193115
1696965597187865000,3.094864990234375,0.5992507934570312,-1.227217674255371,0.07507586479187012
1696965597197879300,3.10487939453125,1.2791805267333984,-0.2938704490661621,0.37589776515960693
1696965597207893500,3.1148935546875,1.0322799682617188,-1.3153314590454102,-0.22966724634170532
1696965597217907500,3.124907470703125,1.6063804626464844,-0.09968698024749756,0.6815034747123718
1696965597227921700,3.134921630859375,0.7302923202514648,-1.1268972158432007,-0.27690088748931885
1696965597237935600,3.144935546875,0.49903011322021484,-0.20796501636505127,0.28001296520233154
1696965597247949800,3.15494970703125,1.470799446105957,-1.0113959312438965,-0.28835684061050415
1696965597257964000,3.164964111328125,0.13287830352783203,0.18891966342926025,-0.013958752155303955
1696965597267978000,3.17497802734375,0.5722179412841797,-0.5690323114395142,-0.261727511882782
1696965597277992200,3.1849921875,0.2453451156616211,-0.004146218299865723,0.48781710863113403
1696965597288006400,3.19500634765625,-0.13219833374023438,-0.2801476716995239,-0.27479565143585205
1696965597298020400,3.205020263671875,-0.7809906005859375,0.3902902603149414,0.3381165862083435
1696965597308034600,3.21503466796875,0.1044921875,0.24782705307006836,0.33997470140457153
1696965597318048800,3.225048828125,-1.4723014831542969,0.4611353874206543,0.17103147506713867
1696965597328062700,3.235062744140625,-0.7891950607299805,0.27230334281921387,-0.023299455642700195
1696965597338077000,3.245076904296875,-1.593317985534668,0.48128414154052734,0.36232107877731323
1696965597348091000,3.2550908203125,-0.8056707382202148,0.7036590576171875,0.3483174443244934
1696965597358105000,3.26510498046875,-2.0220346450805664,0.28685808181762695,0.3982117176055908
1696965597368119300,3.275119384765625,-1.477121353149414,0.7353513240814209,-0.04197657108306885
1696965597378133200,3.28513330078125,-1.8129353523254395,0.39168596267700195,-0.444429874420166
1696965597388147500,3.2951474609375,-2.0904994010925293,0.7994446754455566,-0.5971419811248779
1696965597398161700,3.30516162109375,-2.118710517883301,0.5924398899078369,0.11240434646606445
1696965597408175600,3.315175537109375,-2.5098605155944824,0.9825520515441895,0.18636876344680786
1696965597418189800,3.32518994140625,-2.6240673065185547,0.49689602851867676,-0.17141729593276978
1696965597428204000,3.3352041015625,-2.685913562774658,0.9962325096130371,-0.15878552198410034
1696965597438218000,3.345218017578125,-3.000596523284912,0.7621974945068359,-0.4811941981315613
1696965597448232200,3.355232177734375,-2.684138298034668,1.2551045417785645,-0.3514549136161804
1696965597458246100,3.36524609375,-2.661092758178711,0.636962890625,-0.6442962288856506
1696965597468260400,3.37526025390625,-3.6076645851135254,1.0962836742401123,-0.4328591227531433
1696965597478274600,3.385274658203125,-2.1635985374450684,0.30078649520874023,-0.36334776878356934
1696965597488288500,3.39528857421875,-3.6426773071289062,1.2477660179138184,-0.12674480676651
1696965597498302700,3.405302734375,-2.3562440872192383,0.841672420501709,-0.5136011838912964
1696965597508317200,3.415317138671875,-3.587254047393799,1.3704614639282227,-0.9985220432281494
1696965597518331400,3.425331298828125,-4.060510158538818,0.5479698181152344,-0.9505752921104431
1696965597528345600,3.435345703125,-3.7010750770568848,1.212134838104248,-0.16294503211975098
1696965597538359800,3.44535986328125,-3.854231834411621,0.29254698753356934,-0.18874770402908325
1696965597548374000,3.4553740234375,-3.8033957481384277,-0.041033029556274414,-0.3471601605415344
1696965597558388000,3.465387939453125,-3.1929574012756348,-0.19273924827575684,-0.22581124305725098
1696965597568402000,3.47540185546875,-3.057884693145752,-0.11206865310668945,-0.3193645477294922
1696965597578416000,3.485416015625,-3.478091239929199,0.00734710693359375,-0.27778005599975586
1696965597588430000,3.49543017578125,-2.8661227226257324,0.033606529235839844,-0.16237860918045044
1696965597598444300,3.5054443359375,-4.066735744476318,-0.4178858995437622,-0.43543291091918945
1696965597608458200,3.515458251953125,-3.009336471557617,-0.08124947547912598,-0.3260243535041809
1696965597618472400,3.525472412109375,-3.6745033264160156,-0.31814706325531006,-0.23935788869857788
1696965597628486400,3.535486328125,-2.6574106216430664,0.09792160987854004,-0.16575336456298828
1696965597638500400,3.545500244140625,-2.4984374046325684,0.38605785369873047,0.004533350467681885
1696965597648514600,3.5555146484375,-2.1339659690856934,0.5305659770965576,0.09706580638885498
1696965597658528500,3.565528564453125,-1.7327208518981934,0.7440837621688843,0.30820584297180176
1696965597668542700,3.575542724609375,-1.3656091690063477,2.3555548191070557,1.1672894954681396
1696965597678556700,3.585556640625,-1.9260554313659668,5.101532936096191,3.1070449352264404
1696965597688571000,3.59557080078125,0.6794519424438477,2.676694393157959,4.297801971435547
1696965597698584800,3.605584716796875,0.017152786254882812,0.08352434635162354,2.347426414489746
1696965597708598800,3.615598876953125,-0.5691614151000977,-0.47389328479766846,1.491003155708313
1696965597718613000,3.625613037109375,0.7458763122558594,0.02111637592315674,1.1075743436813354
1696965597728627000,3.635626953125,1.3574228286743164,-0.6990853548049927,0.4700181484222412
1696965597738641200,3.64564111328125,1.727560043334961,-0.28504669666290283,0.9992637634277344
1696965597748655000,3.655655029296875,0.6186914443969727,-0.7716231346130371,0.7952865362167358
1696965597758669300,3.66566943359375,2.0394582748413086,-0.4149435758590698,0.6508280038833618
1696965597768683300,3.675683349609375,2.146270751953125,-0.46727097034454346,0.729989767074585
1696965597778697500,3.685697509765625,1.9054498672485352,-0.9781391620635986,0.3858546018600464
1696965597788711400,3.69571142578125,2.6455039978027344,-0.3054492473602295,0.3367652893066406
1696965597798725400,3.705725341796875,2.270496368408203,-0.7914268970489502,0.3261207342147827
1696965597808739600,3.715739501953125,3.5393505096435547,-0.24984359741210938,0.601847231388092
1696965597818753500,3.72575341796875,1.7722034454345703,-0.48772525787353516,1.0619361400604248
1696965597828767700,3.735767822265625,3.2538042068481445,-1.0739316940307617,0.9266538023948669
1696965597838781700,3.74578173828125,3.6033716201782227,0.06723308563232422,1.3042712211608887
1696965597848796000,3.7557958984375,2.6154518127441406,-0.9466567039489746,0.8453773260116577
1696965597858809900,3.765809814453125,4.338598251342773,-0.693717360496521,0.38444364070892334
1696965597868823800,3.77582373046875,2.0262603759765625,-0.7799481153488159,0.3484318256378174
1696965597878838000,3.785838134765625,4.592964172363281,-1.0852800607681274,-0.023799479007720947
1696965597888852000,3.79585205078125,3.287639617919922,-0.3282451629638672,-0.21408170461654663
1696965597898866200,3.8058662109375,1.7289199829101562,-1.8647847175598145,-0.4806327819824219
1696965597908880100,3.815880126953125,5.647605895996094,-1.1227079629898071,-1.831102967262268
1696965597918894300,3.825894287109375,1.655522346496582,-1.1694175004959106,-1.5736322402954102
1696965597928908300,3.835908203125,4.225139617919922,-1.8858410120010376,-1.913677453994751
1696965597938922500,3.845922607421875,3.934551239013672,-0.7251259088516235,-1.3919267654418945
1696965597948936400,3.8559365234375,1.9793224334716797,-1.425630807876587,-0.16870301961898804
1696965597958950700,3.86595068359375,3.816847801208496,-1.1864538192749023,0.11362266540527344
1696965597968964900,3.87596484375,2.926786422729492,-0.5950709581375122,0.8387114405632019
1696965597978978800,3.885978759765625,1.6386890411376953,-1.28842294216156,0.6757137775421143
1696965597988993000,3.895992919921875,4.303166389465332,-1.0400346517562866,-0.7177346348762512
1696965597999007200,3.90600732421875,0.47395801544189453,-1.128721833229065,-0.13192027807235718
1696965598009021200,3.916021240234375,2.025782585144043,-1.7018342018127441,-0.6289613246917725
1696965598019035400,3.926035400390625,3.571621894836426,-0.7774311304092407,-0.5544378757476807
1696965598029049600,3.936049560546875,-0.5132331848144531,-1.3579668998718262,0.16588836908340454
1696965598039063600,3.9460634765625,2.745856285095215,-1.6399123668670654,-0.9002246260643005
1696965598049077800,3.956077880859375,0.992645263671875,-1.08781099319458,-0.805210530757904
1696965598059091700,3.966091796875,-0.0662698745727539,-0.9455760717391968,-0.30342113971710205
1696965598069106000,3.97610595703125,2.1108531951904297,-1.3306082487106323,-0.5724998116493225
1696965598079120100,3.9861201171875,0.8520622253417969,-0.8013520240783691,0.23707449436187744
1696965598089134000,3.996134033203125,-0.2691326141357422,-1.7054476737976074,0.15932738780975342
1696965598099148300,4.006148193359375,2.2852096557617188,-0.879448652267456,-0.27447980642318726
1696965598109162500,4.01616259765625,-0.665898323059082,-1.1250085830688477,-0.0692671537399292
1696965598119176400,4.026176513671875,0.5336647033691406,-1.5812907218933105,-0.4351491332054138
1696965598129190700,4.036190673828125,1.1176376342773438,-1.1386022567749023,-0.08305764198303223
1696965598139204900,4.046204833984375,-0.4734029769897461,-1.097083330154419,0.024104833602905273
1696965598149218800,4.05621875,0.5336093902587891,-1.6128605604171753,-0.25542277097702026
1696965598159233000,4.06623291015625,-0.33036231994628906,-1.099639892578125,-0.057575106620788574
1696965598169247000,4.0762470703125,-0.4655580520629883,-1.0124027729034424,-0.04092848300933838
1696965598179261200,4.08626123046875,-0.5149526596069336,-0.9465839862823486,0.13302713632583618
1696965598189275400,4.096275390625,-0.5351495742797852,-0.7786126136779785,-0.10975897312164307
1696965598199289300,4.106289306640625,-1.673583984375,-1.4202734231948853,-0.3331255316734314
1696965598209303600,4.116303466796875,-0.8454513549804688,-0.927714467048645,-0.45718976855278015
1696965598219317800,4.12631787109375,-1.1706047058105469,-0.7579097151756287,-0.7678238749504089
1696965598229331700,4.136331787109375,-1.6384735107421875,-1.1219912767410278,-0.5325788855552673
1696965598239346000,4.146345947265625,-1.063385009765625,-0.8412762880325317,-0.7387841939926147
1696965598249360100,4.156360107421875,-1.4162445068359375,-0.9155160784721375,-0.33171188831329346
1696965598259374000,4.1663740234375,-1.6394529342651367,-1.2045228481292725,-0.446330189704895
1696965598269388300,4.17638818359375,-1.1210546493530273,-1.0734344720840454,-0.3003954589366913
1696965598279402200,4.18640234375,-1.167647361755371,-1.1929408311843872,-0.2842050790786743
1696965598289416400,4.19641650390625,-1.9309325218200684,-1.0827592611312866,-0.3398478031158447
1696965598299430700,4.2064306640625,-0.7138652801513672,-1.1714136600494385,-0.4758305847644806
1696965598309444600,4.216444580078125,-1.8172245025634766,-1.0891484022140503,-0.1957499384880066
1696965598319458800,4.226458740234375,-1.4841346740722656,-1.3139857053756714,-0.38751649856567383
1696965598329473000,4.23647314453125,-1.3477210998535156,-1.0623719692230225,-0.7204698920249939
1696965598339487000,4.246487060546875,-1.2352924346923828,-1.4774177074432373,-0.5332863330841064
1696965598349501200,4.256501220703125,-1.9974102973937988,-1.2527132034301758,-0.5880264043807983
1696965598359515400,4.266515380859375,-1.3620424270629883,-1.3069181442260742,-0.37529557943344116
1696965598369529300,4.276529296875,-0.6801271438598633,-0.7810639142990112,-0.04043412208557129
1696965598379543600,4.28654345703125,-1.7487859725952148,-1.5488473176956177,-0.5966298580169678
1696965598389557500,4.2965576171875,-1.4383821487426758,-1.4892380237579346,-0.8349204659461975
1696965598399571700,4.30657177734375,-1.142622947692871,-1.1026954650878906,-0.31251639127731323
1696965598409586000,4.3165859375,-1.8940691947937012,-1.4989089965820312,-0.5924018621444702
1696965598419600000,4.326599853515625,-0.8320808410644531,-1.7902982234954834,-0.40222981572151184
1696965598429614000,4.336614013671875,-0.747187614440918,-1.771114706993103,-0.14558827877044678
1696965598439628300,4.346628173828125,-1.221695899963379,-1.0437630414962769,-0.1239439845085144
1696965598449642200,4.356642333984375,0.38886451721191406,-1.0785362720489502,0.15473335981369019
1696965598459656400,4.366656494140625,-0.29334545135498047,-1.569786548614502,-0.1286577582359314
1696965598469670400,4.37667041015625,-2.2066149711608887,-2.1523890495300293,-0.36850348114967346
1696965598479684600,4.3866845703125,0.8505487442016602,-0.8957239985466003,0.24204134941101074
1696965598489698800,4.39669873046875,-0.8640851974487305,-1.273017406463623,-0.29836606979370117
1696965598499712800,4.406712646484375,-1.0399131774902344,-1.753886103630066,-0.6390440464019775
1696965598509727000,4.41672705078125,0.122650146484375,-0.3331989645957947,-0.04971283674240112
1696965598519741200,4.4267412109375,-0.20768260955810547,-0.6318055391311646,0.06281852722167969
1696965598529755100,4.436755126953125,-0.3658609390258789,-1.204053521156311,-0.3705475926399231
1696965598539769300,4.446769287109375,-0.1690826416015625,-0.8175250291824341,0.012216448783874512
1696965598549783300,4.456783203125,0.2899904251098633,-0.8257965445518494,-0.28282493352890015
1696965598559797500,4.466797607421875,-0.6515922546386719,-0.6354537010192871,-0.07456904649734497
1696965598569811500,4.4768115234375,1.582376480102539,-0.1414632797241211,0.8084127306938171
1696965598579825400,4.486825439453125,-0.9584026336669922,-0.7149273157119751,0.2645900249481201
1696965598589839600,4.496839599609375,0.18648910522460938,-0.5907285213470459,0.23201453685760498
1696965598599853600,4.506853515625,0.7030267715454102,-0.1866624355316162,0.6079343557357788
1696965598609867800,4.51686767578125,-0.4832592010498047,-0.35066282749176025,0.48312878608703613
1696965598619881700,4.5268818359375,0.6365127563476562,-0.0008122920989990234,0.33293962478637695
1696965598629896000,4.53689599609375,-0.052459716796875,-0.2018657922744751,0.9577522873878479
1696965598639910000,4.546909912109375,-0.35346126556396484,0.07357382774353027,0.5561055541038513
1696965598649923800,4.556923828125,0.8945207595825195,0.08713686466217041,-0.016427040100097656
1696965598659938000,4.56693798828125,0.4096202850341797,0.7936216592788696,0.9064715504646301
1696965598669952000,4.576951904296875,0.7321882247924805,2.714271068572998,1.0586655139923096
1696965598679966200,4.58696630859375,0.9297389984130859,1.4514293670654297,0.17096644639968872
1696965598689980200,4.596980224609375,0.45321083068847656,1.3893007040023804,1.0215563774108887
1696965598699994400,4.606994384765625,0.7030906677246094,1.7786612510681152,0.42023617029190063
1696965598710008300,4.61700830078125,1.6218070983886719,1.2602049112319946,0.20035260915756226
1696965598720022500,4.6270224609375,0.9136886596679688,1.227820873260498,0.17786365747451782
1696965598730036500,4.637036376953125,2.2750988006591797,0.16208434104919434,-0.26097095012664795
1696965598740050400,4.647050537109375,1.0002851486206055,-0.36021971702575684,-0.3950559198856354
1696965598750064600,4.657064697265625,1.0574884414672852,-0.9409602880477905,-0.5242700576782227
1696965598760078600,4.66707861328125,1.3426856994628906,-1.2190085649490356,-0.7143210768699646
1696965598770092800,4.6770927734375,1.7705726623535156,-0.9885481595993042,-0.53000807762146
1696965598780106800,4.687106689453125,0.9496936798095703,-0.24896681308746338,-0.43951132893562317
1696965598790121000,4.697120849609375,1.936354637145996,-0.35384953022003174,-0.525050699710846
1696965598800135000,4.707135009765625,0.5311832427978516,0.22049200534820557,-0.312067449092865
1696965598810148900,4.71714892578125,1.1502857208251953,-0.04295659065246582,-0.3973035216331482
1696965598820163000,4.7271630859375,1.5916690826416016,-0.1594243049621582,-0.1001463532447815
1696965598830177000,4.737177001953125,0.0674123764038086,0.47699522972106934,0.14334428310394287
1696965598840191200,4.747191162109375,1.4997549057006836,0.13879382610321045,0.060864269733428955
1696965598850205200,4.757205078125,1.0032672882080078,0.18134212493896484,0.13732391595840454
1696965598860219400,4.767219482421875,0.40214061737060547,0.030472636222839355,0.026699841022491455
1696965598870233300,4.7772333984375,0.9920787811279297,-0.2676624059677124,0.06449967622756958
1696965598880247300,4.787247314453125,-0.6698598861694336,-0.08814632892608643,0.21215826272964478
1696965598890261500,4.797261474609375,0.7159280776977539,-0.7521147727966309,0.1515030860900879
1696965598900275500,4.807275390625,0.13452720642089844,-0.5755850076675415,0.3532560467720032
1696965598910289700,4.81728955078125,-0.4358787536621094,-0.23639845848083496,0.4624828100204468
1696965598920303600,4.8273037109375,0.4616565704345703,0.0982656478881836,0.6307987570762634
1696965598930317800,4.83731787109375,-0.4727907180786133,0.3717721700668335,0.6107770204544067
1696965598940331800,4.847331787109375,-1.266648292541504,0.05082380771636963,0.31929564476013184
1696965598950345700,4.857345703125,0.6658773422241211,-0.4584512710571289,0.29266345500946045
1696965598960360000,4.86735986328125,-1.0384187698364258,-0.17794013023376465,0.5620307326316833
1696965598970374100,4.8773740234375,-0.1099863052368164,-0.6056641340255737,0.3243911862373352
1696965598980388000,4.88738818359375,-0.40226173400878906,-0.960718035697937,0.20806866884231567
1696965598990402300,4.89740234375,-0.6790428161621094,-1.0923711061477661,0.10038703680038452
1696965599000416300,4.907416259765625,0.0190887451171875,-1.369246244430542,-0.03153449296951294
1696965599010430500,4.917430419921875,-0.20022201538085938,-1.5258150100708008,-0.34713214635849
1696965599020444700,4.927444580078125,-0.5155544281005859,-1.5211749076843262,-0.4728105068206787
1696965599030458600,4.937458740234375,0.37806224822998047,-1.38271164894104,-0.35993456840515137
1696965599040472800,4.947472900390625,-0.16928577423095703,-0.536462664604187,0.022329866886138916
1696965599050487000,4.957487060546875,-0.4430818557739258,-0.4201723337173462,0.033135414123535156
1696965599060501000,4.9675009765625,0.10104179382324219,-0.8704296350479126,0.10475176572799683
1696965599070515200,4.97751513671875,-0.1149740219116211,-1.05812406539917,-0.02130603790283203
1696965599080529200,4.987529052734375,-1.0048112869262695,-1.3434031009674072,-0.1633344292640686
1696965599090543400,4.99754345703125,0.9616680145263672,-2.009974718093872,-0.8552984595298767
1696965599100557600,5.0075576171875,-1.2773704528808594,-1.7288539409637451,-0.8253017067909241
1696965599110571500,5.017571533203125,0.6752414703369141,-1.8920713663101196,-0.7918922305107117
1696965599120585700,5.027585693359375,0.16787338256835938,-0.6749491691589355,0.03329664468765259
1696965599130600000,5.037599853515625,-1.0943832397460938,-0.6852712631225586,0.1192854642868042
1696965599140614000,5.04761376953125,0.7054824829101562,-1.3377752304077148,-0.012184619903564453
1696965599150628000,5.057628173828125,-0.7959690093994141,-0.6200958490371704,0.13503605127334595
1696965599160642300,5.067642333984375,-0.3974180221557617,-1.0324078798294067,0.005635321140289307
1696965599170656300,5.07765625,0.3501596450805664,-0.8277171850204468,0.009347915649414062
1696965599180670500,5.08767041015625,-1.4042377471923828,-0.7399629354476929,-0.0019467473030090332
1696965599190684400,5.097684326171875,0.46837615966796875,-1.1450343132019043,-0.27295058965682983
1696965599200698600,5.10769873046875,-0.6979084014892578,-0.39916694164276123,-0.12063664197921753
1696965599210712800,5.117712890625,0.002010345458984375,-0.9046218395233154,-0.16747695207595825
1696965599220726800,5.127726806640625,-0.3458843231201172,-0.7945019006729126,-0.4183766841888428
1696965599230741000,5.137740966796875,0.24336910247802734,-0.993518590927124,-0.6901987195014954
1696965599240755200,5.147755126953125,-0.11939144134521484,-0.8203138113021851,-0.24558570981025696
1696965599250769200,5.15776904296875,0.47900962829589844,-0.8090755939483643,-0.1381511092185974
1696965599260783400,5.167783447265625,1.2197399139404297,-0.3738412857055664,-0.1073307991027832
1696965599270797600,5.177797607421875,0.14730262756347656,-0.5039370059967041,0.26055216789245605
1696965599280811500,5.1878115234375,0.4581136703491211,-0.5642355680465698,-0.11516737937927246
1696965599290825700,5.19782568359375,0.6441335678100586,-0.2910623550415039,0.05881232023239136
1696965599300839700,5.207839599609375,0.6957216262817383,-0.5294179916381836,-0.13892430067062378
1696965599310854000,5.21785400390625,0.5941553115844727,-0.30768394470214844,-0.06882023811340332
1696965599320868000,5.2278681640625,0.12509632110595703,-0.2167668342590332,-0.1763671636581421
1696965599330882000,5.237882080078125,0.6795072555541992,-0.12372720241546631,0.2759920060634613
1696965599340896300,5.247896240234375,0.15300750732421875,-0.4016709327697754,-0.17741745710372925
1696965599350910500,5.257910400390625,0.3295764923095703,-0.3310469388961792,0.06606283783912659
1696965599360924400,5.26792431640625,0.9700384140014648,-0.12062978744506836,0.10872596502304077
1696965599370938600,5.277938720703125,-0.948481559753418,-0.5053216218948364,-0.2515205144882202
1696965599380952800,5.287952880859375,0.999079704284668,-0.22864282131195068,-0.04729321599006653
1696965599390966800,5.297966796875,-0.5895891189575195,-0.26918506622314453,0.1253054141998291
1696965599400981000,5.30798095703125,1.0318822860717773,-0.4264390468597412,-0.33629047870635986
1696965599410995000,5.317994873046875,-0.19363880157470703,-0.016658425331115723,0.10212051868438721
1696965599421009200,5.328009033203125,0.7385473251342773,-0.4316682815551758,0.1321638524532318
1696965599431023400,5.3380234375,-0.3524656295776367,-0.16035151481628418,-0.09927412867546082
1696965599441037300,5.348037353515625,-0.07969474792480469,-0.5972123146057129,0.13749411702156067
1696965599451051500,5.358051513671875,0.9339494705200195,-0.3151897192001343,0.19794034957885742
1696965599461065700,5.368065673828125,-0.33011913299560547,-0.4721637964248657,-0.16866642236709595
1696965599471079700,5.37807958984375,-0.2814655303955078,-0.4613933563232422,0.3517932593822479
1696965599481094000,5.388093994140625,0.6127099990844727,-0.05844283103942871,0.0860738456249237
1696965599491108000,5.398108154296875,-0.8175849914550781,-0.48907625675201416,0.09458166360855103
1696965599501122000,5.4081220703125,-0.1086578369140625,-0.7155282497406006,0.15423548221588135
1696965599511136300,5.41813623046875,-0.2324533462524414,-0.3467291593551636,-0.16212069988250732
1696965599521150200,5.428150146484375,-0.2704782485961914,-0.4636261463165283,0.08395218849182129
1696965599531164400,5.438164306640625,0.1652231216430664,-0.3868563175201416,-0.41325944662094116
1696965599541178400,5.448178466796875,-0.47103309631347656,-0.26490581035614014,0.08464369177818298
1696965599551192600,5.458192626953125,0.2375640869140625,-0.27923154830932617,-0.21235200762748718
1696965599561206500,5.46820654296875,-1.129934310913086,-0.30132782459259033,-0.041075050830841064
1696965599571220700,5.478220703125,0.5310468673706055,-0.5146516561508179,-0.217990905046463
1696965599581234700,5.488234619140625,-1.0759391784667969,-0.360370397567749,-0.1571323275566101
1696965599591249000,5.498248779296875,0.5035066604614258,-0.17098617553710938,-0.22910307347774506
1696965599601262800,5.508262939453125,-0.5870771408081055,-0.08083713054656982,-0.11124798655509949
1696965599611277000,5.518277099609375,0.1355581283569336,-0.4075580835342407,-0.03924065828323364
1696965599621291000,5.528291015625,-0.2085409164428711,-0.3648494482040405,0.025481849908828735
1696965599631305000,5.538304931640625,-0.6434097290039062,-0.6718630790710449,-0.0783848762512207
1696965599641319200,5.548319091796875,0.792057991027832,-0.43164098262786865,-0.13756069540977478
1696965599651333000,5.5583330078125,-1.1120681762695312,-0.1333235502243042,-0.4151988625526428
1696965599661347300,5.568347412109375,0.9885044097900391,-0.5186452865600586,0.0865710973739624
1696965599671361300,5.578361328125,-0.07950115203857422,-0.11165571212768555,-0.17837688326835632
1696965599681375500,5.58837548828125,-0.18448829650878906,-0.836958646774292,0.08323195576667786
1696965599691389400,5.598389404296875,0.6905059814453125,-0.3037989139556885,0.24876028299331665
1696965599701403400,5.6084033203125,-0.10441780090332031,-0.5184017419815063,-0.09245359897613525
1696965599711417600,5.61841748046875,0.8754940032958984,-0.3062403202056885,0.37981486320495605
1696965599721431600,5.628431640625,0.6393842697143555,-0.24469494819641113,0.37821730971336365
1696965599731445800,5.63844580078125,-0.1410236358642578,-0.9000630378723145,-0.12855494022369385
1696965599741459700,5.648459716796875,0.22736167907714844,-0.2810283899307251,0.6009917855262756
1696965599751474000,5.658473876953125,1.0299997329711914,-0.5507478713989258,-0.02439802885055542
1696965599761488000,5.66848779296875,-1.2613410949707031,-0.3357781171798706,0.14512699842453003
1696965599771501800,5.678501708984375,1.6091747283935547,-0.7275259494781494,-0.07235634326934814
1696965599781516000,5.68851611328125,-1.194371223449707,-0.5870965719223022,-0.32931438088417053
1696965599791530000,5.698530029296875,0.6005268096923828,-0.3361687660217285,0.14087486267089844
1696965599801544200,5.708544189453125,-0.10724544525146484,-0.4506995677947998,-0.18724602460861206
1696965599811558100,5.71855810546875,0.03630638122558594,-0.30078649520874023,0.24780809879302979
1696965599821572400,5.728572265625,0.3525543212890625,-0.634607195854187,0.11044257879257202
1696965599831586300,5.73858642578125,-0.3173542022705078,-0.2940157651901245,0.1391924023628235
1696965599841600300,5.748600341796875,0.5921220779418945,-0.5599082708358765,-0.0966234803199768
1696965599851614500,5.758614501953125,-0.3219318389892578,-0.2345585823059082,0.5239806175231934
1696965599861628400,5.76862841796875,1.2179698944091797,-0.2649010419845581,0.5914449095726013
1696965599871642600,5.778642578125,-0.05110645294189453,-0.26693475246429443,0.24659186601638794
1696965599881656600,5.788656494140625,0.44612598419189453,-0.420634388923645,0.215251624584198
1696965599891670800,5.7986708984375,-0.7589702606201172,-0.35018622875213623,0.3972501754760742
1696965599901684700,5.808684814453125,1.4553070068359375,-0.2584313154220581,0.24386006593704224
1696965599911698700,5.81869873046875,-1.0661487579345703,-0.4916146993637085,-0.0336819589138031
1696965599921713000,5.828712890625,0.728123664855957,-0.17314767837524414,0.5440860986709595
1696965599931726800,5.838726806640625,-0.6875667572021484,-0.33994829654693604,0.07556462287902832
1696965599941741000,5.848740966796875,-0.2802772521972656,-0.29342472553253174,0.0030848681926727295
1696965599951755000,5.858755126953125,0.0030422210693359375,-0.43053674697875977,0.02684035897254944
1696965599961769200,5.868769287109375,-1.3355216979980469,-0.30355167388916016,-0.26605474948883057
1696965599971783200,5.878783203125,0.2547149658203125,-0.28981804847717285,0.0823613703250885
1696965599981797000,5.888797119140625,-0.9215669631958008,-0.39006006717681885,-0.24051733314990997
1696965599991811300,5.898811279296875,-0.41737937927246094,-0.480002760887146,-0.32737869024276733
1696965600001825500,5.908825439453125,0.4677543640136719,-0.2538895606994629,-0.08813926577568054
1696965600011839500,5.918839599609375,0.07977104187011719,-0.7184722423553467,-0.5374811291694641
1696965600021853700,5.928853759765625,-0.030271530151367188,-0.23337769508361816,-0.25285229086875916
1696965600031867600,5.93886767578125,0.32828807830810547,-0.7347869873046875,0.4019220471382141
1696965600041881900,5.9488818359375,0.7576055526733398,-0.054059624671936035,0.08880582451820374
1696965600051896000,5.95889599609375,0.7508926391601562,-0.32623159885406494,0.22290027141571045
1696965600061910000,5.968909912109375,0.9164676666259766,-0.48407697677612305,0.1308574676513672
1696965600071924200,5.97892431640625,0.6320896148681641,-0.33911871910095215,0.04582071304321289
1696965600081938400,5.9889384765625,0.16706466674804688,-0.7168736457824707,0.14715361595153809
1696965600091952400,5.998952392578125,0.5439167022705078,-0.5036109685897827,0.05275830626487732
1696965600101966600,6.008966552734375,0.44709205627441406,-0.3647269010543823,0.4022873044013977
1696965600111980800,6.018980712890625,0.6035432815551758,-0.6171512603759766,-0.39389458298683167
1696965600121994800,6.028994873046875,-0.5207576751708984,-0.511736273765564,0.05500796437263489
1696965600132009000,6.039009033203125,0.4600229263305664,-0.8395172357559204,-0.2441689670085907
1696965600142023000,6.04902294921875,-0.5585870742797852,-0.3807239532470703,-0.040626347064971924
1696965600152037000,6.059037109375,-0.2754983901977539,-0.7462114095687866,-0.07835444808006287
1696965600162051300,6.06905126953125,0.7960243225097656,-0.44951581954956055,-0.15199309587478638
1696965600172065300,6.079065185546875,-0.5630559921264648,-0.39134252071380615,0.08550024032592773
1696965600182079500,6.08907958984375,0.4228801727294922,-0.7439192533493042,0.05994904041290283
1696965600192093700,6.09909375,-0.8921689987182617,-0.3508070707321167,0.11941608786582947
1696965600202107600,6.109107666015625,0.2663116455078125,-0.3529548645019531,0.09488460421562195
1696965600212121900,6.119121826171875,0.08902454376220703,-0.4387338161468506,-0.026770085096359253
1696965600222136000,6.129135986328125,-0.7334489822387695,-0.37375593185424805,0.011294126510620117
1696965600232150000,6.13914990234375,0.15253829956054688,-0.6546045541763306,0.019430845975875854
1696965600242164200,6.149164306640625,-1.2339982986450195,-0.3978404998779297,0.30053651332855225
1696965600252178200,6.15917822265625,0.4366464614868164,-0.538390040397644,-0.024908125400543213
1696965600262192400,6.1691923828125,-1.4569807052612305,-0.27808427810668945,0.08826619386672974
1696965600272206600,6.17920654296875,-0.2830085754394531,-0.7185573577880859,-0.12217551469802856
1696965600282220500,6.189220458984375,-0.3398323059082031,-0.5815541744232178,-0.2468312382698059
1696965600292234800,6.19923486328125,-0.6449785232543945,-0.8697882890701294,-0.1391369104385376
1696965600302249000,6.2092490234375,-0.34749317169189453,-0.6257150173187256,-0.08694452047348022
1696965600312263000,6.219262939453125,-0.21751976013183594,-0.49423468112945557,-0.13854700326919556
1696965600322277000,6.229277099609375,-0.5806102752685547,-0.5659754276275635,-0.011300086975097656
1696965600332291300,6.239291259765625,0.2668342590332031,-0.8505303859710693,-0.22595781087875366
1696965600342305300,6.24930517578125,-0.011292457580566406,-0.6546006202697754,0.011059045791625977
1696965600352319500,6.259319580078125,0.16107463836669922,-0.9587570428848267,-0.19060605764389038
1696965600362333400,6.26933349609375,0.4184846878051758,-0.2703331708908081,0.06983566284179688
1696965600372347600,6.27934765625,0.43706607818603516,-0.7442647218704224,-0.002428412437438965
1696965600382361900,6.28936181640625,-0.19501209259033203,-0.4297746419906616,0.042639076709747314
1696965600392375800,6.299375732421875,1.3878183364868164,-0.7172319889068604,0.12926936149597168
1696965600402390000,6.30939013671875,-1.0001001358032227,-0.7874935865402222,0.16826581954956055
1696965600412404200,6.319404296875,2.343008041381836,-0.3267167806625366,0.21374857425689697
1696965600422418200,6.329418212890625,-0.6297111511230469,-0.7030450105667114,0.12345236539840698
1696965600432432400,6.339432373046875,0.13164424896240234,-0.37069737911224365,0.11266088485717773
1696965600442446600,6.349446533203125,1.2120933532714844,-0.1966264247894287,0.257662832736969
1696965600452460500,6.35946044921875,-0.28164005279541016,-0.2552154064178467,0.21274107694625854
1696965600462474800,6.369474853515625,1.1006813049316406,-0.33827638626098633,0.13375550508499146
1696965600472488700,6.37948876953125,-0.19184398651123047,-0.14476490020751953,0.44327306747436523
1696965600482503000,6.3895029296875,0.5497751235961914,-0.1657869815826416,0.4843710660934448
1696965600492517000,6.39951708984375,0.5535717010498047,0.13792729377746582,0.6696022152900696
1696965600502531000,6.409531005859375,0.6528205871582031,-0.21385622024536133,0.6127588152885437
1696965600512545300,6.419545166015625,0.7232131958007812,-0.10598444938659668,0.6027264595031738
1696965600522559500,6.4295595703125,-0.07636356353759766,-0.0756678581237793,0.6383001208305359
1696965600532573400,6.439573486328125,0.9560260772705078,-0.11038494110107422,0.5461456179618835
1696965600542587600,6.449587646484375,0.6577615737915039,-0.23350191116333008,0.7966057658195496
1696965600552601600,6.4596015625,-0.2281179428100586,-0.8987411260604858,0.4951990246772766
1696965600562615800,6.46961572265625,-0.1651630401611328,-0.5457679033279419,0.6886398792266846
1696965600572630000,6.479630126953125,-0.6141376495361328,-0.36891210079193115,0.4880518913269043
1696965600582644000,6.48964404296875,-0.8467168807983398,-0.26930010318756104,0.4236360788345337
1696965600592658200,6.499658203125,0.9280509948730469,0.08033442497253418,0.48121756315231323
1696965600602672400,6.50967236328125,-0.6794948577880859,-0.2536231279373169,0.34357285499572754
1696965600612686300,6.519686279296875,0.6070451736450195,-0.32719528675079346,0.41603487730026245
1696965600622700500,6.529700439453125,-0.2013406753540039,-0.5323476791381836,0.24377191066741943
1696965600632714500,6.539714599609375,-1.219583511352539,-0.1789391040802002,0.22042590379714966
1696965600642728400,6.549728515625,1.5697669982910156,-0.2998378276824951,0.4088268280029297
1696965600652742700,6.55974267578125,-1.7030792236328125,-0.01306140422821045,0.019884586334228516
1696965600662756600,6.569756591796875,-0.24653148651123047,-0.44096922874450684,0.07100749015808105
1696965600672770800,6.579770751953125,0.1458110809326172,-0.26794111728668213,-0.18880611658096313
1696965600682784800,6.58978466796875,-1.5223989486694336,-0.2582167387008667,-0.426120787858963
1696965600692799000,6.599799072265625,0.25839805603027344,-0.6935234069824219,-0.4067012667655945
1696965600702813000,6.60981298828125,-0.25319385528564453,-0.3688986301422119,-0.8277840614318848
1696965600712827000,6.619826904296875,-1.113387107849121,-0.3360724449157715,-0.22150391340255737
1696965600722841000,6.629841064453125,1.3983030319213867,-0.8558427095413208,-0.9184738397598267
1696965600732855000,6.63985498046875,-0.6314992904663086,-0.2176753282546997,-0.3866021931171417
1696965600742869200,6.649869140625,0.20652389526367188,-0.6428320407867432,-0.7549147009849548
1696965600752883200,6.65988330078125,-0.29608821868896484,-0.4146651029586792,-0.11262857913970947
1696965600762897400,6.6698974609375,1.4923276901245117,-0.30555713176727295,-0.4431077837944031
1696965600772911400,6.679911376953125,-1.703627586364746,-0.739861249923706,-0.03308531641960144
1696965600782925300,6.68992529296875,2.228518486022949,-0.4351074695587158,-0.31200551986694336
1696965600792939500,6.699939453125,-0.3377857208251953,-0.20905983448028564,-0.15099334716796875
1696965600802953500,6.709953369140625,-0.3756828308105469,-0.6260677576065063,0.031818896532058716
1696965600812967700,6.7199677734375,1.8762006759643555,-0.08554339408874512,0.15355071425437927
1696965600822981600,6.729981689453125,-0.5702733993530273,-0.5221556425094604,0.30182233452796936
1696965600832995800,6.739995849609375,-0.038819313049316406,-0.5141055583953857,0.07433226704597473
1696965600843009800,6.750009765625,1.280186653137207,-0.2937312126159668,0.4461914300918579
1696965600853023700,6.760023681640625,-1.8003406524658203,-0.47673845291137695,0.30157670378685
1696965600863038000,6.770037841796875,1.1612777709960938,-0.5044575929641724,0.17445531487464905
1696965600873052000,6.780052001953125,0.42806053161621094,-0.7331756353378296,-0.1279507875442505
1696965600883066000,6.790066162109375,-1.7671804428100586,-0.4127776622772217,0.5154714584350586
1696965600893080000,6.800080078125,1.568246841430664,-1.0533571243286133,-0.18092617392539978
1696965600903094300,6.81009423828125,-0.8250160217285156,-0.04315829277038574,0.3399062752723694
1696965600913108200,6.820108154296875,1.0025901794433594,-0.7124522924423218,0.14473849534988403
1696965600923122200,6.8301220703125,-0.48130226135253906,-0.5203264951705933,0.2739625573158264
1696965600933136400,6.840136474609375,1.9476642608642578,-0.42412662506103516,0.12641501426696777
1696965600943150300,6.850150390625,-0.8809843063354492,-0.49352526664733887,0.11547103524208069
1696965600953164500,6.86016455078125,0.6931171417236328,-0.6005492210388184,0.2659855782985687
1696965600963178500,6.870178466796875,0.7447834014892578,-0.1739671230316162,0.0777428150177002
1696965600973192700,6.880192626953125,-1.259568214416504,-0.5699367523193359,0.007046937942504883
1696965600983207000,6.89020703125,1.5825300216674805,-0.2884213924407959,0.03673434257507324
1696965600993220900,6.900220947265625,-0.6669168472290039,-0.052956461906433105,-0.08246085047721863
1696965601003235000,6.910235107421875,-0.9997138977050781,-0.5836910009384155,-0.14922675490379333
1696965601013249300,6.920249267578125,0.9336957931518555,-0.07762706279754639,-0.1659189760684967
1696965601023263200,6.93026318359375,-1.2804803848266602,-0.38801872730255127,-0.3108500838279724
1696965601033277400,6.94027734375,-0.4747142791748047,-0.7057883739471436,-0.231987863779068
1696965601043291400,6.95029150390625,0.7220287322998047,-0.21664094924926758,-0.4334160089492798
1696965601053305600,6.9603056640625,-2.0322203636169434,-0.3654599189758301,-0.2854352593421936
1696965601063319800,6.97031982421875,0.4915304183959961,-0.29358649253845215,-0.3428102731704712
1696965601073333800,6.980333740234375,-0.9188718795776367,-0.10029733180999756,-0.501737117767334
1696965601083348000,6.990347900390625,-1.6189165115356445,-0.3819725513458252,-0.30330538749694824
1696965601093362200,7.000362060546875,0.21074295043945312,-0.03702116012573242,-0.19799089431762695
1696965601103376100,7.010376220703125,-1.418787956237793,-0.23082375526428223,-0.5600384473800659
1696965601113390300,7.020390380859375,-1.5159082412719727,-0.09370648860931396,-0.27900800108909607
1696965601123404500,7.030404541015625,0.041248321533203125,0.2216789722442627,-0.15244880318641663
1696965601133418500,7.04041845703125,-1.9612722396850586,0.19844448566436768,-0.16011333465576172
1696965601143432700,7.0504326171875,-0.6665506362915039,-0.3574138879776001,0.12068063020706177
1696965601153446700,7.06044677734375,-0.12513446807861328,0.14273405075073242,0.42006298899650574
1696965601163460900,7.0704609375,-0.2639780044555664,-0.12156045436859131,0.863407552242279
1696965601173475000,7.08047509765625,0.49085140228271484,-0.4562755823135376,0.8040722608566284
1696965601183489000,7.090489013671875,0.12109565734863281,-0.04057574272155762,1.2751778364181519
1696965601193503200,7.100503173828125,0.8362016677856445,-0.8085108995437622,1.1958421468734741
1696965601203517400,7.110517333984375,0.651702880859375,-0.7698856592178345,0.5877630114555359
1696965601213531400,7.120531494140625,-0.8804664611816406,-0.605021595954895,1.2028968334197998
1696965601223545600,7.130545654296875,-0.10549354553222656,-0.052872538566589355,0.46565166115760803
1696965601233559800,7.140559814453125,0.9640283584594727,0.22018086910247803,0.8608646392822266
1696965601243573800,7.15057373046875,2.1125354766845703,0.5852839946746826,0.7966880202293396
1696965601253588000,7.160587890625,-3.307983875274658,-0.7992163896560669,0.14966556429862976
1696965601263602000,7.170601806640625,0.9563655853271484,-2.153736114501953,0.9194320440292358
1696965601273616100,7.1806162109375,2.946504592895508,-0.4713941812515259,-1.2536863088607788
1696965601283630300,7.19063037109375,0.38622093200683594,-0.8907198905944824,0.30797240138053894
1696965601293644300,7.200644287109375,2.597078323364258,0.4007760286331177,-1.0669281482696533
1696965601303658500,7.210658447265625,0.3970489501953125,-1.2063562870025635,1.4170523881912231
1696965601313672700,7.220672607421875,0.6575031280517578,0.6622391939163208,0.2340991199016571
1696965601323686700,7.230686767578125,0.6086626052856445,-0.04172670841217041,-0.6105697751045227
1696965601333700900,7.240700927734375,-3.7284207344055176,-1.35288405418396,0.8844094276428223
1696965601343715000,7.250715087890625,3.7446680068969727,-1.3126710653305054,-1.4661582708358765
1696965601353729000,7.26072900390625,1.5371589660644531,-0.22597932815551758,-1.2708091735839844
1696965601363743200,7.2707431640625,0.5864791870117188,-1.5985534191131592,-1.1828904151916504
1696965601373757200,7.280757080078125,3.1177167892456055,1.3685554265975952,0.3671776056289673
1696965601383771400,7.290771484375,0.720829963684082,0.29059064388275146,-0.015986502170562744
1696965601393785600,7.30078564453125,-2.6744866371154785,-2.0160024166107178,0.3641621470451355
1696965601403799600,7.310799560546875,3.745062828063965,-1.1586897373199463,0.22300449013710022
1696965601413813800,7.320813720703125,-1.142552375793457,-1.6087749004364014,-1.65678870677948
1696965601423828000,7.330827880859375,1.1102590560913086,-0.9401242733001709,-0.36599022150039673
1696965601433842000,7.340842041015625,6.436821937561035,0.1061253547668457,-0.4428326487541199
1696965601443856100,7.350856201171875,-0.9472866058349609,-0.6430761814117432,-0.6567007303237915
1696965601453870300,7.360870361328125,1.496917724609375,-1.4923521280288696,-0.537639856338501
1696965601463884300,7.37088427734375,-0.14916229248046875,-0.8262102603912354,0.28122612833976746
1696965601473898500,7.3808984375,-2.5476112365722656,-0.9265855550765991,-0.38150835037231445
1696965601483912400,7.390912353515625,1.2012519836425781,-0.09740447998046875,-1.0937020778656006
1696965601493926700,7.4009267578125,-0.38692188262939453,-0.025429368019104004,-0.24722489714622498
1696965601503940900,7.41094091796875,-0.18493366241455078,-0.6829677820205688,-0.262160062789917
1696965601513954800,7.420954833984375,0.8441915512084961,0.15193617343902588,-0.6064320802688599
1696965601523969000,7.430968994140625,-1.8283886909484863,-0.14168334007263184,-0.15646584331989288
1696965601533983200,7.440983154296875,-0.22696399688720703,-0.5709887742996216,-0.11897124350070953
1696965601543997200,7.4509970703125,-0.7178096771240234,-0.24031686782836914,0.20027360320091248
1696965601554011400,7.461011474609375,-1.212143898010254,-0.6851701736450195,-0.10208983719348907
1696965601564025600,7.471025634765625,-1.3043012619018555,-0.8291993141174316,-0.12210623919963837
1696965601574039600,7.48103955078125,-0.22978496551513672,-0.10080599784851074,-0.051359981298446655
1696965601584053800,7.4910537109375,-1.2034568786621094,-0.3437403440475464,-0.09519071877002716
1696965601594067700,7.501067626953125,-0.11055946350097656,0.39640629291534424,-0.16376550495624542
1696965601604082000,7.51108203125,0.5403366088867188,-0.2828705310821533,0.15654000639915466
1696965601614096100,7.52109619140625,-1.8308334350585938,-0.7968136072158813,-0.6007236838340759
1696965601624110000,7.531110107421875,-0.7701444625854492,-0.4981139898300171,-0.007188022136688232
1696965601634124300,7.541124267578125,0.41753578186035156,0.08276307582855225,-0.3959405720233917
1696965601644138500,7.551138427734375,-2.2548909187316895,-0.21360933780670166,0.17118343710899353
1696965601654152400,7.56115234375,1.0098981857299805,-0.12143599987030029,-0.1116190105676651
1696965601664166700,7.571166748046875,-1.6923131942749023,-0.21886169910430908,-0.24374866485595703
1696965601674180600,7.5811806640625,-0.7707843780517578,-0.35938560962677,-0.5178653597831726
1696965601684194800,7.59119482421875,-0.4869041442871094,-0.43908393383026123,-0.7151584625244141
1696965601694209000,7.601208984375,-0.6434202194213867,-0.5126477479934692,-0.07050138711929321
1696965601704223000,7.611222900390625,2.592679023742676,-0.5435646772384644,1.4391188621520996
1696965601714237200,7.6212373046875,2.185140609741211,-0.8884289264678955,0.10530424118041992
1696965601724251400,7.63125146484375,-0.7596883773803711,-2.002143144607544,1.1596181392669678
1696965601734265300,7.641265380859375,1.802988052368164,-1.4916859865188599,0.78997802734375
1696965601744279600,7.651279541015625,0.6612443923950195,-0.5819149017333984,-0.6038001775741577
1696965601754293800,7.661293701171875,2.5180892944335938,0.9088913202285767,1.5932371616363525
1696965601764307700,7.6713076171875,-0.7751712799072266,1.0185459852218628,-0.757900059223175
1696965601774322000,7.681322021484375,-4.845094680786133,0.024851322174072266,0.39316678047180176
1696965601784336000,7.6913359375,0.533595085144043,-1.5858714580535889,-0.11233960092067719
1696965601794350000,7.70135009765625,-3.0705623626708984,-2.205106496810913,-1.9732136726379395
1696965601804364300,7.7113642578125,2.059401512145996,-0.43574023246765137,0.07752335071563721
1696965601814378200,7.721378173828125,0.7697257995605469,0.15695345401763916,0.574285626411438
1696965601824392400,7.731392333984375,-0.07400989532470703,1.709226131439209,-0.7581782341003418
1696965601834406700,7.74140673828125,2.780470848083496,-0.046382904052734375,1.1159526109695435
1696965601844420600,7.751420654296875,-1.872537612915039,-0.6238186359405518,1.3304271697998047
1696965601854434800,7.761434814453125,-2.119507312774658,-0.8233036994934082,1.2697796821594238
1696965601864449000,7.771448974609375,-5.996248722076416,-2.580228328704834,0.7639064788818359
1696965601874463000,7.781462890625,6.706989288330078,-0.684346079826355,0.06549552083015442
1696965601884477200,7.791477294921875,0.7795562744140625,1.1030529737472534,0.008387982845306396
1696965601894491100,7.8014912109375,4.032115936279297,-1.1440808773040771,0.04923731088638306
1696965601904505300,7.81150537109375,1.4568367004394531,-0.8624870777130127,1.308109998703003
1696965601914519600,7.82151953125,0.18274688720703125,-1.0256088972091675,1.6070984601974487
1696965601924533500,7.831533447265625,-0.7779655456542969,-1.9591343402862549,1.1677839756011963
1696965601934547700,7.841547607421875,0.562774658203125,-2.0757968425750732,0.7022655010223389
1696965601944562000,7.85156201171875,2.0530576705932617,-0.09927582740783691,0.8429189920425415
1696965601954576000,7.861575927734375,2.316521644592285,0.5036300420761108,0.270407110452652
1696965601964590000,7.871590087890625,1.580946922302246,0.9878815412521362,0.4629201889038086
1696965601974604300,7.881604248046875,0.2685699462890625,-3.1436991691589355,-1.022624135017395
1696965601984618200,7.8916181640625,-2.32565975189209,-1.5875715017318726,-0.664574384689331
1696965601994632400,7.901632568359375,-0.3164510726928711,-0.46395885944366455,-0.6244461536407471
1696965602004646400,7.911646484375,-1.350834846496582,0.8203034400939941,-0.8958324193954468
1696965602014660600,7.92166064453125,-0.4006671905517578,-0.9496508836746216,0.617403507232666
1696965602024674600,7.931674560546875,1.4176902770996094,-1.7546616792678833,0.28562110662460327
1696965602034688800,7.941688720703125,-4.811609268188477,0.029570460319519043,-0.401995450258255
1696965602044702700,7.95170263671875,3.7738218307495117,1.2752561569213867,-0.8219819068908691
1696965602054716700,7.961716552734375,-2.125840187072754,0.2553253173828125,-1.0665138959884644
1696965602064731000,7.97173095703125,-4.20487642288208,-0.7547270059585571,-0.9724681973457336
1696965602074744800,7.981744873046875,-1.5604248046875,-0.13102149963378906,-1.1252107620239258
1696965602084759000,7.991759033203125,2.1995506286621094,0.7633906602859497,-0.38023948669433594
1696965602094773000,8.00177294921875,-0.7249994277954102,-0.0470196008682251,0.5904264450073242
1696965602104787200,8.011787109375,-2.373025417327881,-0.9634995460510254,1.1849286556243896
1696965602114801200,8.02180126953125,0.4764251708984375,0.6816691160202026,-0.7599689364433289
1696965602124815000,8.031815185546876,0.5845680236816406,0.25701773166656494,-0.5662745833396912
1696965602134829300,8.041829345703125,-1.7015666961669922,-0.04777204990386963,-0.12254031002521515
1696965602144843300,8.05184326171875,-0.9295778274536133,-0.5447283983230591,1.2160251140594482
1696965602154857500,8.061857421875,1.4851207733154297,-0.06015121936798096,-0.15835818648338318
1696965602164871400,8.071871337890625,0.41951847076416016,0.4135909080505371,-1.0006935596466064
1696965602174885600,8.0818857421875,-0.9402084350585938,-0.8352168798446655,0.6046233177185059
1696965602184899600,8.091899658203126,0.7428493499755859,-0.7575514316558838,0.440792977809906
1696965602194913500,8.10191357421875,-0.7034368515014648,-0.2465440034866333,-0.82332843542099
1696965602204927700,8.111927734375,-0.8608016967773438,0.2984210252761841,-0.9723851680755615
1696965602214941700,8.121941650390625,-0.25339508056640625,-0.45111286640167236,0.5877063274383545
1696965602224956000,8.131955810546875,0.32903194427490234,-0.8241372108459473,-0.1489868462085724
1696965602234969900,8.141969970703125,-1.8474106788635254,-0.7327593564987183,-0.6377147436141968
1696965602244984000,8.151984130859375,-0.39618587493896484,-0.5203797817230225,-0.09378665685653687
1696965602254998000,8.161998046875,-0.22928237915039062,-0.12278330326080322,-0.06037743389606476
1696965602265012000,8.172011962890625,0.36751556396484375,-0.7307878732681274,-0.2500048875808716
1696965602275026200,8.182026123046874,-0.5330295562744141,-0.49108028411865234,-0.49681562185287476
1696965602285040000,8.1920400390625,1.0201654434204102,-0.6862479448318481,-0.1424424797296524
1696965602295054300,8.202054443359375,0.2664794921875,-0.21476948261260986,-0.1264399290084839
1696965602305068300,8.212068359375,0.05452728271484375,-1.4113930463790894,-0.28426846861839294
1696965602315082500,8.22208251953125,-0.03253459930419922,-0.31153738498687744,-0.3821783661842346
1696965602325096700,8.2320966796875,1.3667669296264648,-0.39433109760284424,-0.6055791974067688
1696965602335110700,8.242110595703124,1.5252180099487305,-0.5559611320495605,-0.31940746307373047
1696965602345124900,8.252124755859375,-0.09930610656738281,-0.7694377899169922,-0.42721864581108093
1696965602355139000,8.26213916015625,0.7366971969604492,-0.5770094394683838,-0.06797559559345245
1696965602365153000,8.272153076171875,0.18008804321289062,-0.5293684005737305,-0.23246616125106812
1696965602375167200,8.282167236328124,-0.4036293029785156,-0.8893970251083374,-0.9167109727859497
1696965602385181200,8.29218115234375,-0.03978252410888672,-0.4873237609863281,-0.27376991510391235
1696965602395195400,8.3021953125,0.8442420959472656,-0.21207594871520996,-0.2753227949142456
1696965602405209600,8.312209716796875,-0.5006093978881836,-0.7665518522262573,-0.8041860461235046
1696965602415223600,8.3222236328125,-0.8530960083007812,-0.6768653392791748,-0.6433026790618896
1696965602425237800,8.33223779296875,0.014224052429199219,-0.3556244373321533,-0.08839964866638184
1696965602435252000,8.342251953125,-0.07680511474609375,-0.5770944356918335,0.612892210483551
1696965602445266000,8.352265869140625,1.161184310913086,-2.0618104934692383,-0.10370326042175293
1696965602455280000,8.362280029296874,-0.37572193145751953,-1.6931405067443848,0.4652615189552307
1696965602465294300,8.37229443359375,0.4848442077636719,0.007677793502807617,1.8088001012802124
1696965602475308300,8.382308349609374,1.9364280700683594,0.4470837116241455,1.6584219932556152
1696965602485322500,8.392322509765625,-0.38655567169189453,0.33348000049591064,0.7960987091064453
1696965602495336400,8.40233642578125,0.12555408477783203,-0.09648275375366211,-0.5115675926208496
1696965602505350700,8.4123505859375,-4.610954284667969,-1.3603456020355225,-1.7570770978927612
1696965602515364900,8.42236474609375,0.35063743591308594,-0.6853009462356567,-1.1181591749191284
1696965602525378800,8.43237890625,-1.6186399459838867,0.26059162616729736,-1.343337059020996
1696965602535393000,8.44239306640625,0.6497278213500977,-0.5158462524414062,1.6068592071533203
1696965602545407200,8.4524072265625,2.2254257202148438,-0.7591584920883179,2.255920171737671
1696965602555421200,8.462421142578124,-0.31319713592529297,-0.8274405002593994,1.87281334400177
1696965602565435400,8.472435302734375,-0.3888826370239258,0.19212007522583008,0.43704742193222046
1696965602575449600,8.48244970703125,1.1455755233764648,0.35297441482543945,-0.004628598690032959
1696965602585463600,8.492463623046875,1.5442819595336914,-0.8535510301589966,-0.2179224193096161
1696965602595477800,8.502477783203124,-1.0786066055297852,-1.9736354351043701,-0.03893670439720154
1696965602605491700,8.51249169921875,1.265385627746582,1.2452361583709717,0.39497053623199463
1696965602615506000,8.522505859375,2.7723817825317383,-0.230523943901062,1.3395915031433105
1696965602625520000,8.53252001953125,0.05560493469238281,-1.9547306299209595,0.3662596642971039
1696965602635534000,8.5425341796875,-0.4131612777709961,-1.1456530094146729,-0.19319570064544678
1696965602645548300,8.55254833984375,0.48126983642578125,1.1718820333480835,-0.07052111625671387
1696965602655562500,8.5625625,1.6937971115112305,-0.5320302248001099,-0.02787262201309204
1696965602665576400,8.572576416015625,0.5040569305419922,-1.3312761783599854,-0.0027910321950912476
1696965602675590700,8.582590576171874,-0.09963798522949219,-0.6521604061126709,0.12308593094348907
1696965602685604900,8.59260498046875,0.7842063903808594,0.609859824180603,-0.04126088321208954
1696965602695618800,8.602618896484374,0.9205417633056641,-0.48376429080963135,0.1931319236755371
1696965602705633000,8.612633056640625,-0.8982534408569336,-1.1527546644210815,0.34165817499160767
1696965602715647000,8.62264697265625,0.37447547912597656,0.12203621864318848,-0.15465794503688812
1696965602725661200,8.6326611328125,0.49265480041503906,0.04327058792114258,-0.42151182889938354
1696965602735675400,8.64267529296875,-0.46504688262939453,-0.06603336334228516,-0.44053083658218384
1696965602745689300,8.652689453125,-0.3305807113647461,-0.7304718494415283,0.06934060156345367
1696965602755703600,8.66270361328125,-1.076035499572754,-0.12527692317962646,-0.29339396953582764
1696965602765717800,8.6727177734375,-0.6627368927001953,-0.34148919582366943,-0.5663825869560242
1696965602775731700,8.682731689453124,-0.7860574722290039,-0.3726527690887451,-0.4811875820159912
1696965602785746000,8.692745849609375,-0.7031841278076172,-0.7222750186920166,-0.2863544225692749
1696965602795760000,8.702760009765624,0.229888916015625,-0.19449889659881592,-0.26819464564323425
1696965602805774000,8.712774169921875,-1.3668766021728516,-0.5899609327316284,-0.8781516551971436
1696965602815788300,8.722788330078124,-0.6233406066894531,-0.630893349647522,-0.5191643238067627
1696965602825802200,8.73280224609375,0.07118892669677734,-0.7436164617538452,-0.2821977734565735
1696965602835816400,8.74281640625,-1.2147293090820312,-0.8785940408706665,-0.4209212064743042
1696965602845830700,8.75283056640625,0.9531431198120117,0.07076752185821533,-0.16993777453899384
1696965602855844600,8.7628447265625,0.109710693359375,-0.44585585594177246,0.32215750217437744
1696965602865858800,8.77285888671875,0.22406864166259766,-1.017605185508728,0.24912799894809723
1696965602875873000,8.782873046875,0.4387369155883789,-0.5768471956253052,-0.08122314512729645
1696965602885887000,8.792886962890625,-0.36028289794921875,-0.6390794515609741,0.2974253296852112
1696965602895901200,8.802901123046874,0.6584892272949219,-0.5656983852386475,0.6903822422027588
1696965602905915400,8.812915283203125,0.9152307510375977,-0.5150332450866699,0.2765166461467743
1696965602915929300,8.822929443359374,-1.0031471252441406,-0.26761162281036377,-0.03934192657470703
1696965602925943600,8.832943603515625,0.19415569305419922,-0.03837692737579346,0.4936079978942871
1696965602935957500,8.84295751953125,0.30398082733154297,-0.48615002632141113,0.31171590089797974
1696965602945971700,8.8529716796875,-1.2257194519042969,-0.7553435564041138,-0.21462300419807434
1696965602955986000,8.86298583984375,-0.6536579132080078,-0.3781859874725342,-0.26774805784225464
1696965602965999900,8.872999755859375,-0.5130634307861328,-0.22701072692871094,0.041395679116249084
1696965602976014000,8.88301416015625,0.11470985412597656,-0.4831439256668091,0.03991295397281647
1696965602986028300,8.8930283203125,-1.380746841430664,-0.04661858081817627,-0.12841059267520905
1696965602996042200,8.903042236328124,0.4771871566772461,-0.31100380420684814,0.3194945454597473
1696965603006056400,8.913056396484375,0.29517555236816406,-0.32061922550201416,0.46725785732269287
1696965603016070400,8.9230703125,-0.17827510833740234,-0.8535029888153076,-0.2846839725971222
1696965603026084600,8.933084716796875,0.08566951751708984,0.1240544319152832,0.5226496458053589
1696965603036098800,8.943098876953124,2.188455581665039,-0.01268148422241211,0.7491104006767273
1696965603046112800,8.95311279296875,-0.0002574920654296875,-0.47727012634277344,0.2537224292755127
1696965603056127000,8.963126953125,0.5064878463745117,-0.33460378646850586,0.4517030119895935
1696965603066141200,8.97314111328125,1.2990102767944336,0.20663702487945557,0.6303451061248779
1696965603076155100,8.983155029296874,0.5791187286376953,-0.2935357093811035,0.30460458993911743
1696965603086169300,8.99316943359375,0.25788211822509766,-0.569292426109314,-0.26481425762176514
1696965603096183600,9.00318359375,0.27649879455566406,0.1758478879928589,0.09317056834697723
1696965603106197500,9.013197509765625,0.9689960479736328,-0.2433152198791504,0.12314662337303162
1696965603116211700,9.023211669921874,-0.20392608642578125,-0.728740930557251,-0.40418195724487305
1696965603126225700,9.0332255859375,-0.8004255294799805,-0.6104787588119507,-0.24457722902297974
1696965603136239900,9.043239990234374,0.974639892578125,-0.2947124242782593,0.008804023265838623
1696965603146254000,9.053254150390625,0.6095695495605469,-0.15031957626342773,-0.2685232162475586
1696965603156268000,9.06326806640625,-0.5672636032104492,-0.721240758895874,-0.35820695757865906
1696965603166282200,9.0732822265625,0.7964849472045898,-0.3395196199417114,0.3346976637840271
1696965603176296400,9.08329638671875,0.8474817276000977,-0.1270664930343628,0.4590027928352356
1696965603186310400,9.093310302734375,-0.5112638473510742,-0.33214449882507324,-0.4028376340866089
1696965603196324600,9.10332470703125,-1.202723503112793,-0.1031731367111206,0.17844322323799133
1696965603206338800,9.1133388671875,1.5054397583007812,-0.14355731010437012,0.027723446488380432
1696965603216352800,9.123352783203124,-0.8536357879638672,-0.20107221603393555,-0.3666461110115051
1696965603226367000,9.133366943359375,-0.9948234558105469,-0.12431478500366211,-0.5006542205810547
1696965603236381000,9.143380859375,0.5134592056274414,0.20740044116973877,-0.0701466053724289
1696965603246395100,9.15339501953125,-1.0740652084350586,-0.159021258354187,-0.05726677179336548
1696965603256409300,9.163409423828124,-1.5205316543579102,0.03699767589569092,-0.11129777133464813
1696965603266423300,9.17342333984375,0.7389822006225586,0.007910490036010742,-0.0723944753408432
1696965603276437500,9.1834375,0.06845664978027344,-0.1667499542236328,0.002009093761444092
1696965603286451500,9.193451416015625,-1.1217784881591797,-0.2947481870651245,-0.17393282055854797
1696965603296465700,9.203465576171874,1.1845426559448242,-0.1176156997680664,-0.23532196879386902
1696965603306479600,9.213479736328125,-0.7298355102539062,-0.08999800682067871,0.24308903515338898
1696965603316493800,9.223493896484374,0.7006645202636719,0.0741572380065918,0.159122034907341
1696965603326507800,9.2335078125,-0.02718830108642578,-0.11023521423339844,0.06947171688079834
1696965603336521700,9.243521728515624,0.3070974349975586,0.0020265579223632812,0.4251769185066223
1696965603346536000,9.253535888671875,0.8370485305786133,-0.42549681663513184,-0.36766183376312256
1696965603356550000,9.2635498046875,-0.011141777038574219,0.126481294631958,-0.42167139053344727
1696965603366564000,9.273564208984375,-0.1733074188232422,-0.29147231578826904,-0.08400668948888779
1696965603376578000,9.283578125,0.6869878768920898,0.09374070167541504,-0.20410102605819702
1696965603386592300,9.29359228515625,0.6140499114990234,0.13371050357818604,0.41232019662857056
1696965603396606200,9.303606201171876,-1.2036361694335938,-0.2767869234085083,-0.2275080382823944
1696965603406620200,9.3136201171875,0.4768028259277344,0.2595500946044922,0.271861732006073
1696965603416634400,9.32363427734375,0.25591564178466797,-0.004876136779785156,-0.14550834894180298
1696965603426648300,9.3336484375,-0.45204925537109375,-0.24309170246124268,0.038384005427360535
1696965603436662500,9.34366259765625,0.5814294815063477,-0.0565265417098999,0.1990772783756256
1696965603446676500,9.353676513671875,-0.25157928466796875,0.015504002571105957,0.18355785310268402
1696965603456690700,9.363690673828126,0.537684440612793,0.091400146484375,0.1623001992702484
1696965603466704600,9.37370458984375,-0.5533018112182617,0.2778581380844116,0.01348981261253357
1696965603476718600,9.383718505859376,0.021531105041503906,0.18188369274139404,0.07983425259590149
1696965603486732800,9.39373291015625,-0.599797248840332,-0.20567572116851807,-0.11592349410057068
1696965603496746800,9.403746826171876,-0.4358787536621094,0.139540433883667,0.027077704668045044
1696965603506761000,9.413760986328125,0.4207019805908203,0.22468256950378418,-0.04873563349246979
1696965603516775000,9.42377490234375,-1.491795539855957,0.12272131443023682,-0.4028393030166626
1696965603526789000,9.4337890625,0.2656431198120117,0.2292006015777588,-0.10252881050109863
1696965603536803000,9.443802978515626,-0.5662384033203125,-0.1942082643508911,-0.06067267060279846
1696965603546817000,9.453817138671875,-0.12062358856201172,0.23366963863372803,-0.19527463614940643
1696965603556831200,9.463831298828126,-0.17717933654785156,0.06748080253601074,-0.08895114809274673
1696965603566845200,9.47384521484375,-0.8413619995117188,0.2659337520599365,0.16456207633018494
1696965603576859400,9.483859375,1.7608671188354492,0.3967803716659546,0.28542816638946533
1696965603586873300,9.493873291015625,-2.0810813903808594,-0.04856443405151367,-0.010968133807182312
1696965603596887600,9.503887451171876,1.8762874603271484,0.39670073986053467,0.7613691091537476
1696965603606901500,9.513901611328125,-0.47939491271972656,0.25948822498321533,0.5417664051055908
1696965603616915700,9.523915771484376,0.6446132659912109,0.030864238739013672,0.47655054926872253
1696965603626930000,9.533929931640625,0.5572404861450195,0.12872755527496338,0.4396263360977173
1696965603636944000,9.54394384765625,-0.6868457794189453,0.12898993492126465,0.3993017077445984
1696965603646958000,9.5539580078125,1.6040534973144531,0.3332977294921875,0.6927623152732849
1696965603656972000,9.563971923828126,-1.0139350891113281,-0.1281135082244873,-0.09219850599765778
1696965603666986200,9.573986328125,0.7328920364379883,0.08722138404846191,0.545567512512207
1696965603677000400,9.58400048828125,-0.1527557373046875,-0.0017453432083129883,0.20301884412765503
1696965603687014400,9.594014404296875,-0.2287273406982422,0.12611496448516846,-0.11556804180145264
1696965603697028600,9.604028564453126,-0.012770652770996094,0.06604325771331787,0.13245683908462524
1696965603707042800,9.614042724609375,0.2168140411376953,0.06927752494812012,0.3767975866794586
1696965603717056800,9.624056884765626,0.16411590576171875,0.22398030757904053,0.37388044595718384
1696965603727071000,9.634071044921875,0.45546913146972656,0.19274401664733887,0.11094240844249725
1696965603737085200,9.644085205078126,0.6984195709228516,0.5768357515335083,0.5155534744262695
1696965603747099100,9.65409912109375,-0.03902626037597656,-0.043413400650024414,0.2535349726676941
1696965603757113300,9.66411328125,0.2241373062133789,0.6001570224761963,0.6736212968826294
1696965603767127300,9.674127197265625,-0.06788921356201172,0.06721413135528564,0.5896287560462952
1696965603777141500,9.6841416015625,0.5918912887573242,0.7060341835021973,0.056545957922935486
1696965603787155700,9.69415576171875,-1.2159700393676758,-0.14736223220825195,0.021042585372924805
1696965603797169700,9.704169677734376,0.8801593780517578,0.4793151617050171,-0.3100816011428833
1696965603807184000,9.714183837890625,-0.751439094543457,0.017127037048339844,-0.1676039695739746
1696965603817198000,9.724197998046876,-0.9314413070678711,0.1862809658050537,-0.5340473651885986
1696965603827212000,9.7342119140625,0.15571117401123047,0.06589639186859131,0.04420118033885956
1696965603837226200,9.744226318359376,-0.6142644882202148,0.6977747678756714,-0.5098578929901123
1696965603847240200,9.754240234375,0.04671764373779297,0.03215157985687256,0.20828256011009216
1696965603857254400,9.76425439453125,-0.4938373565673828,0.1445600986480713,-0.21844732761383057
1696965603867268600,9.7742685546875,0.23375797271728516,0.3741910457611084,0.4443624019622803
1696965603877282600,9.784282470703126,-1.1581430435180664,0.5684378147125244,0.31968802213668823
1696965603887296800,9.794296875,1.3344287872314453,0.3675193786621094,-0.3640027642250061
1696965603897311000,9.80431103515625,-1.2357549667358398,-0.03610587120056152,-0.19182541966438293
1696965603907325000,9.814324951171875,0.5831060409545898,0.22866582870483398,-0.24409717321395874
1696965603917339100,9.824339111328126,-0.44148731231689453,0.14495670795440674,-0.40290355682373047
1696965603927353300,9.834353271484375,-0.32106685638427734,0.15568768978118896,-0.32329118251800537
1696965603937367300,9.8443671875,-0.4449434280395508,-0.35773980617523193,0.19464018940925598
1696965603947381500,9.854381591796875,0.8941001892089844,0.5479046106338501,-0.5666900873184204
1696965603957395500,9.8643955078125,-0.7950286865234375,0.0252993106842041,-0.20942513644695282
1696965603967409700,9.87440966796875,1.0847511291503906,0.3193228244781494,-0.4903595745563507
1696965603977424000,9.884423828125,-0.07413482666015625,-0.2092576026916504,0.5920051336288452
1696965603987437800,9.894437744140625,0.6855745315551758,0.26663386821746826,-0.0716264545917511
1696965603997452000,9.9044521484375,1.109579086303711,0.2966955900192261,-0.0540989488363266
1696965604007466200,9.91446630859375,-0.48471832275390625,0.5071368217468262,0.48148655891418457
1696965604017480200,9.924480224609376,1.2370319366455078,0.11302483081817627,0.2520853281021118
1696965604027494400,9.934494384765625,-0.3717184066772461,0.021077632904052734,-0.42513540387153625
1696965604037508600,9.944508544921876,-0.2989206314086914,-0.004145503044128418,-0.05222189426422119
1696965604047522600,9.9545224609375,1.0637216567993164,0.8616589307785034,0.4215850234031677
1696965604057536800,9.964536865234376,-0.7018070220947266,-0.5833587646484375,-0.295875608921051
1696965604067550700,9.97455078125,-0.3707132339477539,0.7499463558197021,0.14301177859306335
1696965604077565000,9.98456494140625,1.5187063217163086,-0.11808955669403076,-0.22562724351882935
1696965604087579100,9.9945791015625,-2.0982794761657715,0.5010578632354736,-0.14580945670604706
1696965604097593000,10.004593017578125,1.7593135833740234,-0.3208533525466919,0.015391558408737183
1696965604107607300,10.014607177734375,-0.3859395980834961,0.3671572208404541,0.053610607981681824
1696965604117621500,10.02462158203125,-0.021327972412109375,0.15302908420562744,0.318204790353775
1696965604127635500,10.034635498046875,0.6622505187988281,0.05101728439331055,-0.14876627922058105
1696965604137649700,10.044649658203125,0.0924234390258789,0.6016854047775269,0.4032323360443115
1696965604147664000,10.054663818359375,0.5654211044311523,0.03010427951812744,0.09586004912853241
1696965604157677800,10.064677734375,-0.49157238006591797,0.6282024383544922,0.6048318147659302
1696965604167692000,10.074692138671875,0.6805534362792969,-0.1532045602798462,0.5020649433135986
1696965604177706000,10.0847060546875,0.48349571228027344,0.3205721378326416,0.31120219826698303
1696965604187720200,10.09472021484375,-1.300034523010254,-0.18880629539489746,-0.29449111223220825
1696965604197734400,10.104734375,0.8923664093017578,0.4779850244522095,0.5518082976341248
1696965604207748400,10.114748291015625,-0.47615909576416016,0.4155672788619995,-0.21217834949493408
1696965604217762600,10.124762451171875,-1.100581169128418,0.2970985174179077,0.277233362197876
1696965604227776800,10.13477685546875,0.006247520446777344,-0.22583222389221191,-0.10333342850208282
1696965604237790700,10.144790771484375,-0.4470539093017578,0.8118427991867065,0.0936819463968277
1696965604247805000,10.154804931640625,-0.1497058868408203,0.16026008129119873,0.8158014416694641
1696965604257819100,10.164819091796875,0.7353391647338867,0.5429762601852417,0.4404667615890503
1696965604267833000,10.1748330078125,-0.29879283905029297,0.19749045372009277,0.6900647282600403
1696965604277847300,10.184847412109375,0.815913200378418,0.06450414657592773,0.6514267921447754
1696965604287861200,10.194861328125,-1.0260334014892578,0.12580156326293945,0.1579117774963379
1696965604297875500,10.20487548828125,1.0365476608276367,0.15662014484405518,0.4087066054344177
1696965604307889700,10.2148896484375,-0.49045848846435547,0.5947144031524658,0.8092172145843506
1696965604317903600,10.224903564453125,0.48113441467285156,-0.13072454929351807,0.5641264319419861
1696965604327917800,10.234917724609375,-0.6574373245239258,0.4854283332824707,0.34195858240127563
1696965604337932000,10.24493212890625,0.47711658477783203,0.18071043491363525,0.0668725073337555
1696965604347946000,10.254946044921875,0.050444602966308594,0.3766735792160034,0.3824681341648102
1696965604357960200,10.264960205078125,1.264617919921875,-0.2105565071105957,0.09124094247817993
1696965604367974400,10.274974365234375,-0.35861778259277344,-0.03366100788116455,-0.01961846649646759
1696965604377988400,10.28498828125,1.2817840576171875,0.20294153690338135,0.5604227185249329
1696965604388002600,10.29500244140625,-0.21700000762939453,0.5252915620803833,0.18056121468544006
1696965604398016500,10.3050166015625,-0.4120597839355469,0.17756354808807373,0.07454431056976318
1696965604408030700,10.31503076171875,-0.3344564437866211,0.19016993045806885,-0.13575604557991028
1696965604418045000,10.325044921875,-0.7296772003173828,0.4773303270339966,-0.43017762899398804
1696965604428059000,10.335058837890625,-0.46036624908447266,0.2186521291732788,-0.12909597158432007
1696965604438073000,10.345072998046875,0.05303382873535156,-0.7295112609863281,-0.9711878299713135
1696965604448087300,10.35508740234375,-1.4813652038574219,0.8749995231628418,0.2858346700668335
1696965604458101200,10.365101318359375,1.4095964431762695,-0.016630887985229492,-0.17772427201271057
1696965604468115500,10.375115478515625,-2.4982757568359375,0.5087467432022095,-0.11238317936658859
1696965604478129700,10.385129638671875,0.3183622360229492,0.3666635751724243,0.10544264316558838
1696965604488143600,10.3951435546875,-1.909153938293457,0.3684145212173462,0.33117538690567017
1696965604498157800,10.40515771484375,0.17439842224121094,0.4015160799026489,0.17707397043704987
1696965604508172800,10.4151728515625,-0.28443431854248047,0.13471698760986328,0.6526017189025879
1696965604518186500,10.4251865234375,-1.4402751922607422,0.20122575759887695,0.06642299890518188
1696965604528200200,10.4352001953125,0.17398834228515625,0.49095022678375244,0.45141103863716125
1696965604538214000,10.4452138671875,0.3265409469604492,0.41237807273864746,0.40735697746276855
1696965604548227600,10.4552275390625,-0.8401756286621094,-0.06338238716125488,-0.36313778162002563
1696965604558241300,10.4652412109375,0.5955686569213867,-0.07273924350738525,-0.583513617515564
1696965604568255200,10.475255126953124,-0.19408416748046875,0.20676958560943604,0.20298171043395996
1696965604578269000,10.48526904296875,0.5854263305664062,0.21534371376037598,-0.7233611345291138
1696965604588283000,10.495282958984374,-0.29016590118408203,-0.17035233974456787,0.07097157090902328
1696965604598296800,10.505296875,-0.3657817840576172,0.11146795749664307,-0.23350729048252106
1696965604608310800,10.515310791015626,0.6964445114135742,0.29514777660369873,0.45826584100723267
1696965604618325000,10.525324951171875,0.4321451187133789,0.24501895904541016,-0.11543966084718704
1696965604628339200,10.535339111328126,1.7935400009155273,-0.13618230819702148,0.6959735155105591
1696965604638353700,10.545353759765625,-0.3369932174682617,0.21879494190216064,-0.04458225518465042
1696965604648367900,10.555367919921874,1.2125043869018555,0.3407938480377197,0.4706995487213135
1696965604658382300,10.56538232421875,0.9856348037719727,0.26322805881500244,0.061256855726242065
1696965604668396800,10.575396728515624,-0.8516101837158203,-0.18411338329315186,0.5331653356552124
1696965604678411000,10.585410888671875,1.3588886260986328,0.20972931385040283,-0.4522583782672882
1696965604688425500,10.595425537109374,-0.9855728149414062,0.4584989547729492,0.09564849734306335
1696965604698440000,10.60543994140625,1.540384292602539,0.1548781394958496,0.287686288356781
1696965604708454400,10.615454345703125,-0.8473749160766602,0.05845236778259277,0.09945634007453918
1696965604718468600,10.625468505859375,0.22521495819091797,-0.08024048805236816,0.17177893221378326
1696965604728482800,10.63548291015625,-0.027910232543945312,0.4504917860031128,-0.05911344289779663
1696965604738496800,10.645496826171875,0.15375995635986328,0.33950328826904297,-0.355726957321167
1696965604748511000,10.655510986328125,-0.7731418609619141,0.0529177188873291,0.3358573615550995
1696965604758526700,10.665526611328126,-0.0017843246459960938,0.2964634895324707,-0.21461381018161774
1696965604768539100,10.6755390625,-1.143702507019043,0.10795021057128906,0.318379670381546
1696965604778551600,10.685551513671875,0.9045839309692383,0.3990499973297119,-0.021834760904312134
1696965604788564200,10.695564208984376,-0.8848342895507812,0.09609878063201904,0.4626085162162781
1696965604798577200,10.7055771484375,0.4506254196166992,0.5313215255737305,0.13169538974761963
1696965604808590000,10.715590087890625,-0.4583864212036133,0.41951513290405273,0.01447322964668274
1696965604818603300,10.725603271484376,-0.28046131134033203,0.06508851051330566,-0.296011745929718
1696965604828616700,10.73561669921875,-2.411245346069336,-0.1969301700592041,0.14847330749034882
1696965604838630400,10.74563037109375,1.2022275924682617,0.5487160682678223,0.3688846230506897
1696965604848644600,10.75564453125,-0.6257429122924805,0.1470344066619873,-0.012520745396614075
1696965604858658800,10.765658935546876,-1.6766319274902344,-0.2476506233215332,0.2215886265039444
1696965604868673500,10.775673583984375,1.4437437057495117,0.31976234912872314,0.38346511125564575
1696965604878688300,10.785688232421874,-1.2797422409057617,-0.18826425075531006,0.28768792748451233
1696965604888703200,10.795703125,1.4045019149780273,0.5337203741073608,0.24277760088443756
1696965604898718500,10.805718505859375,-1.485860824584961,-0.17262601852416992,0.28538763523101807
1696965604908733700,10.815733642578126,0.04203605651855469,0.011377692222595215,0.6392026543617249
1696965604918749000,10.8257490234375,-0.5604619979858398,0.12748563289642334,-0.010929301381111145
1696965604928764200,10.83576416015625,0.8168516159057617,0.40715718269348145,0.333768367767334
1696965604938779100,10.845779052734375,-0.5518703460693359,0.0805734395980835,0.33187180757522583
1696965604948793000,10.85579296875,1.1261444091796875,0.43889951705932617,0.6255966424942017
1696965604958807300,10.865807373046875,0.5071325302124023,0.7226691246032715,0.513453483581543
1696965604968821500,10.875821533203125,0.9924850463867188,0.8835304975509644,0.7563578486442566
1696965604978835500,10.88583544921875,0.8896942138671875,0.7135865688323975,0.18707872927188873
1696965604988849700,10.895849609375,-0.6994571685791016,-0.11813986301422119,-0.11543069779872894
1696965604998863600,10.905863525390625,0.5875444412231445,0.3569784164428711,0.09739115834236145
1696965605008877600,10.915877685546874,-0.2884035110473633,-0.29931557178497314,-0.1544702649116516
1696965605018891800,10.925891845703125,-0.06338214874267578,0.16223394870758057,-0.005366146564483643
1696965605028905700,10.93590576171875,0.5583162307739258,0.5472103357315063,0.39992275834083557
1696965605038920000,10.945919921875,0.04047966003417969,0.4139465093612671,1.0407049655914307
1696965605048934000,10.955933837890624,0.3038816452026367,-0.13662266731262207,-0.578877329826355
1696965605058948000,10.965947998046875,-1.3174219131469727,0.1393723487854004,0.83596271276474
1696965605068962000,10.975962158203124,1.3673162460327148,0.5705267190933228,0.07369112968444824
1696965605078976000,10.98597607421875,-1.5895748138427734,-0.023043513298034668,0.4650748074054718
1696965605088990200,10.995990234375,0.5079250335693359,-0.11167025566101074,-0.014468878507614136
1696965605099004200,11.006004150390625,-0.9320497512817383,0.5492790937423706,0.2041931301355362
1696965605109018400,11.016018310546874,0.30867671966552734,0.4527932405471802,0.027589276432991028
1696965605119032300,11.0260322265625,-1.3936614990234375,-0.216217041015625,0.37158113718032837
1696965605129046500,11.036046630859374,-0.19492340087890625,-0.02789485454559326,0.27050602436065674
1696965605139060500,11.046060546875,-0.18050575256347656,0.5906603336334229,-0.11978988349437714
1696965605149074400,11.056074462890624,-0.767298698425293,0.28962111473083496,0.23858344554901123
1696965605159088600,11.066088623046875,0.5481748580932617,0.6890031099319458,-0.12509460747241974
1696965605169102600,11.0761025390625,-1.0248632431030273,-0.16663801670074463,0.19170160591602325
1696965605179116800,11.08611669921875,0.25273990631103516,0.32654666900634766,0.2631463408470154
1696965605189130800,11.096130859375,-0.0008001327514648438,0.3047947883605957,0.35569682717323303
1696965605199145000,11.10614501953125,0.5002889633178711,0.6855406761169434,0.037031665444374084
1696965605209159000,11.116158935546874,-0.7194643020629883,-0.14340782165527344,-0.11580462753772736
1696965605219172900,11.1261728515625,-0.8425531387329102,0.42005884647369385,0.5940158367156982
1696965605229187000,11.13618701171875,1.4577140808105469,0.06382834911346436,0.19375085830688477
1696965605239201000,11.146200927734375,-1.4275093078613281,0.6555789709091187,-0.09169115126132965
1696965605249215200,11.15621533203125,1.1890220642089844,-0.42381584644317627,0.8501485586166382
1696965605259230000,11.16622998046875,0.15882015228271484,0.8949285745620728,0.299588143825531
1696965605269244400,11.176244384765624,0.2530632019042969,-0.2009587287902832,0.5692805051803589
1696965605279259000,11.1862587890625,-0.24451065063476562,0.11010551452636719,0.05694296956062317
1696965605289272800,11.19627294921875,0.7205371856689453,0.20603632926940918,0.5374888777732849
1696965605299287000,11.206287109375,-0.07437992095947266,0.2189558744430542,-0.16590002179145813
1696965605309301000,11.216301025390624,0.0684356689453125,-0.020841479301452637,0.24089834094047546
1696965605319315200,11.226315185546875,0.20216846466064453,0.13673532009124756,-0.05112642049789429
1696965605329329400,11.236329345703124,0.07693862915039062,-0.05672800540924072,0.06256610155105591
1696965605339343400,11.24634326171875,0.44470882415771484,0.3742713928222656,0.12744073569774628
1696965605349357600,11.256357666015624,0.09470367431640625,-0.047295451164245605,-0.19985482096672058
1696965605359371500,11.26637158203125,0.40482044219970703,0.2708463668823242,0.8397731184959412
1696965605369385700,11.2763857421875,1.3024110794067383,0.024898171424865723,0.07329860329627991
1696965605379399700,11.286399658203125,-1.2336769104003906,0.20229554176330566,0.021938487887382507
1696965605389413600,11.29641357421875,1.0011672973632812,-0.16649222373962402,0.3322461247444153
1696965605399427800,11.306427734375,-0.2724447250366211,0.1350085735321045,0.8984320163726807
1696965605409441800,11.31644189453125,0.6413259506225586,-0.21678853034973145,-0.09260272234678268
1696965605419456000,11.3264560546875,-0.5978965759277344,0.35671722888946533,0.4485945403575897
1696965605429470000,11.336469970703124,0.9235458374023438,0.21547281742095947,0.43991270661354065
1696965605439484200,11.346484130859375,-0.9995603561401367,-0.43739426136016846,0.4917539954185486
1696965605449498000,11.356498046875,0.26952552795410156,0.3367501497268677,0.09953916072845459
1696965605459512300,11.36651220703125,0.10663890838623047,0.3912855386734009,0.21070526540279388
1696965605469526300,11.3765263671875,-0.5766105651855469,-0.18565106391906738,0.4467160105705261
1696965605479540200,11.386540283203125,-0.05906391143798828,-0.09002745151519775,0.15487505495548248
1696965605489554400,11.396554443359374,-1.2196245193481445,0.3992290496826172,0.5208865404129028
1696965605499568400,11.406568359375,0.39841747283935547,0.5809708833694458,0.12624959647655487
1696965605509582600,11.41658251953125,-1.0405044555664062,-0.09709954261779785,0.6580882668495178
1696965605519596500,11.426596435546875,-0.20659923553466797,-0.03868067264556885,0.1807113140821457
1696965605529610800,11.43661083984375,-1.534348487854004,0.35195791721343994,0.4089595675468445
1696965605539624700,11.446624755859375,1.1787433624267578,0.6399950981140137,0.12228022515773773
1696965605549638700,11.456638671875,-1.3328323364257812,-0.3381553888320923,0.36515700817108154
1696965605559652900,11.46665283203125,0.12768077850341797,0.3674808740615845,0.5925437211990356
1696965605569666800,11.476666748046876,-0.4080486297607422,0.22423624992370605,0.24254050850868225
1696965605579681000,11.486680908203125,0.1090402603149414,0.36736857891082764,0.39079320430755615
1696965605589695000,11.496695068359376,-0.8284540176391602,-0.19903147220611572,0.3501501679420471
1696965605599709200,11.506709228515625,0.3253774642944336,0.10722970962524414,0.4728044271469116
1696965605609723100,11.51672314453125,0.5006265640258789,0.460074782371521,0.3738069236278534
1696965605619737000,11.526737060546875,0.09830665588378906,-0.05936098098754883,0.08361761271953583
1696965605629751300,11.536751220703126,0.4556598663330078,0.11282289028167725,0.6874515414237976
1696965605639765500,11.546765625,-0.31435489654541016,0.05677497386932373,-0.039590463042259216
1696965605649779500,11.556779541015626,0.4836406707763672,-0.024412155151367188,-0.10281837731599808
1696965605659793700,11.566793701171875,0.32523441314697266,0.14990460872650146,0.13324859738349915
1696965605669807900,11.576807861328126,0.1279277801513672,-0.21086788177490234,0.15112733840942383
1696965605679821800,11.58682177734375,0.7205657958984375,0.1320044994354248,0.5310976505279541
1696965605689836000,11.5968359375,0.8522243499755859,0.5729014873504639,0.23144687712192535
1696965605699850000,11.60685009765625,0.12903499603271484,-0.3541680574417114,0.8093125820159912
1696965605709864200,11.6168642578125,0.3913116455078125,0.3118274211883545,0.2224844992160797
1696965605719878400,11.62687841796875,-0.5506801605224609,-0.03094160556793213,0.6779745817184448
1696965605729892400,11.636892333984376,1.3335676193237305,0.11656129360198975,-0.08272538334131241
1696965605739906600,11.646906494140625,-2.2440619468688965,0.3868192434310913,0.7278236150741577
1696965605749920800,11.656920654296876,1.5654077529907227,0.09921789169311523,0.10353375971317291
1696965605759934700,11.666934814453125,-1.5012836456298828,-0.16686749458312988,0.4311978220939636
1696965605769949000,11.676948974609376,0.8296775817871094,0.024710774421691895,-0.18017086386680603
1696965605779963100,11.686963134765625,-1.0405073165893555,0.28013479709625244,0.918481171131134
1696965605789977000,11.69697705078125,0.9595460891723633,0.26530683040618896,0.017412245273590088
1696965605799991300,11.7069912109375,-0.6528797149658203,-0.1876741647720337,0.25501522421836853
1696965605810005200,11.717005126953126,-0.5319328308105469,0.16727328300476074,0.4001486897468567
1696965605820019500,11.72701953125,0.7596845626831055,0.4342780113220215,0.4616926908493042
1696965605830033700,11.73703369140625,-0.4080028533935547,-0.37142157554626465,0.053024739027023315
1696965605840047600,11.747047607421875,0.7348308563232422,-0.024531126022338867,0.41242778301239014
1696965605850061800,11.757061767578126,0.10738945007324219,0.3073763847351074,0.4184896945953369
1696965605860076000,11.767075927734375,0.1497974395751953,-0.45636069774627686,0.3280836045742035
1696965605870090000,11.777090087890626,-0.14181900024414062,0.15973031520843506,0.056403085589408875
1696965605880104200,11.787104248046875,0.035274505615234375,-0.19398891925811768,0.19274020195007324
1696965605890118400,11.797118408203126,-0.9780492782592773,-0.21655607223510742,0.31836432218551636
1696965605900132400,11.80713232421875,1.423257827758789,-0.21029448509216309,-0.004068970680236816
1696965605910146600,11.817146484375,-0.8789024353027344,-0.2959810495376587,0.44543060660362244
1696965605920160500,11.827160400390625,0.5950956344604492,-0.1416836977005005,0.08329214155673981
1696965605930174700,11.8371748046875,-0.04230308532714844,0.16670560836791992,0.5735034942626953
1696965605940189000,11.84718896484375,0.4264030456542969,0.13118493556976318,-0.04034747928380966
1696965605950203000,11.857202880859376,-1.2334861755371094,-0.142899751663208,0.1363857537508011
1696965605960217000,11.867217041015625,0.6859779357910156,-0.08986806869506836,0.29660969972610474
1696965605970231300,11.877231201171876,-0.16200828552246094,0.04665219783782959,0.5121393203735352
1696965605980245200,11.887245361328125,-0.7731351852416992,-0.04021155834197998,0.23363471031188965
1696965605990259500,11.897259521484376,-0.02159595489501953,0.007134795188903809,0.4613224267959595
1696965606000273700,11.907273681640625,-1.1872272491455078,0.20128858089447021,0.15576626360416412
1696965606010287600,11.91728759765625,-0.07152557373046875,-0.2533547878265381,0.38926929235458374
1696965606020301800,11.9273017578125,-1.0220699310302734,0.009076118469238281,0.24068373441696167
1696965606030315800,11.937315673828126,0.8818321228027344,-0.07295429706573486,0.47481441497802734
1696965606040330000,11.947330078125,-0.20491790771484375,0.050530076026916504,0.8422927856445312
1696965606050344200,11.95734423828125,0.383087158203125,-0.34483444690704346,0.5936343669891357
1696965606060358100,11.967358154296875,0.10505485534667969,-0.06692445278167725,0.9117242693901062
1696965606070372400,11.977372314453126,0.47265148162841797,0.22492671012878418,0.9058534502983093
1696965606080386600,11.987386474609375,0.2038745880126953,-0.0959700345993042,0.8457885980606079
1696965606090400500,11.997400390625,0.12707901000976562,0.01746988296508789,0.7987924814224243
1696965606100414700,12.007414794921875,0.11229419708251953,-0.1493682861328125,1.1254310607910156
1696965606110429000,12.017428955078126,0.8244714736938477,-0.1518418788909912,0.030581548810005188
1696965606120443000,12.02744287109375,-0.7307262420654297,-0.3956519365310669,0.19532689452171326
1696965606130457000,12.03745703125,0.853419303894043,-0.15886199474334717,0.14695680141448975
1696965606140471000,12.047470947265625,-0.39113521575927734,-0.1832336187362671,0.27202653884887695
1696965606150485200,12.0574853515625,0.7190475463867188,0.1010211706161499,0.33110544085502625
1696965606160499500,12.06749951171875,0.13437271118164062,-0.3210650682449341,0.18439285457134247
1696965606170513400,12.077513427734376,0.2254314422607422,0.14950096607208252,0.3077714145183563
1696965606180527600,12.087527587890625,-0.11905860900878906,-0.20102202892303467,0.5194092392921448
1696965606190541800,12.097541748046876,1.1289453506469727,0.15080344676971436,0.6590715646743774
1696965606200555800,12.1075556640625,0.2662372589111328,-0.22465837001800537,0.563166618347168
1696965606210570000,12.117570068359376,0.16570377349853516,-0.0693356990814209,0.8365182280540466
1696965606220584200,12.127584228515625,0.3471946716308594,-0.234083890914917,0.23623907566070557
1696965606230598100,12.13759814453125,-0.24097824096679688,-0.08840024471282959,0.33826470375061035
1696965606240612400,12.1476123046875,0.7443361282348633,0.024396538734436035,0.28959882259368896
1696965606250626300,12.157626220703126,-0.7049150466918945,-0.1707000732421875,0.6255456805229187
1696965606260640500,12.167640625,1.108229637145996,-0.08107411861419678,0.3907179534435272
1696965606270654700,12.17765478515625,-0.738551139831543,0.08698678016662598,0.2780047655105591
1696965606280668700,12.187668701171875,1.170083999633789,-0.05706191062927246,0.02484680712223053
1696965606290683000,12.197682861328126,-1.3984193801879883,0.07251214981079102,0.14557164907455444
1696965606300697000,12.207697021484375,0.7936220169067383,-0.03201878070831299,0.5242502093315125
1696965606310711000,12.2177109375,-0.4885854721069336,0.05561840534210205,0.7833005785942078
1696965606320725200,12.227725341796875,0.18156909942626953,-0.03983020782470703,0.7145954370498657
1696965606330739500,12.237739501953126,-0.4924497604370117,-0.07010126113891602,0.7265940308570862
1696965606340753400,12.24775341796875,0.35944557189941406,0.010755419731140137,0.2756415605545044
1696965606350767600,12.257767578125,-0.9413061141967773,0.2686518430709839,0.4608856439590454
1696965606360781600,12.267781494140625,0.4040060043334961,-0.2634580135345459,-0.06557101756334305
1696965606370795800,12.277795654296876,-0.9877862930297852,0.10608172416687012,0.6442147493362427
1696965606380810000,12.28781005859375,0.9885091781616211,-0.35913026332855225,0.2191232442855835
1696965606390824000,12.297823974609376,-1.2219696044921875,-0.2617558240890503,0.6474248170852661
1696965606400838100,12.307838134765625,1.873133659362793,-0.042343735694885254,-0.22603970766067505
1696965606410852400,12.317852294921876,-1.2231931686401367,-0.13493013381958008,0.711984395980835
1696965606420866300,12.3278662109375,1.3794727325439453,-0.12486577033996582,0.09735797345638275
1696965606430880500,12.337880615234376,-0.6260347366333008,-0.18379688262939453,0.9069527387619019
1696965606440894500,12.34789453125,0.9240007400512695,-0.10327768325805664,0.34283363819122314
1696965606450908700,12.35790869140625,-0.7649269104003906,-0.08143746852874756,0.5377592444419861
1696965606460923000,12.3679228515625,0.8189554214477539,-0.33122992515563965,-0.24028100073337555
1696965606470936800,12.377936767578126,0.43961143493652344,-0.17905843257904053,0.48700177669525146
1696965606480951000,12.387950927734375,0.6781740188598633,-0.47991085052490234,-0.2644411027431488
1696965606490965200,12.39796533203125,-0.02593994140625,-0.02545607089996338,0.32105833292007446
1696965606500979200,12.407979248046875,0.677520751953125,-0.22247552871704102,-0.6563159227371216
1696965606510993400,12.417993408203126,-1.4697341918945312,-0.22795486450195312,0.3724764585494995
1696965606521007600,12.428007568359375,0.8571376800537109,-0.08817052841186523,-0.14639291167259216
1696965606531021600,12.438021484375,-1.4624509811401367,0.07703065872192383,0.07859310507774353
1696965606541035800,12.448035888671875,0.5535860061645508,-0.14091205596923828,-0.13229867815971375
1696965606551049700,12.4580498046875,-0.6517095565795898,-0.22429025173187256,0.18841001391410828
1696965606561064000,12.46806396484375,0.1007089614868164,0.007543683052062988,-0.0055825114250183105
1696965606571078100,12.478078125,-0.6926183700561523,-0.14695286750793457,-0.1385476291179657
1696965606581092000,12.488092041015625,-0.5567770004272461,0.195953369140625,0.03943890333175659
1696965606591106300,12.498106201171876,0.21886157989501953,-0.2830526828765869,0.33914560079574585
1696965606601120500,12.50812060546875,-1.396632194519043,0.16024422645568848,0.09057772159576416
1696965606611134500,12.518134521484376,-0.07930850982666016,0.1905883550643921,0.2331743687391281
1696965606621148700,12.528148681640625,0.0644378662109375,0.15573489665985107,0.22547751665115356
1696965606631163000,12.538162841796876,-0.3470325469970703,-0.04360926151275635,0.2754712998867035
1696965606641176800,12.5481767578125,0.4470834732055664,-0.02396070957183838,0.5897925496101379
1696965606651191000,12.55819091796875,-0.055869102478027344,-0.45867979526519775,0.7287275195121765
1696965606661205000,12.568205078125,0.0680990219116211,-0.005826473236083984,0.5045907497406006
1696965606671219200,12.57821923828125,-0.15184974670410156,0.26139819622039795,0.0644942969083786
1696965606681233400,12.5882333984375,-0.0707387924194336,-0.05644023418426514,0.47786617279052734
1696965606691247400,12.598247314453126,0.6701688766479492,-0.16621172428131104,0.061713531613349915
1696965606701261600,12.608261474609375,-0.3593320846557617,-0.23540687561035156,0.4020932912826538
