time,seconds_elapsed,z,y,x
1696965594283725800,0.190725830078125,-0.0011983871227130294,0.0319569893181324,0.033155377954244614
1696965594293741600,0.200741455078125,0.004127778112888336,-0.02343512699007988,-0.0030625448562204838
1696965594303759600,0.210759521484375,-0.0011983871227130294,0,0.00226362026296556
1696965594313779700,0.22077978515625,-0.005459319334477186,-0.009587096981704235,-0.015845341607928276
1696965594323801300,0.23080126953125,-0.0011983871227130294,0.0319569893181324,0.03848154470324516
1696965594333824500,0.240824462890625,0.0030625448562204838,-0.012782796286046505,0.008655018173158169
1696965594343848400,0.250848388671875,-0.00226362026296556,-0.01704372838139534,-0.021171506494283676
1696965594353872600,0.26087255859375,-0.005459319334477186,0.009587096981704235,0.0033288532868027687
1696965594363897000,0.27089697265625,-0.0001331541279796511,0.02450035884976387,0.028894444927573204
1696965594373912300,0.280912353515625,0.004127778112888336,-0.02343512699007988,0.0001331541279796511
1696965594383926300,0.29092626953125,-0.0033288532868027687,-0.0063913981430232525,-0.009453942999243736
1696965594393940200,0.300940185546875,-0.005459319334477186,0.0053261648863554,-0.005193010903894901
1696965594403954200,0.3109541015625,-0.0011983871227130294,0.01704372838139534,0.023568280041217804
1696965594413968100,0.320968017578125,0.0030625448562204838,-0.0031956990715116262,0.013981183059513569
1696965594423982300,0.330982421875,-0.0011983871227130294,-0.02769605815410614,-0.029693370684981346
1696965594433996300,0.340996337890625,-0.005459319334477186,0.02343512699007988,0.008655018173158169
1696965594444010200,0.35101025390625,-0.0011983871227130294,0.01384802907705307,0.022503048181533813
1696965594454024200,0.361024169921875,0.0030625448562204838,-0.01917419396340847,0.0011983871227130294
1696965594464038400,0.371038330078125,-0.0033288532868027687,-0.009587096981704235,-0.013714875094592571
1696965594474052400,0.38105224609375,-0.004394086077809334,0.0106523297727108,-0.0030625448562204838
1696965594484066300,0.39106640625,-0.0001331541279796511,0.01491326279938221,0.026763979345560074
1696965594494080300,0.401080322265625,0.001997311832383275,-0.012782796286046505,0.007589785382151604
1696965594504094200,0.41109423828125,-0.0033288532868027687,-0.02982652559876442,-0.031823836266994476
1696965594514108400,0.4211083984375,-0.007589785382151604,0.02982652559876442,0.011850717477500439
1696965594524122400,0.431122314453125,-0.0001331541279796511,0.0106523297727108,0.021437814459204674
1696965594534136300,0.44113623046875,0.001997311832383275,-0.0213046595454216,-0.0009320789249613881
1696965594544150300,0.451150390625,-0.0033288532868027687,-0.01171756349503994,-0.016910573467612267
1696965594554164500,0.46116455078125,-0.005459319334477186,0.0159784946590662,-0.001997311832383275
1696965594564178400,0.471178466796875,0.0009320789249613881,0.012782796286046505,0.026763979345560074
1696965594574192400,0.4811923828125,0.0030625448562204838,-0.0159784946590662,0.0033288532868027687
1696965594584206300,0.491206298828125,-0.0033288532868027687,-0.0213046595454216,-0.026497671380639076
1696965594594220500,0.501220458984375,-0.005459319334477186,0.02982652559876442,0.009720250964164734
1696965594604234500,0.511234375,0.0009320789249613881,0.004260932095348835,0.019307348877191544
1696965594614248400,0.52124853515625,0.0030625448562204838,-0.01810896210372448,-0.001997311832383275
1696965594624262400,0.531262451171875,-0.0033288532868027687,-0.01491326279938221,-0.021171506494283676
1696965594634276400,0.5412763671875,-0.004394086077809334,0.02769605815410614,0.008655018173158169
1696965594644290600,0.55129052734375,0.001997311832383275,0,0.017176883295178413
1696965594654304500,0.561304443359375,0.0030625448562204838,-0.0021304660476744175,0.006524552125483751
1696965594664318500,0.571318359375,-0.00226362026296556,-0.03302222490310669,-0.031823836266994476
1696965594674332400,0.58133251953125,-0.006524552125483751,0.03302222490310669,0.009720250964164734
1696965594684346600,0.5913466796875,0.001997311832383275,0.01171756349503994,0.027829213067889214
1696965594694360600,0.601360595703125,0.001997311832383275,-0.01810896210372448,-0.0009320789249613881
1696965594704374500,0.61137451171875,-0.0033288532868027687,-0.0213046595454216,-0.026497671380639076
1696965594714388500,0.621388427734375,-0.005459319334477186,0.0426093190908432,0.028894444927573204
1696965594724402400,0.63140234375,0.0009320789249613881,-0.01171756349503994,0.007589785382151604
1696965594734416600,0.641416748046875,0.001997311832383275,-0.0010652330238372087,0.021437814459204674
1696965594744430600,0.6514306640625,-0.0033288532868027687,-0.02663082629442215,-0.035019535571336746
1696965594754444500,0.661444580078125,-0.006524552125483751,0.01917419396340847,0.017176883295178413
1696965594764458500,0.67145849609375,0.0009320789249613881,0.02982652559876442,0.041677240282297134
1696965594774472700,0.68147265625,0.001997311832383275,-0.0426093190908432,-0.017975807189941406
1696965594784486700,0.691486572265625,-0.005459319334477186,-0.0010652330238372087,-0.007323476951569319
1696965594794500600,0.70150048828125,-0.005459319334477186,0.02343512699007988,0.019307348877191544
1696965594804514600,0.7115146484375,0.0009320789249613881,0.0021304660476744175,0.022503048181533813
1696965594814528800,0.72152880859375,-0.0001331541279796511,-0.01384802907705307,0.0011983871227130294
1696965594824542700,0.731542724609375,-0.005459319334477186,-0.02769605815410614,-0.029693370684981346
1696965594834556700,0.741556640625,-0.006524552125483751,0.04154408723115921,0.03209014609456062
1696965594844570600,0.751570556640625,0.0009320789249613881,0,0.015046416781842709
1696965594854584600,0.76158447265625,-0.0001331541279796511,-0.01810896210372448,-0.009453942999243736
1696965594864598800,0.771598876953125,-0.005459319334477186,-0.01171756349503994,-0.016910573467612267
1696965594874612700,0.78161279296875,-0.005459319334477186,0.03834838792681694,0.022503048181533813
1696965594884626700,0.791626708984375,0.0009320789249613881,-0.0010652330238372087,0.010785484686493874
1696965594894641000,0.801640869140625,-0.0001331541279796511,-0.009587096981704235,-0.006258244160562754
1696965594904654800,0.81165478515625,-0.004394086077809334,-0.01704372838139534,-0.029693370684981346
1696965594914668800,0.821668701171875,-0.005459319334477186,0.04367455467581749,0.028894444927573204
1696965594924683000,0.83168310546875,0.004127778112888336,-0.0063913981430232525,0.010785484686493874
1696965594934697000,0.841697021484375,0.001997311832383275,-0.0159784946590662,-0.013714875094592571
1696965594944711200,0.851711181640625,-0.004394086077809334,-0.009587096981704235,-0.015845341607928276
1696965594954725000,0.86172509765625,-0.00226362026296556,0.02876129187643528,0.020372580736875534
1696965594964739300,0.8717392578125,0.006258244160562754,-0.0053261648863554,0.022503048181533813
1696965594974753300,0.881753173828125,0.0009320789249613881,-0.01704372838139534,-0.012649642303586006
1696965594984767200,0.891767333984375,-0.006524552125483751,-0.01491326279938221,-0.014780107885599136
1696965594994781400,0.901781494140625,-0.005459319334477186,0.03834838792681694,0.04913387447595596
1696965595004795400,0.91179541015625,-0.0001331541279796511,-0.0031956990715116262,0.007589785382151604
1696965595014809600,0.9218095703125,-0.004394086077809334,-0.01171756349503994,-0.001997311832383275
1696965595024823600,0.931823486328125,-0.007589785382151604,0.01917419396340847,0.010785484686493874
1696965595034837800,0.941837646484375,-0.0001331541279796511,-0.009587096981704235,0.015046416781842709
1696965595044851700,0.951851806640625,0.006258244160562754,0.01810896210372448,0.03528584539890289
1696965595054865700,0.96186572265625,-0.00226362026296556,-0.02236989326775074,-0.019041040912270546
1696965595064879900,0.9718798828125,-0.007589785382151604,0.0053261648863554,0.03528584539890289
1696965595074893800,0.981893798828125,-0.009720250964164734,0,-0.021171506494283676
1696965595084908000,0.991907958984375,0.001997311832383275,0.0426093190908432,0.07576470077037811
1696965595094922000,1.001921875,0.005193010903894901,-0.03621792420744896,-0.021171506494283676
1696965595104936200,1.011936279296875,-0.0001331541279796511,0.0010652330238372087,0.011850717477500439
1696965595114950100,1.0219501953125,-0.011850717477500439,0.0532616525888443,0.03848154470324516
1696965595124964400,1.03196435546875,-0.0011983871227130294,-0.0213046595454216,0.016111649572849274
1696965595134978300,1.041978271484375,0.005193010903894901,-0.00852186419069767,0.004394086077809334
1696965595144992300,1.0519921875,-0.00226362026296556,-0.0106523297727108,-0.013714875094592571
1696965595155006500,1.06200634765625,-0.005459319334477186,0.05645735189318657,0.060851436108350754
1696965595165020400,1.0720205078125,0.001997311832383275,0.009587096981704235,0.026763979345560074
1696965595175034600,1.08203466796875,0.001997311832383275,-0.0532616525888443,-0.035019535571336746
1696965595185048600,1.092048583984375,-0.005459319334477186,0.04367455467581749,0.034220609813928604
1696965595195062800,1.102062744140625,-0.005459319334477186,0.004260932095348835,-0.001997311832383275
1696965595205076700,1.11207666015625,0.0030625448562204838,0.02023942768573761,0.018242115154862404
1696965595215090700,1.122090576171875,0.0030625448562204838,-0.02023942768573761,-0.007323476951569319
1696965595225105000,1.13210498046875,-0.0011983871227130294,0.0053261648863554,0.0033288532868027687
1696965595235118800,1.142118896484375,-0.006524552125483751,0.03302222490310669,0.012915950268507004
1696965595245133000,1.152133056640625,0.001997311832383275,0.004260932095348835,0.009720250964164734
1696965595255147000,1.16214697265625,0.005193010903894901,0.0021304660476744175,0.0011983871227130294
1696965595265161200,1.1721611328125,-0.0033288532868027687,0.0010652330238372087,-0.004127778112888336
1696965595275175200,1.182175048828125,-0.005459319334477186,0.01384802907705307,0.0001331541279796511
1696965595285189000,1.192189208984375,0.0030625448562204838,0.03302222490310669,0.03528584539890289
1696965595295203300,1.202203369140625,0.006258244160562754,-0.02236989326775074,-0.011584409512579441
1696965595305217300,1.21221728515625,-0.00226362026296556,-0.0031956990715116262,-0.012649642303586006
1696965595315231500,1.2222314453125,-0.005459319334477186,0.04154408723115921,0.024633513763546944
1696965595325245400,1.232245361328125,0.004127778112888336,0.004260932095348835,0.015046416781842709
1696965595335259600,1.242259765625,0.005193010903894901,-0.009587096981704235,-0.0009320789249613881
1696965595345273600,1.252273681640625,-0.0011983871227130294,-0.0031956990715116262,-0.012649642303586006
1696965595355287600,1.26228759765625,-0.004394086077809334,0.03089175745844841,0.005459319334477186
1696965595365301800,1.2723017578125,0.004127778112888336,0.012782796286046505,0.025698747485876083
1696965595375315700,1.282315673828125,0.005193010903894901,-0.0106523297727108,-0.005193010903894901
1696965595385330000,1.292329833984375,0.001997311832383275,-0.01704372838139534,-0.020106272771954536
1696965595395344000,1.30234375,-0.00226362026296556,0.03621792420744896,0.007589785382151604
1696965595405358000,1.312358154296875,0.004127778112888336,0.0053261648863554,0.015046416781842709
1696965595415372000,1.3223720703125,0.005193010903894901,-0.00852186419069767,0.00226362026296556
1696965595425386000,1.332385986328125,-0.0001331541279796511,-0.01171756349503994,-0.017975807189941406
1696965595435400200,1.342400146484375,-0.00226362026296556,0.02023942768573761,-0.001997311832383275
1696965595445414100,1.3524140625,0.004127778112888336,0.0159784946590662,0.031024912372231483
1696965595455428400,1.362428466796875,0.006258244160562754,-0.004260932095348835,0.0033288532868027687
1696965595465442300,1.3724423828125,0.001997311832383275,-0.02876129187643528,-0.030758604407310486
1696965595475456500,1.38245654296875,-0.0033288532868027687,0.04047885537147522,0.019307348877191544
1696965595485470500,1.392470458984375,0.004127778112888336,0.012782796286046505,0.025698747485876083
1696965595495484400,1.402484375,0.004127778112888336,-0.012782796286046505,-0.004127778112888336
1696965595505498600,1.41249853515625,0.0009320789249613881,-0.01384802907705307,-0.017975807189941406
1696965595515512600,1.4225126953125,-0.0033288532868027687,0.02876129187643528,0.006524552125483751
1696965595525526800,1.43252685546875,0.001997311832383275,0.0159784946590662,0.034220609813928604
1696965595535540700,1.442540771484375,0.004127778112888336,-0.0063913981430232525,-0.0009320789249613881
1696965595545555000,1.452554931640625,0.0009320789249613881,-0.03089175745844841,-0.028628136962652206
1696965595555569000,1.46256884765625,-0.005459319334477186,0.04687025398015976,0.022503048181533813
1696965595565582800,1.472582763671875,0.001997311832383275,-0.0010652330238372087,0.009720250964164734
1696965595575597000,1.48259716796875,0.0030625448562204838,-0.0010652330238372087,0.009720250964164734
1696965595585611000,1.492611083984375,-0.0001331541279796511,-0.02023942768573761,-0.023301972076296806
1696965595595625200,1.502625244140625,-0.004394086077809334,0.02450035884976387,0.005459319334477186
1696965595605639200,1.51263916015625,-0.0001331541279796511,0.01917419396340847,0.03209014609456062
1696965595615653400,1.5226533203125,0.004127778112888336,-0.01384802907705307,-0.0030625448562204838
1696965595625667300,1.532667236328125,-0.0011983871227130294,-0.02023942768573761,-0.027562905102968216
1696965595635681500,1.542681640625,-0.006524552125483751,0.03089175745844841,0.017176883295178413
1696965595645695500,1.552695556640625,0.0009320789249613881,0.01491326279938221,0.026763979345560074
1696965595655709400,1.56270947265625,0.0030625448562204838,-0.0159784946590662,-0.001997311832383275
1696965595665723600,1.5727236328125,-0.00226362026296556,-0.01491326279938221,-0.026497671380639076
1696965595675737600,1.582737548828125,-0.004394086077809334,0.01917419396340847,0.008655018173158169
1696965595685751800,1.592751708984375,0.0009320789249613881,0.02769605815410614,0.040612008422613144
1696965595695765800,1.602765869140625,0.0030625448562204838,-0.02982652559876442,-0.004127778112888336
1696965595705780000,1.612780029296875,-0.0033288532868027687,-0.0213046595454216,-0.03928046673536301
1696965595715794000,1.6227939453125,-0.007589785382151604,0.03728315606713295,0.026763979345560074
1696965595725807900,1.632807861328125,0.001997311832383275,0.01171756349503994,0.03528584539890289
1696965595735822000,1.642822021484375,0.001997311832383275,-0.0319569893181324,-0.012649642303586006
1696965595745836000,1.6528359375,-0.006524552125483751,-0.01491326279938221,-0.033954303711652756
1696965595755850200,1.662850341796875,-0.006524552125483751,0.03728315606713295,0.03954677656292915
1696965595765864200,1.6728642578125,0.004127778112888336,0.012782796286046505,0.040612008422613144
1696965595775878400,1.68287841796875,-0.0011983871227130294,-0.0426093190908432,-0.040345702320337296
1696965595785892400,1.692892333984375,-0.009720250964164734,-0.007456631399691105,-0.027562905102968216
1696965595795906300,1.70290625,-0.0033288532868027687,0.05752258375287056,0.08854749798774719
1696965595805920500,1.71292041015625,0.004127778112888336,-0.02343512699007988,-0.011584409512579441
1696965595815934500,1.7229345703125,-0.006524552125483751,-0.03621792420744896,-0.061650361865758896
1696965595825948700,1.73294873046875,-0.006524552125483751,0.03408745676279068,0.07256899774074554
1696965595835962600,1.742962646484375,0.004127778112888336,0.0319569893181324,0.04593817517161369
1696965595845976800,1.752976806640625,-0.0011983871227130294,-0.07243584841489792,-0.07975932210683823
1696965595855990800,1.76299072265625,-0.009720250964164734,0.01704372838139534,0.027829213067889214
1696965595866004700,1.773004638671875,0.001997311832383275,0.05113118514418602,0.08428656309843063
1696965595876019000,1.78301904296875,0.0030625448562204838,-0.07030537724494934,-0.07656362652778625
1696965595886033000,1.793032958984375,-0.008655018173158169,-0.004260932095348835,0.004394086077809334
1696965595896047000,1.803047119140625,0.0009320789249613881,0.05113118514418602,0.09493889659643173
1696965595906061000,1.81306103515625,0.001997311832383275,-0.06284874677658081,-0.07656362652778625
1696965595916075300,1.8230751953125,-0.005459319334477186,-0.01171756349503994,0.015046416781842709
1696965595926089200,1.833089111328125,-0.0011983871227130294,0.04793548583984375,0.08854749798774719
1696965595936103200,1.843103271484375,-0.0011983871227130294,-0.06497921794652939,-0.07869409024715424
1696965595946117400,1.853117431640625,-0.004394086077809334,0.00852186419069767,0.053394805639982224
1696965595956131300,1.86313134765625,0.001997311832383275,0.01384802907705307,0.041677240282297134
1696965595966145500,1.8731455078125,-0.00226362026296556,-0.05752258375287056,-0.052063263952732086
1696965595976159500,1.883159423828125,-0.0011983871227130294,0.03941362351179123,0.09067796170711517
1696965595986173700,1.893173583984375,0.0009320789249613881,-0.04473978653550148,-0.031823836266994476
1696965595996187600,1.903187744140625,-0.0033288532868027687,-0.0063913981430232525,0.027829213067889214
1696965596006201600,1.91320166015625,0.001997311832383275,0.01491326279938221,0.04913387447595596
1696965596016215800,1.9232158203125,-0.0011983871227130294,-0.06710968166589737,-0.041410934180021286
1696965596026229800,1.933229736328125,-0.0011983871227130294,0.05006595328450203,0.09387365728616714
1696965596036244000,1.943243896484375,-0.0033288532868027687,-0.05645735189318657,-0.031823836266994476
1696965596046258000,1.9532578125,-0.0001331541279796511,-0.0063913981430232525,0.043807707726955414
1696965596056272100,1.963272216796875,-0.0011983871227130294,0.01917419396340847,0.04593817517161369
1696965596066286000,1.9732861328125,-0.00226362026296556,-0.07350108027458191,-0.023301972076296806
1696965596076300300,1.98330029296875,-0.0011983871227130294,0.05432688444852829,0.0874822586774826
1696965596086314200,1.993314208984375,-0.0033288532868027687,-0.08095771074295044,-0.042476166039705276
1696965596096328200,2.003328125,-0.0001331541279796511,0.03089175745844841,0.08428656309843063
1696965596106342400,2.01334228515625,-0.0033288532868027687,-0.03089175745844841,-0.009453942999243736
1696965596116356600,2.023356689453125,-0.0011983871227130294,-0.04900071769952774,0.013981183059513569
1696965596126370600,2.03337060546875,-0.0033288532868027687,0.04900071769952774,0.06937330216169357
1696965596136384800,2.043384765625,-0.0001331541279796511,-0.1065233051776886,-0.045671865344047546
1696965596146399000,2.05339892578125,-0.0033288532868027687,0.06497921794652939,0.09387365728616714
1696965596156413000,2.063412841796875,-0.0011983871227130294,-0.09161003679037094,-0.038215234875679016
1696965596166427100,2.07342724609375,-0.0033288532868027687,0.02023942768573761,0.06298190355300903
1696965596176441000,2.083441162109375,-0.0011983871227130294,-0.04154408723115921,0.006524552125483751
1696965596186455300,2.093455322265625,0.005193010903894901,-0.04900071769952774,0.006524552125483751
1696965596196469500,2.103469482421875,-0.005459319334477186,0.01491326279938221,0.048068638890981674
1696965596206483500,2.1134833984375,0.010519175790250301,-0.07669677585363388,-0.014780107885599136
1696965596216497700,2.12349755859375,-0.006524552125483751,0.01384802907705307,0.04593817517161369
1696965596226512000,2.133511962890625,0.014780107885599136,-0.06071828305721283,-0.006258244160562754
1696965596236525800,2.14352587890625,0.001997311832383275,-0.0031956990715116262,0.036351077258586884
1696965596246540000,2.1535400390625,0.022236740216612816,-0.05113118514418602,-0.0030625448562204838
1696965596256554200,2.16355419921875,0.025432437658309937,-0.05432688444852829,-0.0009320789249613881
1696965596266568200,2.173568115234375,0.038215234875679016,-0.04900071769952774,0.023568280041217804
1696965596276582400,2.18358251953125,0.06591129302978516,-0.15126308798789978,-0.06804175674915314
1696965596286596400,2.193596435546875,0.055258963257074356,-0.09161003679037094,0.017176883295178413
1696965596296610600,2.203610595703125,0.09893351793289185,-0.18748101592063904,-0.07656362652778625
1696965596306624800,2.213624755859375,0.11171631515026093,-0.13421936333179474,-0.014780107885599136
1696965596316638700,2.223638671875,0.12982527911663055,-0.1906767040491104,-0.055258963257074356
1696965596326653000,2.23365283203125,0.13089050352573395,-0.1374150663614273,-0.044606633484363556
1696965596336667100,2.243667236328125,0.1564560979604721,-0.20665520429611206,-0.025432437658309937
1696965596346681000,2.25368115234375,0.1681736707687378,-0.13102366030216217,-0.06910699605941772
1696965596356695300,2.2636953125,0.16604319214820862,-0.19919857382774353,-0.013714875094592571
1696965596366709500,2.27370947265625,0.17669552564620972,-0.11611039936542511,-0.06484606117010117
1696965596376723500,2.283723388671875,0.17136935889720917,-0.14167599380016327,0.006524552125483751
1696965596386737700,2.293737548828125,0.19267402589321136,-0.14167599380016327,-0.043541401624679565
1696965596396751600,2.303751708984375,0.1894783228635788,-0.13208889961242676,0.006524552125483751
1696965596406765800,2.313765869140625,0.2001306563615799,-0.12250179797410965,-0.019041040912270546
1696965596416780000,2.323780029296875,0.2533923089504242,-0.15552401542663574,0.0001331541279796511
1696965596426794000,2.3337939453125,0.251261830329895,-0.09054480493068695,0.008655018173158169
1696965596436808200,2.34380810546875,0.24380521476268768,-0.15339355170726776,0.024633513763546944
1696965596446822400,2.353822509765625,0.24380521476268768,-0.22795987129211426,0.04913387447595596
1696965596456836400,2.36383642578125,0.24593567848205566,-0.256721168756485,0.048068638890981674
1696965596466850600,2.3738505859375,0.24380521476268768,-0.2460688352584839,0.058720968663692474
1696965596476864800,2.38386474609375,0.23847904801368713,-0.23222079873085022,0.050199106335639954
1696965596486878700,2.393878662109375,0.21504391729831696,0.16511112451553345,-0.004127778112888336
1696965596496893000,2.403892822265625,0.20652204751968384,0.02982652559876442,0.004394086077809334
1696965596506907000,2.413906982421875,0.20439158380031586,0.12463226169347763,0.024633513763546944
1696965596516921000,2.423921142578125,0.22356578707695007,0.17576344311237335,-0.010519175790250301
1696965596526935300,2.433935302734375,0.2416747361421585,0.1480673849582672,0.015046416781842709
1696965596536949200,2.44394921875,0.25978371500968933,0.14593692123889923,0.017176883295178413
1696965596546963500,2.45396337890625,0.2651098668575287,0.20026381313800812,-0.001997311832383275
1696965596556977700,2.463977783203125,0.25978371500968933,0.11611039936542511,0.00226362026296556
1696965596566991600,2.47399169921875,0.2533923089504242,-0.012782796286046505,0.007589785382151604
1696965596577005800,2.484005859375,0.2533923089504242,-0.04047885537147522,0.008655018173158169
1696965596587019800,2.494019775390625,0.25871846079826355,0.05645735189318657,0.007589785382151604
1696965596597034000,2.504033935546875,0.25978371500968933,0.02663082629442215,-0.007323476951569319
1696965596607048200,2.514048095703125,0.22250054776668549,-0.02556559257209301,0.010785484686493874
1696965596617062100,2.524062255859375,0.20758728682994843,-0.02556559257209301,0.008655018173158169
1696965596627076400,2.534076416015625,0.1692388951778412,-0.0063913981430232525,0.005459319334477186
1696965596637090600,2.544090576171875,0.13941237330436707,0.02663082629442215,0.015046416781842709
1696965596647104500,2.5541044921875,0.08721595257520676,0.01171756349503994,0.006524552125483751
1696965596657118700,2.56411865234375,0.044606633484363556,-0.0031956990715116262,0.013981183059513569
1696965596667132700,2.574132568359375,-0.020372580736875534,0.05219641700387001,0.019307348877191544
1696965596677146600,2.584146728515625,-0.016111649572849274,0.01810896210372448,0.006524552125483751
1696965596687160800,2.594160888671875,-0.018242115154862404,0.007456631399691105,0.024633513763546944
1696965596697174800,2.6041748046875,-0.015046416781842709,0.02023942768573761,0.011850717477500439
1696965596707189000,2.61418896484375,-0.016111649572849274,0.0159784946590662,0.022503048181533813
1696965596717203000,2.624202880859375,-0.015046416781842709,-0.0031956990715116262,0.015046416781842709
1696965596727217200,2.634217041015625,-0.017176883295178413,0.02236989326775074,0.015046416781842709
1696965596737231000,2.644231201171875,-0.012915950268507004,0.02023942768573761,0.020372580736875534
1696965596747245000,2.6542451171875,-0.015046416781842709,-0.0106523297727108,0.016111649572849274
1696965596757259300,2.66425927734375,-0.012915950268507004,0.00852186419069767,0.013981183059513569
1696965596767273200,2.674273193359375,-0.013981183059513569,0.0106523297727108,0.017176883295178413
1696965596777287400,2.684287353515625,-0.012915950268507004,0,0.009720250964164734
1696965596787301400,2.69430126953125,-0.011850717477500439,0.0031956990715116262,0.012915950268507004
1696965596797315600,2.704315673828125,-0.010785484686493874,0.0031956990715116262,0.009720250964164734
1696965596807329500,2.71432958984375,-0.011850717477500439,0.007456631399691105,0.008655018173158169
1696965596817343500,2.724343505859375,-0.011850717477500439,0.02343512699007988,0.007589785382151604
1696965596827357700,2.734357666015625,-0.009720250964164734,-0.00852186419069767,0.008655018173158169
1696965596837371600,2.74437158203125,-0.011850717477500439,0.03834838792681694,0.006524552125483751
1696965596847385900,2.7543857421875,-0.011850717477500439,0.03089175745844841,0.007589785382151604
1696965596857399800,2.76439990234375,-0.010785484686493874,0.01491326279938221,0.008655018173158169
1696965596867414000,2.7744140625,-0.011850717477500439,0.03515268862247467,0.004394086077809334
1696965596877428000,2.784427978515625,-0.011850717477500439,0.03941362351179123,0.013981183059513569
1696965596887442000,2.79444189453125,-0.010785484686493874,0.03302222490310669,0.007589785382151604
1696965596897456000,2.8044560546875,-0.013981183059513569,0.04154408723115921,0.018242115154862404
1696965596907470000,2.814469970703125,-0.011850717477500439,0.01171756349503994,0.009720250964164734
1696965596917484300,2.824484375,-0.011850717477500439,0.05645735189318657,0.022503048181533813
1696965596927498200,2.834498291015625,-0.009720250964164734,-0.02023942768573761,0.015046416781842709
1696965596937512400,2.844512451171875,-0.015046416781842709,0.007456631399691105,0.021437814459204674
1696965596947526400,2.8545263671875,-0.013981183059513569,0.02876129187643528,0.021437814459204674
1696965596957540600,2.86454052734375,-0.015046416781842709,-0.0021304660476744175,0.023568280041217804
1696965596967554600,2.874554443359375,-0.013981183059513569,-0.04580501839518547,0.025698747485876083
1696965596977568800,2.88456884765625,-0.020372580736875534,0.03089175745844841,0.03209014609456062
1696965596987583000,2.8945830078125,-0.015046416781842709,-0.04047885537147522,0.024633513763546944
1696965596997597000,2.904596923828125,-0.022503048181533813,-0.0031956990715116262,0.036351077258586884
1696965597007611100,2.914611083984375,-0.019307348877191544,-0.04473978653550148,0.03954677656292915
1696965597017625000,2.924625,-0.026763979345560074,0.02343512699007988,0.040612008422613144
1696965597027639300,2.934639404296875,-0.023568280041217804,-0.04367455467581749,0.040612008422613144
1696965597037653500,2.944653564453125,-0.028894444927573204,-0.009587096981704235,0.057655736804008484
1696965597047667500,2.95466748046875,-0.025698747485876083,-0.03515268862247467,0.040612008422613144
1696965597057681700,2.964681640625,-0.029959678649902344,0.0106523297727108,0.07256899774074554
1696965597067695900,2.97469580078125,-0.026763979345560074,-0.04580501839518547,0.047003407031297684
1696965597077709800,2.984709716796875,-0.031024912372231483,0.007456631399691105,0.08215609937906265
1696965597087724000,2.99472412109375,-0.025698747485876083,-0.06604444980621338,0.05659050494432449
1696965597097738200,3.00473828125,-0.029959678649902344,0.0010652330238372087,0.09067796170711517
1696965597107752200,3.014752197265625,-0.024633513763546944,-0.0745663121342659,0.07043853402137756
1696965597117766400,3.024766357421875,-0.027829213067889214,0.0010652330238372087,0.11304785311222076
1696965597127780400,3.0347802734375,-0.025698747485876083,-0.0745663121342659,0.07576470077037811
1696965597137794600,3.044794677734375,-0.025698747485876083,-0.0159784946590662,0.1418091505765915
1696965597147808800,3.054808837890625,-0.022503048181533813,-0.06710968166589737,0.09067796170711517
1696965597157822700,3.06482275390625,-0.023568280041217804,0,0.16524426639080048
1696965597167837000,3.0748369140625,-0.021437814459204674,-0.05539211630821228,0.12263495475053787
1696965597177851100,3.08485107421875,-0.021437814459204674,0.0021304660476744175,0.1844184696674347
1696965597187865000,3.094864990234375,-0.016111649572849274,-0.03621792420744896,0.15778763592243195
1696965597197879300,3.10487939453125,-0.019307348877191544,-0.0010652330238372087,0.2142449915409088
1696965597207893500,3.1148935546875,-0.025698747485876083,-0.22902509570121765,0.20039696991443634
1696965597217907500,3.124907470703125,-0.022503048181533813,-0.07030537724494934,0.21104928851127625
1696965597227921700,3.134921630859375,-0.024633513763546944,0.08202294260263443,0.20359265804290771
1696965597237935600,3.144935546875,-0.013981183059513569,-0.1288931965827942,0.21211452782154083
1696965597247949800,3.15494970703125,-0.020372580736875534,0.004260932095348835,0.2142449915409088
1696965597257964000,3.164964111328125,-0.011850717477500439,0.0106523297727108,0.21211452782154083
1696965597267978000,3.17497802734375,-0.012915950268507004,-0.0958709716796875,0.2248973250389099
1696965597277992200,3.1849921875,-0.013981183059513569,-0.06284874677658081,0.20039696991443634
1696965597288006400,3.19500634765625,-0.020372580736875534,-0.07137060910463333,0.23448441922664642
1696965597298020400,3.205020263671875,-0.018242115154862404,-0.14380645751953125,0.18548369407653809
1696965597308034600,3.21503466796875,-0.03848154470324516,0.02236989326775074,0.22170162200927734
1696965597318048800,3.225048828125,-0.066177599132061,-0.0213046595454216,0.19933173060417175
1696965597328062700,3.235062744140625,-0.07896039634943008,-0.09480573982000351,0.20146219432353973
1696965597338077000,3.245076904296875,-0.057655736804008484,-0.12463226169347763,0.1950708031654358
1696965597348091000,3.2550908203125,-0.0991998240351677,-0.0063913981430232525,0.1940055638551712
1696965597358105000,3.26510498046875,-0.11837401986122131,0.007456631399691105,0.17696183919906616
1696965597368119300,3.275119384765625,-0.11411308497190475,0.02876129187643528,0.1822880059480667
1696965597378133200,3.28513330078125,-0.08428656309843063,0.0159784946590662,0.16417904198169708
1696965597388147500,3.2951474609375,-0.05232957378029823,0.02450035884976387,0.1620485782623291
1696965597398161700,3.30516162109375,-0.016111649572849274,-0.04473978653550148,0.13861344754695892
1696965597408175600,3.315175537109375,-0.020372580736875534,-0.02663082629442215,0.14393961429595947
1696965597418189800,3.32518994140625,-0.017176883295178413,0.0063913981430232525,0.10026505589485168
1696965597428204000,3.3352041015625,-0.017176883295178413,0.07243584841489792,0.10452599078416824
1696965597438218000,3.345218017578125,-0.016111649572849274,-0.03408745676279068,0.066177599132061
1696965597448232200,3.355232177734375,-0.013981183059513569,-0.0106523297727108,0.06404713541269302
1696965597458246100,3.36524609375,-0.007589785382151604,0.0213046595454216,0.029959678649902344
1696965597468260400,3.37526025390625,-0.009720250964164734,-0.009587096981704235,0.020372580736875534
1696965597478274600,3.385274658203125,-0.008655018173158169,-0.03834838792681694,-0.008388710208237171
1696965597488288500,3.39528857421875,-0.005459319334477186,-0.03621792420744896,-0.023301972076296806
1696965597498302700,3.405302734375,-0.005459319334477186,-0.10545806586742401,-0.03928046673536301
1696965597508317200,3.415317138671875,-0.004394086077809334,-0.04367455467581749,-0.06271559745073318
1696965597518331400,3.425331298828125,-0.0001331541279796511,-0.02982652559876442,-0.08402025699615479
1696965597528345600,3.435345703125,0.012649642303586006,-0.13315412402153015,-0.11917294561862946
1696965597538359800,3.44535986328125,0.023301972076296806,-0.07030537724494934,-0.11065108329057693
1696965597548374000,3.4553740234375,0.028628136962652206,-0.007456631399691105,-0.16604319214820862
1696965597558388000,3.465387939453125,0.058454662561416626,-0.07776200771331787,-0.1564560979604721
1696965597568402000,3.47540185546875,0.0723026916384697,-0.07030537724494934,-0.18308693170547485
1696965597578416000,3.485416015625,0.07975932210683823,-0.0063913981430232525,-0.19054356217384338
1696965597588430000,3.49543017578125,0.0723026916384697,0.0159784946590662,-0.2203700840473175
1696965597598444300,3.5054443359375,0.07443315535783768,0.05432688444852829,-0.2203700840473175
1696965597608458200,3.515458251953125,0.10532491654157639,0.0053261648863554,-0.2533923089504242
1696965597618472400,3.525472412109375,0.1351514458656311,-0.02343512699007988,-0.25765323638916016
1696965597628486400,3.535486328125,0.1671084314584732,0.05006595328450203,-0.2821536064147949
1696965597638500400,3.545500244140625,0.21397867798805237,0.02343512699007988,-0.30132779479026794
1696965597648514600,3.5555146484375,0.2661750912666321,-0.02556559257209301,-0.30132779479026794
1696965597658528500,3.565528564453125,0.3183715343475342,-0.0213046595454216,-0.32263246178627014
1696965597668542700,3.575542724609375,0.3716331720352173,-0.02343512699007988,-0.3045234978199005
1696965597678556700,3.585556640625,0.25658801198005676,-0.5688344240188599,-0.3386109471321106
1696965597688571000,3.59557080078125,-0.0768299326300621,-0.26311254501342773,-0.3375457227230072
1696965597698584800,3.605584716796875,-0.21744069457054138,0.4282236695289612,-0.3183715343475342
1696965597708598800,3.615598876953125,-0.11517832428216934,0.18641577661037445,-0.335415244102478
1696965597718613000,3.625613037109375,-0.11411308497190475,-0.09161003679037094,-0.33328479528427124
1696965597728627000,3.635626953125,-0.044872939586639404,0.15339355170726776,-0.32156720757484436
1696965597738641200,3.64564111328125,-0.004394086077809334,0.2545906901359558,-0.316241055727005
1696965597748655000,3.655655029296875,-0.005459319334477186,-0.0063913981430232525,-0.30239301919937134
1696965597758669300,3.66566943359375,-0.012915950268507004,0.05965305119752884,-0.31411057710647583
1696965597768683300,3.675683349609375,-0.016111649572849274,0.19600287079811096,-0.2938711643218994
1696965597778697500,3.685697509765625,-0.023568280041217804,0.06604444980621338,-0.2938711643218994
1696965597788711400,3.69571142578125,-0.023568280041217804,0.04367455467581749,-0.2651098668575287
1696965597798725400,3.705725341796875,-0.067242830991745,0.03728315606713295,-0.2629793882369995
1696965597808739600,3.715739501953125,-0.067242830991745,0.13421936333179474,-0.2523270845413208
1696965597818753500,3.72575341796875,-0.11411308497190475,0.0639139786362648,-0.21504391729831696
1696965597828767700,3.735767822265625,-0.25259336829185486,0.0745663121342659,-0.22676147520542145
1696965597838781700,3.74578173828125,-0.34633389115333557,0.17363297939300537,-0.19586972892284393
1696965597848796000,3.7557958984375,-0.5242277979850769,0.0532616525888443,-0.19267402589321136
1696965597858809900,3.765809814453125,-0.5700328350067139,0.16191542148590088,-0.17456506192684174
1696965597868823800,3.77582373046875,-0.6105116605758667,0.04047885537147522,-0.1351514458656311
1696965597878838000,3.785838134765625,-0.685077965259552,0.10971900075674057,-0.145803764462471
1696965597888852000,3.79585205078125,-0.6275554299354553,0.16191542148590088,-0.09786828607320786
1696965597898866200,3.8058662109375,-0.6595124006271362,0.0053261648863554,-0.11917294561862946
1696965597908880100,3.815880126953125,-0.5742937326431274,0.31530898809432983,-0.11171631515026093
1696965597918894300,3.825894287109375,-0.38042134046554565,0.0852186381816864,-0.060585130006074905
1696965597928908300,3.835908203125,-0.2994636297225952,0.0031956990715116262,-0.0936073511838913
1696965597938922500,3.845922607421875,-0.1311568170785904,0.18428531289100647,-0.05312849581241608
1696965597948936400,3.8559365234375,-0.11091738939285278,-0.10332760214805603,-0.057389430701732635
1696965597958950700,3.86595068359375,-0.1716356724500656,0.07350108027458191,-0.07549838721752167
1696965597968964900,3.87596484375,-0.20678836107254028,0.05965305119752884,-0.021171506494283676
1696965597978978800,3.885978759765625,-0.3846822679042816,-0.13528458774089813,-0.057389430701732635
1696965597988993000,3.895992919921875,-0.4091826379299164,0.2247641682624817,-0.044606633484363556
1696965597999007200,3.90600732421875,-0.3442034125328064,-0.03834838792681694,-0.019041040912270546
1696965598009021200,3.916021240234375,-0.37935611605644226,-0.1065233051776886,-0.04993279650807381
1696965598019035400,3.926035400390625,-0.28668084740638733,0.16830681264400482,-0.04673709720373154
1696965598029049600,3.936049560546875,-0.24939768016338348,-0.11078423261642456,-0.022236740216612816
1696965598039063600,3.9460634765625,-0.2792242169380188,0.009587096981704235,-0.08188978582620621
1696965598049077800,3.956077880859375,-0.12156971544027328,0.19813334941864014,-0.040345702320337296
1696965598059091700,3.966091796875,-0.10559122264385223,-0.08415340632200241,-0.06484606117010117
1696965598069106000,3.97610595703125,-0.061916667968034744,0.11504516750574112,-0.09786828607320786
1696965598079120100,3.9861201171875,-0.020372580736875534,0.10013190656900406,-0.052063263952732086
1696965598089134000,3.996134033203125,-0.09493889659643173,-0.1171756312251091,-0.12236864119768143
1696965598099148300,4.006148193359375,-0.06511236727237701,0.25032976269721985,-0.09893351793289185
1696965598109162500,4.01616259765625,-0.060851436108350754,0.03089175745844841,-0.10852061212062836
1696965598119176400,4.026176513671875,-0.053394805639982224,-0.03621792420744896,-0.145803764462471
1696965598129190700,4.036190673828125,-0.016111649572849274,0.1171756312251091,-0.13728190958499908
1696965598139204900,4.046204833984375,-0.013981183059513569,-0.0319569893181324,-0.15112993121147156
1696965598149218800,4.05621875,-0.021437814459204674,0.07137060910463333,-0.17136935889720917
1696965598159233000,4.06623291015625,-0.016111649572849274,0.05965305119752884,-0.17349982261657715
1696965598169247000,4.0762470703125,-0.015046416781842709,0.02023942768573761,-0.17989122867584229
1696965598179261200,4.08626123046875,-0.018242115154862404,0.06497921794652939,-0.20758728682994843
1696965598189275400,4.096275390625,-0.017176883295178413,0.05965305119752884,-0.1788259893655777
1696965598199289300,4.106289306640625,-0.021437814459204674,0.007456631399691105,-0.2118482142686844
1696965598209303600,4.116303466796875,-0.021437814459204674,0.08841434121131897,-0.2118482142686844
1696965598219317800,4.12631787109375,-0.017176883295178413,0.03515268862247467,-0.19800019264221191
1696965598229331700,4.136331787109375,-0.016111649572849274,0.03834838792681694,-0.21610915660858154
1696965598239346000,4.146345947265625,-0.019307348877191544,0.0745663121342659,-0.20332635939121246
1696965598249360100,4.156360107421875,-0.016111649572849274,-0.01171756349503994,-0.19693495333194733
1696965598259374000,4.1663740234375,-0.016111649572849274,0.03941362351179123,-0.19800019264221191
1696965598269388300,4.17638818359375,-0.020372580736875534,0.012782796286046505,-0.18628261983394623
1696965598279402200,4.18640234375,-0.017176883295178413,0.009587096981704235,-0.1681736707687378
1696965598289416400,4.19641650390625,-0.017176883295178413,0.00852186419069767,-0.1681736707687378
1696965598299430700,4.2064306640625,-0.018242115154862404,0.06497921794652939,-0.14154283702373505
1696965598309444600,4.216444580078125,-0.016111649572849274,0.0159784946590662,-0.12769481539726257
1696965598319458800,4.226458740234375,-0.015046416781842709,0.03621792420744896,-0.11704248189926147
1696965598329473000,4.23647314453125,-0.019307348877191544,0.0532616525888443,-0.09680305421352386
1696965598339487000,4.246487060546875,-0.015046416781842709,0.03728315606713295,-0.07869409024715424
1696965598349501200,4.256501220703125,-0.015046416781842709,0.01171756349503994,-0.061650361865758896
1696965598359515400,4.266515380859375,-0.018242115154862404,0.00852186419069767,-0.04993279650807381
1696965598369529300,4.276529296875,-0.015046416781842709,-0.007456631399691105,-0.017975807189941406
1696965598379543600,4.28654345703125,-0.018242115154862404,-0.0213046595454216,0.00226362026296556
1696965598389557500,4.2965576171875,-0.025698747485876083,-0.0106523297727108,0.015046416781842709
1696965598399571700,4.30657177734375,-0.018242115154862404,-0.05645735189318657,0.04274247586727142
1696965598409586000,4.3165859375,-0.019307348877191544,-0.03728315606713295,0.07150376588106155
1696965598419600000,4.326599853515625,-0.029959678649902344,-0.07669677585363388,0.08428656309843063
1696965598429614000,4.336614013671875,-0.021437814459204674,-0.07563154399394989,0.1418091505765915
1696965598439628300,4.346628173828125,-0.023568280041217804,-0.07776200771331787,0.13222205638885498
1696965598449642200,4.356642333984375,-0.029959678649902344,-0.03941362351179123,0.18548369407653809
1696965598459656400,4.366656494140625,-0.023568280041217804,-0.06178351491689682,0.21211452782154083
1696965598469670400,4.37667041015625,-0.026763979345560074,-0.0639139786362648,0.23022349178791046
1696965598479684600,4.3866845703125,-0.033155377954244614,-0.07350108027458191,0.25152814388275146
1696965598489698800,4.39669873046875,-0.023568280041217804,-0.04900071769952774,0.3133116662502289
1696965598499712800,4.406712646484375,-0.026763979345560074,-0.12250179797410965,0.30692026019096375
1696965598509727000,4.41672705078125,-0.033155377954244614,-0.0532616525888443,0.32396399974823
1696965598519741200,4.4267412109375,-0.017176883295178413,-0.12356702983379364,0.3750951886177063
1696965598529755100,4.436755126953125,-0.020372580736875534,-0.03408745676279068,0.34633389115333557
1696965598539769300,4.446769287109375,-0.009720250964164734,-0.10439283400774002,0.38042134046554565
1696965598549783300,4.456783203125,0.054193731397390366,-0.02982652559876442,0.4049217104911804
1696965598559797500,4.466797607421875,0.045671865344047546,-0.1704372763633728,0.3772256374359131
1696965598569811500,4.4768115234375,0.028628136962652206,-0.10865376889705658,0.3942693769931793
1696965598579825400,4.486825439453125,-0.00226362026296556,-0.1171756312251091,0.3974650800228119
1696965598589839600,4.496839599609375,-0.010785484686493874,-0.08415340632200241,0.3633776009082794
1696965598599853600,4.506853515625,-0.00226362026296556,-0.10971900075674057,0.38255181908607483
1696965598609867800,4.51686767578125,-0.005459319334477186,-0.08947957307100296,0.3655080795288086
1696965598619881700,4.5268818359375,-0.019307348877191544,-0.06071828305721283,0.343138188123703
1696965598629896000,4.53689599609375,-0.054460037499666214,-0.11078423261642456,0.3452686667442322
1696965598639910000,4.546909912109375,-0.1290263533592224,-0.04580501839518547,0.3101159632205963
1696965598649923800,4.556923828125,-0.10133028775453568,-0.04047885537147522,0.29520270228385925
1696965598659938000,4.56693798828125,-0.10133028775453568,-0.05965305119752884,0.29520270228385925
1696965598669952000,4.576951904296875,-0.32609444856643677,0.0639139786362648,0.2568543255329132
1696965598679966200,4.58696630859375,-0.3953346014022827,0.07563154399394989,0.25898477435112
1696965598689980200,4.596980224609375,-0.42516112327575684,-0.0159784946590662,0.22809302806854248
1696965598699994400,4.606994384765625,-0.5103797912597656,0.09906667470932007,0.20039696991443634
1696965598710008300,4.61700830078125,-0.5167711973190308,0.02236989326775074,0.18867939710617065
1696965598720022500,4.6270224609375,-0.5146406888961792,-0.06817491352558136,0.16737474501132965
1696965598730036500,4.637036376953125,-0.4730966091156006,0.07989247888326645,0.13328728079795837
1696965598740050400,4.647050537109375,-0.43261775374412537,0.01384802907705307,0.1290263533592224
1696965598750064600,4.657064697265625,-0.3548557460308075,-0.0745663121342659,0.10985215753316879
1696965598760078600,4.66707861328125,-0.2920069992542267,-0.004260932095348835,0.06298190355300903
1696965598770092800,4.6770927734375,-0.19826649129390717,-0.02556559257209301,0.05659050494432449
1696965598780106800,4.687106689453125,-0.14500483870506287,-0.0426093190908432,0.027829213067889214
1696965598790121000,4.697120849609375,-0.08641702681779861,0.02769605815410614,-0.001997311832383275
1696965598800135000,4.707135009765625,-0.033155377954244614,0.00852186419069767,-0.001997311832383275
1696965598810148900,4.71714892578125,-0.0001331541279796511,0,-0.048867564648389816
1696965598820163000,4.7271630859375,0.004127778112888336,-0.05006595328450203,-0.029693370684981346
1696965598830177000,4.737177001953125,-0.023568280041217804,-0.05858781561255455,-0.055258963257074356
1696965598840191200,4.747191162109375,-0.051264338195323944,-0.01810896210372448,-0.07656362652778625
1696965598850205200,4.757205078125,-0.07363422960042953,-0.06071828305721283,-0.05312849581241608
1696965598860219400,4.767219482421875,-0.08215609937906265,-0.01810896210372448,-0.08082455396652222
1696965598870233300,4.7772333984375,-0.08428656309843063,0.03089175745844841,-0.08615072071552277
1696965598880247300,4.787247314453125,-0.07896039634943008,-0.01704372838139534,-0.07549838721752167
1696965598890261500,4.797261474609375,-0.07043853402137756,0.00852186419069767,-0.1042596846818924
1696965598900275500,4.807275390625,-0.08535179495811462,0,-0.08188978582620621
1696965598910289700,4.81728955078125,-0.11837401986122131,-0.01810896210372448,-0.09041165560483932
1696965598920303600,4.8273037109375,-0.12370018661022186,0.05113118514418602,-0.10212921351194382
1696965598930317800,4.83731787109375,-0.16950520873069763,0.02769605815410614,-0.07443315535783768
1696965598940331800,4.847331787109375,-0.172700896859169,-0.012782796286046505,-0.11171631515026093
1696965598950345700,4.857345703125,-0.1822880059480667,-0.0010652330238372087,-0.08402025699615479
1696965598960360000,4.86735986328125,-0.21850591897964478,-0.0106523297727108,-0.08615072071552277
1696965598970374100,4.8773740234375,-0.24087581038475037,-0.01171756349503994,-0.08508548885583878
1696965598980388000,4.88738818359375,-0.28668084740638733,-0.05539211630821228,-0.08721595257520676
1696965598990402300,4.89740234375,-0.3228987455368042,-0.07350108027458191,-0.06804175674915314
1696965599000416300,4.907416259765625,-0.3527252972126007,-0.03515268862247467,-0.09680305421352386
1696965599010430500,4.917430419921875,-0.34846433997154236,-0.20665520429611206,-0.048867564648389816
1696965599020444700,4.927444580078125,-0.3090507388114929,-0.12250179797410965,-0.07869409024715424
1696965599030458600,4.937458740234375,-0.2898765504360199,0.0213046595454216,-0.07762885838747025
1696965599040472800,4.947472900390625,-0.32396399974823,0.03728315606713295,-0.08828118443489075
1696965599050487000,4.957487060546875,-0.3122464418411255,0.11184946447610855,-0.0723026916384697
1696965599060501000,4.9675009765625,-0.3090507388114929,0.05006595328450203,-0.09680305421352386
1696965599070515200,4.97751513671875,-0.3101159632205963,0.03408745676279068,-0.03288906812667847
1696965599080529200,4.987529052734375,-0.32715970277786255,0.06071828305721283,-0.057389430701732635
1696965599090543400,4.99754345703125,-0.3005288541316986,0.00852186419069767,-0.009453942999243736
1696965599100557600,5.0075576171875,-0.30478981137275696,-0.0063913981430232525,-0.007323476951569319
1696965599110571500,5.017571533203125,-0.27602851390838623,0.03408745676279068,-0.013714875094592571
1696965599120585700,5.027585693359375,-0.27496325969696045,-0.02982652559876442,0.048068638890981674
1696965599130600000,5.037599853515625,-0.33674678206443787,0.04687025398015976,0.005459319334477186
1696965599140614000,5.04761376953125,-0.2802894413471222,0.03302222490310669,0.027829213067889214
1696965599150628000,5.057628173828125,-0.2675066292285919,-0.0021304660476744175,0.05978620424866676
1696965599160642300,5.067642333984375,-0.27496325969696045,0.05539211630821228,0.013981183059513569
1696965599170656300,5.07765625,-0.2259625494480133,0.0031956990715116262,0.07150376588106155
1696965599180670500,5.08767041015625,-0.237680122256279,0.04367455467581749,0.03954677656292915
1696965599190684400,5.097684326171875,-0.17483137547969818,0.03621792420744896,0.047003407031297684
1696965599200698600,5.10769873046875,-0.14713531732559204,0.012782796286046505,0.067242830991745
1696965599210712800,5.117712890625,-0.13861344754695892,0.03408745676279068,0.040612008422613144
1696965599220726800,5.127726806640625,-0.10133028775453568,0.004260932095348835,0.06511236727237701
1696965599230741000,5.137740966796875,-0.058720968663692474,0.03515268862247467,0.04913387447595596
1696965599240755200,5.147755126953125,-0.03954677656292915,-0.02236989326775074,0.060851436108350754
1696965599250769200,5.15776904296875,-0.03528584539890289,0.01171756349503994,0.051264338195323944
1696965599260783400,5.167783447265625,-0.007589785382151604,-0.0319569893181324,0.066177599132061
1696965599270797600,5.177797607421875,0.010519175790250301,-0.0021304660476744175,0.07043853402137756
1696965599280811500,5.1878115234375,0.007323476951569319,0.02663082629442215,0.043807707726955414
1696965599290825700,5.19782568359375,0.013714875094592571,0.01917419396340847,0.05659050494432449
1696965599300839700,5.207839599609375,0.011584409512579441,0.03408745676279068,0.051264338195323944
1696965599310854000,5.21785400390625,0.009453942999243736,0.03089175745844841,0.043807707726955414
1696965599320868000,5.2278681640625,0.011584409512579441,0.02450035884976387,0.05659050494432449
1696965599330882000,5.237882080078125,0.006258244160562754,0.02876129187643528,0.03209014609456062
1696965599340896300,5.247896240234375,0.010519175790250301,0.01491326279938221,0.060851436108350754
1696965599350910500,5.257910400390625,0.0030625448562204838,0.0426093190908432,0.021437814459204674
1696965599360924400,5.26792431640625,0.005193010903894901,-0.0010652330238372087,0.05659050494432449
1696965599370938600,5.277938720703125,0.005193010903894901,0.03408745676279068,0.027829213067889214
1696965599380952800,5.287952880859375,0.0009320789249613881,0.02982652559876442,0.018242115154862404
1696965599390966800,5.297966796875,0.005193010903894901,0.0053261648863554,0.029959678649902344
1696965599400981000,5.30798095703125,-0.0001331541279796511,0.02343512699007988,0.00226362026296556
1696965599410995000,5.317994873046875,0.001997311832383275,-0.0213046595454216,0.023568280041217804
1696965599421009200,5.328009033203125,0.001997311832383275,0.01704372838139534,-0.007323476951569319
1696965599431023400,5.3380234375,0.004127778112888336,-0.01704372838139534,0.022503048181533813
1696965599441037300,5.348037353515625,0.008388710208237171,0.02556559257209301,-0.024367205798625946
1696965599451051500,5.358051513671875,0.006258244160562754,-0.012782796286046505,0.015046416781842709
1696965599461065700,5.368065673828125,0.012649642303586006,0.0213046595454216,0.0011983871227130294
1696965599471079700,5.37807958984375,0.009453942999243736,-0.007456631399691105,0.0001331541279796511
1696965599481094000,5.388093994140625,0.013714875094592571,0.03089175745844841,-0.0030625448562204838
1696965599491108000,5.398108154296875,0.013714875094592571,-0.0063913981430232525,0.007589785382151604
1696965599501122000,5.4081220703125,0.015845341607928276,0.02876129187643528,-0.016910573467612267
1696965599511136300,5.41813623046875,0.015845341607928276,-0.0031956990715116262,0.010785484686493874
1696965599521150200,5.428150146484375,0.014780107885599136,0.02236989326775074,-0.016910573467612267
1696965599531164400,5.438164306640625,0.019041040912270546,0.0031956990715116262,0.009720250964164734
1696965599541178400,5.448178466796875,0.015845341607928276,0.0010652330238372087,-0.014780107885599136
1696965599551192600,5.458192626953125,0.017975807189941406,-0.0021304660476744175,0.007589785382151604
1696965599561206500,5.46820654296875,0.016910573467612267,-0.0106523297727108,-0.010519175790250301
1696965599571220700,5.478220703125,0.012649642303586006,0,-0.009453942999243736
1696965599581234700,5.488234619140625,0.016910573467612267,-0.0159784946590662,0.0001331541279796511
1696965599591249000,5.498248779296875,0.010519175790250301,-0.0053261648863554,-0.021171506494283676
1696965599601262800,5.508262939453125,0.014780107885599136,-0.02023942768573761,0.011850717477500439
1696965599611277000,5.518277099609375,0.010519175790250301,0.0021304660476744175,-0.028628136962652206
1696965599621291000,5.528291015625,0.007323476951569319,-0.02236989326775074,0.013981183059513569
1696965599631305000,5.538304931640625,0.007323476951569319,0.01491326279938221,-0.027562905102968216
1696965599641319200,5.548319091796875,0.004127778112888336,-0.02023942768573761,0.004394086077809334
1696965599651333000,5.5583330078125,0.005193010903894901,-0.007456631399691105,-0.009453942999243736
1696965599661347300,5.568347412109375,0.001997311832383275,-0.0106523297727108,-0.014780107885599136
1696965599671361300,5.578361328125,0.001997311832383275,-0.01917419396340847,0.005459319334477186
1696965599681375500,5.58837548828125,0.001997311832383275,-0.01704372838139534,-0.008388710208237171
1696965599691389400,5.598389404296875,-0.0011983871227130294,-0.0159784946590662,-0.006258244160562754
1696965599701403400,5.6084033203125,0.0030625448562204838,-0.012782796286046505,0.0033288532868027687
1696965599711417600,5.61841748046875,-0.0033288532868027687,-0.01171756349503994,-0.006258244160562754
1696965599721431600,5.628431640625,0.001997311832383275,-0.0063913981430232525,0.013981183059513569
1696965599731445800,5.63844580078125,-0.0011983871227130294,0.007456631399691105,0.012915950268507004
1696965599741459700,5.648459716796875,-0.0001331541279796511,-0.02023942768573761,-0.0030625448562204838
1696965599751474000,5.658473876953125,0.0009320789249613881,0.02236989326775074,0.028894444927573204
1696965599761488000,5.66848779296875,-0.0001331541279796511,-0.02663082629442215,0.015046416781842709
1696965599771501800,5.678501708984375,0.005193010903894901,0.02876129187643528,0.007589785382151604
1696965599781516000,5.68851611328125,0.001997311832383275,-0.03941362351179123,0.04913387447595596
1696965599791530000,5.698530029296875,0.007323476951569319,0.01171756349503994,-0.009453942999243736
1696965599801544200,5.708544189453125,0.007323476951569319,-0.02769605815410614,0.05659050494432449
1696965599811558100,5.71855810546875,0.006258244160562754,-0.0021304660476744175,-0.006258244160562754
1696965599821572400,5.728572265625,0.009453942999243736,-0.02876129187643528,0.050199106335639954
1696965599831586300,5.73858642578125,0.004127778112888336,0.004260932095348835,0.0033288532868027687
1696965599841600300,5.748600341796875,0.010519175790250301,-0.01171756349503994,0.03954677656292915
1696965599851614500,5.758614501953125,0.005193010903894901,-0.00852186419069767,0.010785484686493874
1696965599861628400,5.76862841796875,0.006258244160562754,0.02023942768573761,0.023568280041217804
1696965599871642600,5.778642578125,0.0009320789249613881,0.007456631399691105,0.027829213067889214
1696965599881656600,5.788656494140625,0.004127778112888336,0.02876129187643528,0.015046416781842709
1696965599891670800,5.7986708984375,-0.0001331541279796511,0.009587096981704235,0.023568280041217804
1696965599901684700,5.808684814453125,-0.00226362026296556,0.05432688444852829,-0.0009320789249613881
1696965599911698700,5.81869873046875,0.004127778112888336,0.0031956990715116262,0.04593817517161369
1696965599921713000,5.828712890625,-0.004394086077809334,0.0426093190908432,-0.019041040912270546
1696965599931726800,5.838726806640625,0.004127778112888336,0.012782796286046505,0.04913387447595596
1696965599941741000,5.848740966796875,-0.00226362026296556,0.0426093190908432,-0.027562905102968216
1696965599951755000,5.858755126953125,0.001997311832383275,-0.0010652330238372087,0.041677240282297134
1696965599961769200,5.868769287109375,0.0030625448562204838,0.03621792420744896,-0.016910573467612267
1696965599971783200,5.878783203125,-0.0011983871227130294,-0.01171756349503994,0.013981183059513569
1696965599981797000,5.888797119140625,0.005193010903894901,0.02450035884976387,0.006524552125483751
1696965599991811300,5.898811279296875,-0.0001331541279796511,-0.01491326279938221,0.0011983871227130294
1696965600001825500,5.908825439453125,0.0009320789249613881,-0.0053261648863554,-0.0030625448562204838
1696965600011839500,5.918839599609375,0.001997311832383275,-0.0031956990715116262,0.017176883295178413
1696965600021853700,5.928853759765625,0.0030625448562204838,-0.03515268862247467,-0.006258244160562754
1696965600031867600,5.93886767578125,0.004127778112888336,-0.0053261648863554,0.00226362026296556
1696965600041881900,5.9488818359375,-0.004394086077809334,-0.0159784946590662,-0.0030625448562204838
1696965600051896000,5.95889599609375,0.0009320789249613881,0.0053261648863554,-0.0009320789249613881
1696965600061910000,5.968909912109375,-0.00226362026296556,-0.007456631399691105,0.009720250964164734
1696965600071924200,5.97892431640625,-0.004394086077809334,0.012782796286046505,-0.004127778112888336
1696965600081938400,5.9889384765625,-0.0033288532868027687,0.0106523297727108,0.010785484686493874
1696965600091952400,5.998952392578125,-0.006524552125483751,0.01491326279938221,-0.012649642303586006
1696965600101966600,6.008966552734375,-0.004394086077809334,0.007456631399691105,0.009720250964164734
1696965600111980800,6.018980712890625,-0.007589785382151604,0.02876129187643528,0.0001331541279796511
1696965600121994800,6.028994873046875,-0.00226362026296556,-0.01384802907705307,0.012915950268507004
1696965600132009000,6.039009033203125,-0.004394086077809334,0.02023942768573761,-0.007323476951569319
1696965600142023000,6.04902294921875,-0.0011983871227130294,-0.02663082629442215,0.021437814459204674
1696965600152037000,6.059037109375,0.0009320789249613881,0.004260932095348835,-0.015845341607928276
1696965600162051300,6.06905126953125,-0.0011983871227130294,-0.02236989326775074,0.015046416781842709
1696965600172065300,6.079065185546875,0.005193010903894901,-0.01810896210372448,0.0033288532868027687
1696965600182079500,6.08907958984375,-0.0001331541279796511,-0.01491326279938221,-0.0009320789249613881
1696965600192093700,6.09909375,0.001997311832383275,-0.02556559257209301,0.006524552125483751
1696965600202107600,6.109107666015625,0.001997311832383275,-0.0031956990715116262,-0.017975807189941406
1696965600212121900,6.119121826171875,-0.0011983871227130294,-0.02023942768573761,0.006524552125483751
1696965600222136000,6.129135986328125,0.001997311832383275,-0.0021304660476744175,-0.017975807189941406
1696965600232150000,6.13914990234375,-0.0033288532868027687,-0.01491326279938221,-0.001997311832383275
1696965600242164200,6.149164306640625,-0.0011983871227130294,-0.00852186419069767,-0.019041040912270546
1696965600252178200,6.15917822265625,-0.004394086077809334,0.0021304660476744175,-0.019041040912270546
1696965600262192400,6.1691923828125,-0.004394086077809334,-0.01704372838139534,-0.009453942999243736
1696965600272206600,6.17920654296875,-0.0033288532868027687,0,-0.033954303711652756
1696965600282220500,6.189220458984375,-0.007589785382151604,-0.00852186419069767,-0.014780107885599136
1696965600292234800,6.19923486328125,-0.0033288532868027687,-0.02982652559876442,-0.019041040912270546
1696965600302249000,6.2092490234375,-0.006524552125483751,-0.00852186419069767,-0.030758604407310486
1696965600312263000,6.219262939453125,-0.006524552125483751,-0.0426093190908432,-0.009453942999243736
1696965600322277000,6.229277099609375,-0.00226362026296556,-0.02236989326775074,-0.03608476743102074
1696965600332291300,6.239291259765625,-0.008655018173158169,-0.04687025398015976,-0.008388710208237171
1696965600342305300,6.24930517578125,-0.005459319334477186,-0.02663082629442215,-0.027562905102968216
1696965600352319500,6.259319580078125,-0.005459319334477186,-0.05965305119752884,-0.0009320789249613881
1696965600362333400,6.26933349609375,-0.007589785382151604,-0.03089175745844841,-0.027562905102968216
1696965600372347600,6.27934765625,-0.005459319334477186,-0.05432688444852829,0.015046416781842709
1696965600382361900,6.28936181640625,-0.010785484686493874,-0.02982652559876442,-0.021171506494283676
1696965600392375800,6.299375732421875,-0.004394086077809334,-0.0426093190908432,0.018242115154862404
1696965600402390000,6.30939013671875,-0.008655018173158169,-0.03941362351179123,0.0033288532868027687
1696965600412404200,6.319404296875,-0.011850717477500439,-0.0213046595454216,-0.0009320789249613881
1696965600422418200,6.329418212890625,-0.005459319334477186,-0.03941362351179123,0.044872939586639404
1696965600432432400,6.339432373046875,-0.013981183059513569,-0.01171756349503994,-0.009453942999243736
1696965600442446600,6.349446533203125,-0.008655018173158169,-0.03089175745844841,0.037416309118270874
1696965600452460500,6.35946044921875,-0.011850717477500439,-0.01491326279938221,0.017176883295178413
1696965600462474800,6.369474853515625,-0.011850717477500439,-0.02236989326775074,0.024633513763546944
1696965600472488700,6.37948876953125,-0.009720250964164734,-0.009587096981704235,0.033155377954244614
1696965600482503000,6.3895029296875,-0.015046416781842709,-0.0106523297727108,0.022503048181533813
1696965600492517000,6.39951708984375,-0.010785484686493874,-0.0010652330238372087,0.025698747485876083
1696965600502531000,6.409531005859375,-0.013981183059513569,0.02023942768573761,0.025698747485876083
1696965600512545300,6.419545166015625,-0.015046416781842709,0.00852186419069767,0.025698747485876083
1696965600522559500,6.4295595703125,-0.013981183059513569,0.03515268862247467,0.034220609813928604
1696965600532573400,6.439573486328125,-0.017176883295178413,0.04900071769952774,0.013981183059513569
1696965600542587600,6.449587646484375,-0.013981183059513569,0.0319569893181324,0.03954677656292915
1696965600552601600,6.4596015625,-0.015046416781842709,0.0639139786362648,0.015046416781842709
1696965600562615800,6.46961572265625,-0.020372580736875534,0.03302222490310669,0.028894444927573204
1696965600572630000,6.479630126953125,-0.013981183059513569,0.06604444980621338,0.012915950268507004
1696965600582644000,6.48964404296875,-0.019307348877191544,0.03515268862247467,0.016111649572849274
1696965600592658200,6.499658203125,-0.018242115154862404,0.05965305119752884,-0.001997311832383275
1696965600602672400,6.50967236328125,-0.011850717477500439,0.02023942768573761,0.040612008422613144
1696965600612686300,6.519686279296875,-0.020372580736875534,0.06284874677658081,-0.024367205798625946
1696965600622700500,6.529700439453125,-0.012915950268507004,0.0063913981430232525,0.053394805639982224
1696965600632714500,6.539714599609375,-0.016111649572849274,0.05858781561255455,-0.033954303711652756
1696965600642728400,6.549728515625,-0.019307348877191544,0.02343512699007988,0.018242115154862404
1696965600652742700,6.55974267578125,-0.015046416781842709,0.03834838792681694,0.006524552125483751
1696965600662756600,6.569756591796875,-0.018242115154862404,0.0319569893181324,-0.023301972076296806
1696965600672770800,6.579770751953125,-0.020372580736875534,0.02982652559876442,0.0001331541279796511
1696965600682784800,6.58978466796875,-0.015046416781842709,0.009587096981704235,0.004394086077809334
1696965600692799000,6.599799072265625,-0.019307348877191544,0.03834838792681694,-0.03928046673536301
1696965600702813000,6.60981298828125,-0.020372580736875534,-0.01917419396340847,0.020372580736875534
1696965600712827000,6.619826904296875,-0.012915950268507004,0.01917419396340847,-0.033954303711652756
1696965600722841000,6.629841064453125,-0.020372580736875534,-0.0010652330238372087,-0.004127778112888336
1696965600732855000,6.63985498046875,-0.016111649572849274,-0.01171756349503994,-0.005193010903894901
1696965600742869200,6.649869140625,-0.009720250964164734,-0.01491326279938221,0.0033288532868027687
1696965600752883200,6.65988330078125,-0.021437814459204674,-0.0031956990715116262,-0.021171506494283676
1696965600762897400,6.6698974609375,-0.015046416781842709,-0.012782796286046505,0.018242115154862404
1696965600772911400,6.679911376953125,-0.012915950268507004,-0.02343512699007988,0.0011983871227130294
1696965600782925300,6.68992529296875,-0.024633513763546944,0.02663082629442215,-0.020106272771954536
1696965600792939500,6.699939453125,-0.015046416781842709,-0.02556559257209301,0.044872939586639404
1696965600802953500,6.709953369140625,-0.013981183059513569,0.0063913981430232525,-0.031823836266994476
1696965600812967700,6.7199677734375,-0.024633513763546944,0.02023942768573761,0.009720250964164734
1696965600822981600,6.729981689453125,-0.012915950268507004,0.0031956990715116262,0.019307348877191544
1696965600832995800,6.739995849609375,-0.018242115154862404,0.02450035884976387,-0.021171506494283676
1696965600843009800,6.750009765625,-0.022503048181533813,0.03834838792681694,0.006524552125483751
1696965600853023700,6.760023681640625,-0.011850717477500439,-0.0031956990715116262,0.021437814459204674
1696965600863038000,6.770037841796875,-0.020372580736875534,0.07350108027458191,-0.047802332788705826
1696965600873052000,6.780052001953125,-0.016111649572849274,-0.01171756349503994,0.054460037499666214
1696965600883066000,6.790066162109375,-0.008655018173158169,0.02663082629442215,-0.03288906812667847
1696965600893080000,6.800080078125,-0.016111649572849274,0.02450035884976387,0.011850717477500439
1696965600903094300,6.81009423828125,-0.012915950268507004,-0.007456631399691105,0.007589785382151604
1696965600913108200,6.820108154296875,-0.004394086077809334,0.0159784946590662,0.0033288532868027687
1696965600923122200,6.8301220703125,-0.016111649572849274,0.0031956990715116262,0.007589785382151604
1696965600933136400,6.840136474609375,-0.009720250964164734,0.01171756349503994,0.006524552125483751
1696965600943150300,6.850150390625,-0.004394086077809334,-0.01171756349503994,0.036351077258586884
1696965600953164500,6.86016455078125,-0.018242115154862404,0.02450035884976387,-0.017975807189941406
1696965600963178500,6.870178466796875,-0.009720250964164734,-0.01384802907705307,0.051264338195323944
1696965600973192700,6.880192626953125,-0.009720250964164734,0.0106523297727108,-0.0030625448562204838
1696965600983207000,6.89020703125,-0.020372580736875534,0.007456631399691105,0.018242115154862404
1696965600993220900,6.900220947265625,-0.010785484686493874,0.0021304660476744175,0.04274247586727142
1696965601003235000,6.910235107421875,-0.016111649572849274,-0.0031956990715116262,0.0033288532868027687
1696965601013249300,6.920249267578125,-0.019307348877191544,0.01810896210372448,0.019307348877191544
1696965601023263200,6.93026318359375,-0.012915950268507004,-0.02236989326775074,0.048068638890981674
1696965601033277400,6.94027734375,-0.018242115154862404,0.01384802907705307,-0.015845341607928276
1696965601043291400,6.95029150390625,-0.017176883295178413,-0.0159784946590662,0.04913387447595596
1696965601053305600,6.9603056640625,-0.012915950268507004,-0.01491326279938221,0.011850717477500439
1696965601063319800,6.97031982421875,-0.019307348877191544,-0.0106523297727108,0.006524552125483751
1696965601073333800,6.980333740234375,-0.012915950268507004,-0.02343512699007988,0.034220609813928604
1696965601083348000,6.990347900390625,-0.011850717477500439,-0.03834838792681694,-0.0009320789249613881
1696965601093362200,7.000362060546875,-0.016111649572849274,-0.00852186419069767,0.0001331541279796511
1696965601103376100,7.010376220703125,-0.007589785382151604,-0.04367455467581749,0.027829213067889214
1696965601113390300,7.020390380859375,-0.009720250964164734,-0.02556559257209301,-0.028628136962652206
1696965601123404500,7.030404541015625,-0.008655018173158169,-0.03408745676279068,0.00226362026296556
1696965601133418500,7.04041845703125,-0.00226362026296556,-0.03408745676279068,-0.012649642303586006
1696965601143432700,7.0504326171875,-0.005459319334477186,-0.01704372838139534,-0.03928046673536301
1696965601153446700,7.06044677734375,-0.0033288532868027687,-0.01491326279938221,-0.023301972076296806
1696965601163460900,7.0704609375,-0.0033288532868027687,-0.0010652330238372087,-0.038215234875679016
1696965601173475000,7.08047509765625,-0.006524552125483751,0.05006595328450203,-0.044606633484363556
1696965601183489000,7.090489013671875,-0.006524552125483751,-0.0010652330238372087,-0.037150003015995026
1696965601193503200,7.100503173828125,-0.004394086077809334,0.10119713842868805,-0.06378082931041718
1696965601203517400,7.110517333984375,-0.007589785382151604,0.06710968166589737,-0.03288906812667847
1696965601213531400,7.120531494140625,-0.004394086077809334,0.09906667470932007,-0.054193731397390366
1696965601223545600,7.130545654296875,-0.008655018173158169,0.11504516750574112,-0.060585130006074905
1696965601233559800,7.140559814453125,-0.012915950268507004,0.09374050796031952,-0.055258963257074356
1696965601243573800,7.15057373046875,-0.0033288532868027687,0.09906667470932007,-0.025432437658309937
1696965601253588000,7.160587890625,-0.0033288532868027687,0.05006595328450203,-0.029693370684981346
1696965601263602000,7.170601806640625,-0.010785484686493874,0.10439283400774002,-0.10639014840126038
1696965601273616100,7.1806162109375,-0.008655018173158169,0.0852186381816864,0.004394086077809334
1696965601283630300,7.19063037109375,-0.005459319334477186,0.05432688444852829,-0.04993279650807381
1696965601293644300,7.200644287109375,0.0030625448562204838,0.07243584841489792,-0.038215234875679016
1696965601303658500,7.210658447265625,0.008388710208237171,0.01171756349503994,0.004394086077809334
1696965601313672700,7.220672607421875,-0.013981183059513569,0.1065233051776886,-0.06804175674915314
1696965601323686700,7.230686767578125,-0.00226362026296556,0.01810896210372448,0.047003407031297684
1696965601333700900,7.240700927734375,0.021171506494283676,-0.0213046595454216,-0.07869409024715424
1696965601343715000,7.250715087890625,-0.03209014609456062,0.12356702983379364,-0.03608476743102074
1696965601353729000,7.26072900390625,-0.015046416781842709,0.0031956990715116262,0.013981183059513569
1696965601363743200,7.2707431640625,0.001997311832383275,0.03621792420744896,-0.03288906812667847
1696965601373757200,7.280757080078125,-0.012915950268507004,0.03408745676279068,-0.001997311832383275
1696965601383771400,7.290771484375,0.001997311832383275,0.05006595328450203,0.041677240282297134
1696965601393785600,7.30078564453125,0.001997311832383275,0.02663082629442215,-0.024367205798625946
1696965601403799600,7.310799560546875,-0.008655018173158169,0.07989247888326645,-0.016910573467612267
1696965601413813800,7.320813720703125,-0.0033288532868027687,0.03728315606713295,0.0874822586774826
1696965601423828000,7.330827880859375,-0.012915950268507004,0.05858781561255455,-0.05312849581241608
1696965601433842000,7.340842041015625,0.0030625448562204838,0.0852186381816864,0.0768299326300621
1696965601443856100,7.350856201171875,0.009453942999243736,0.0021304660476744175,0.08428656309843063
1696965601453870300,7.360870361328125,-0.0011983871227130294,0.07669677585363388,0.00226362026296556
1696965601463884300,7.37088427734375,0.007323476951569319,0.004260932095348835,0.11730878800153732
1696965601473898500,7.3808984375,0.0030625448562204838,0.02343512699007988,0.021437814459204674
1696965601483912400,7.390912353515625,0.0030625448562204838,0.03834838792681694,0.048068638890981674
1696965601493926700,7.4009267578125,0.019041040912270546,-0.01917419396340847,0.0981345921754837
1696965601503940900,7.41094091796875,0.012649642303586006,0.03834838792681694,0.029959678649902344
1696965601513954800,7.420954833984375,0.0009320789249613881,-0.00852186419069767,0.08109086751937866
1696965601523969000,7.430968994140625,0.017975807189941406,-0.0053261648863554,0.067242830991745
1696965601533983200,7.440983154296875,0.013714875094592571,-0.009587096981704235,0.044872939586639404
1696965601543997200,7.4509970703125,0.007323476951569319,-0.01171756349503994,0.054460037499666214
1696965601554011400,7.461011474609375,0.011584409512579441,-0.0063913981430232525,0.05978620424866676
1696965601564025600,7.471025634765625,0.008388710208237171,-0.0106523297727108,0.024633513763546944
1696965601574039600,7.48103955078125,0.007323476951569319,-0.01171756349503994,0.050199106335639954
1696965601584053800,7.4910537109375,0.008388710208237171,-0.00852186419069767,0.043807707726955414
1696965601594067700,7.501067626953125,0.0030625448562204838,-0.01917419396340847,0.015046416781842709
1696965601604082000,7.51108203125,0.006258244160562754,-0.0021304660476744175,0.04593817517161369
1696965601614096100,7.52109619140625,0.009453942999243736,-0.01704372838139534,0.034220609813928604
1696965601624110000,7.531110107421875,0.0030625448562204838,-0.0053261648863554,-0.004127778112888336
1696965601634124300,7.541124267578125,0.008388710208237171,-0.0159784946590662,0.03528584539890289
1696965601644138500,7.551138427734375,0.012649642303586006,-0.02450035884976387,-0.0009320789249613881
1696965601654152400,7.56115234375,0.007323476951569319,-0.0031956990715116262,-0.008388710208237171
1696965601664166700,7.571166748046875,0.011584409512579441,-0.03302222490310669,0.022503048181533813
1696965601674180600,7.5811806640625,0.010519175790250301,-0.02236989326775074,-0.023301972076296806
1696965601684194800,7.59119482421875,0.011584409512579441,-0.02556559257209301,-0.006258244160562754
1696965601694209000,7.601208984375,0.016910573467612267,-0.07030537724494934,-0.017975807189941406
1696965601704223000,7.611222900390625,0.013714875094592571,-0.0053261648863554,-0.061650361865758896
1696965601714237200,7.6212373046875,0.014780107885599136,-0.01491326279938221,0.022503048181533813
1696965601724251400,7.63125146484375,0.023301972076296806,-0.012782796286046505,-0.023301972076296806
1696965601734265300,7.641265380859375,0.013714875094592571,0.0639139786362648,-0.037150003015995026
1696965601744279600,7.651279541015625,0.005193010903894901,0.03834838792681694,0.020372580736875534
1696965601754293800,7.661293701171875,0.028628136962652206,0.02450035884976387,-0.030758604407310486
1696965601764307700,7.6713076171875,0.010519175790250301,0.04367455467581749,0.0778951644897461
1696965601774322000,7.681322021484375,0.027562905102968216,-0.07137060910463333,-0.028628136962652206
1696965601784336000,7.6913359375,0.022236740216612816,0.07350108027458191,0.00226362026296556
1696965601794350000,7.70135009765625,-0.016111649572849274,-0.07350108027458191,0.019307348877191544
1696965601804364300,7.7113642578125,0.008388710208237171,0.0053261648863554,-0.05312849581241608
1696965601814378200,7.721378173828125,0.012649642303586006,-0.04793548583984375,0.05978620424866676
1696965601824392400,7.731392333984375,0.012649642303586006,0.02556559257209301,-0.043541401624679565
1696965601834406700,7.74140673828125,0.043541401624679565,-0.05432688444852829,0.07363422960042953
1696965601844420600,7.751420654296875,0.12023817747831345,0.04047885537147522,-0.052063263952732086
1696965601854434800,7.761434814453125,0.07869409024715424,-0.03728315606713295,0.10452599078416824
1696965601864449000,7.771448974609375,0.040345702320337296,0.04580501839518547,-0.0936073511838913
1696965601874463000,7.781462890625,-0.009720250964164734,0.10971900075674057,0.031024912372231483
1696965601884477200,7.791477294921875,0.0009320789249613881,0.004260932095348835,0.066177599132061
1696965601894491100,7.8014912109375,-0.005459319334477186,0.12463226169347763,0.031024912372231483
1696965601904505300,7.81150537109375,-0.0033288532868027687,0.0213046595454216,0.08215609937906265
1696965601914519600,7.82151953125,0.0030625448562204838,0.11078423261642456,0.0778951644897461
1696965601924533500,7.831533447265625,-0.008655018173158169,0.09267527610063553,0.04274247586727142
1696965601934547700,7.841547607421875,-0.0033288532868027687,0.10758853703737259,0.07043853402137756
1696965601944562000,7.85156201171875,-0.0001331541279796511,0.1374150663614273,0.07363422960042953
1696965601954576000,7.861575927734375,-0.005459319334477186,0.1288931965827942,0.09280842542648315
1696965601964590000,7.871590087890625,0.009453942999243736,0.12037133425474167,0.11837401986122131
1696965601974604300,7.881604248046875,0.012649642303586006,0.16830681264400482,0.0991998240351677
1696965601984618200,7.8916181640625,-0.005459319334477186,0.01810896210372448,0.0991998240351677
1696965601994632400,7.901632568359375,0.004127778112888336,0.10119713842868805,0.08428656309843063
1696965602004646400,7.911646484375,0.015845341607928276,-0.0031956990715116262,0.12370018661022186
1696965602014660600,7.92166064453125,0.04673709720373154,0.06497921794652939,0.047003407031297684
1696965602024674600,7.931674560546875,0.017975807189941406,0.04687025398015976,0.09600412845611572
1696965602034688800,7.941688720703125,-0.007589785382151604,-0.03728315606713295,0.0768299326300621
1696965602044702700,7.95170263671875,0.005193010903894901,0.14380645751953125,0.016111649572849274
1696965602054716700,7.961716552734375,0.005193010903894901,-0.07776200771331787,0.13541774451732635
1696965602064731000,7.97173095703125,-0.03848154470324516,0.04900071769952774,-0.03928046673536301
1696965602074744800,7.981744873046875,-0.03528584539890289,-0.02876129187643528,0.04274247586727142
1696965602084759000,7.991759033203125,0.007323476951569319,0.06497921794652939,-0.004127778112888336
1696965602094773000,8.00177294921875,0.08082455396652222,0.00852186419069767,0.05978620424866676
1696965602104787200,8.011787109375,0.033954303711652756,0.08947957307100296,-0.058454662561416626
1696965602114801200,8.02180126953125,-0.028894444927573204,0.07669677585363388,0.011850717477500439
1696965602124815000,8.031815185546876,0.009453942999243736,0.1065233051776886,-0.024367205798625946
1696965602134829300,8.041829345703125,0.03608476743102074,0.03302222490310669,-0.016910573467612267
1696965602144843300,8.05184326171875,0.0009320789249613881,0.10013190656900406,-0.09786828607320786
1696965602154857500,8.061857421875,-0.024633513763546944,0.09693620353937149,-0.055258963257074356
1696965602164871400,8.071871337890625,-0.004394086077809334,0.08095771074295044,-0.054193731397390366
1696965602174885600,8.0818857421875,0.007323476951569319,0.02023942768573761,-0.0936073511838913
1696965602184899600,8.091899658203126,-0.0001331541279796511,0.10013190656900406,-0.08934641629457474
1696965602194913500,8.10191357421875,-0.006524552125483751,0.03408745676279068,-0.07549838721752167
1696965602204927700,8.111927734375,0.010519175790250301,0.02023942768573761,-0.0936073511838913
1696965602214941700,8.121941650390625,0.012649642303586006,-0.0010652330238372087,-0.1138467788696289
1696965602224956000,8.131955810546875,0.006258244160562754,0.00852186419069767,-0.08402025699615479
1696965602234969900,8.141969970703125,0.013714875094592571,-0.01491326279938221,-0.0829550251364708
1696965602244984000,8.151984130859375,0.013714875094592571,-0.02343512699007988,-0.10106398165225983
1696965602254998000,8.161998046875,0.005193010903894901,-0.0021304660476744175,-0.09467258304357529
1696965602265012000,8.172011962890625,0.013714875094592571,-0.03302222490310669,-0.08402025699615479
1696965602275026200,8.182026123046874,0.013714875094592571,-0.03621792420744896,-0.08721595257520676
1696965602285040000,8.1920400390625,0.007323476951569319,-0.004260932095348835,-0.0936073511838913
1696965602295054300,8.202054443359375,0.004127778112888336,-0.03515268862247467,-0.06378082931041718
1696965602305068300,8.212068359375,0.009453942999243736,-0.0031956990715116262,-0.07336792349815369
1696965602315082500,8.22208251953125,0.0030625448562204838,-0.03089175745844841,-0.06910699605941772
1696965602325096700,8.2320966796875,-0.0033288532868027687,0.0021304660476744175,-0.07443315535783768
1696965602335110700,8.242110595703124,0.0009320789249613881,-0.0213046595454216,-0.047802332788705826
1696965602345124900,8.252124755859375,0.004127778112888336,-0.03515268862247467,-0.050998032093048096
1696965602355139000,8.26213916015625,-0.004394086077809334,-0.0031956990715116262,-0.042476166039705276
1696965602365153000,8.272153076171875,-0.007589785382151604,-0.02343512699007988,-0.03288906812667847
1696965602375167200,8.282167236328124,-0.0011983871227130294,-0.01491326279938221,-0.019041040912270546
1696965602385181200,8.29218115234375,-0.0033288532868027687,-0.04687025398015976,-0.03288906812667847
1696965602395195400,8.3021953125,-0.010785484686493874,-0.02450035884976387,-0.016910573467612267
1696965602405209600,8.312209716796875,-0.005459319334477186,-0.04047885537147522,0.006524552125483751
1696965602415223600,8.3222236328125,-0.0001331541279796511,-0.08628387749195099,-0.017975807189941406
1696965602425237800,8.33223779296875,-0.004394086077809334,-0.06071828305721283,0.006524552125483751
1696965602435252000,8.342251953125,-0.007589785382151604,-0.06497921794652939,-0.023301972076296806
1696965602445266000,8.352265869140625,0.007323476951569319,-0.02982652559876442,-0.0009320789249613881
1696965602455280000,8.362280029296874,0.008388710208237171,-0.04793548583984375,-0.0030625448562204838
1696965602465294300,8.37229443359375,0.037150003015995026,-0.02556559257209301,-0.048867564648389816
1696965602475308300,8.382308349609374,0.09467258304357529,0.03621792420744896,0.004394086077809334
1696965602485322500,8.392322509765625,0.07443315535783768,0.03089175745844841,-0.021171506494283676
1696965602495336400,8.40233642578125,0.029693370684981346,0.0426093190908432,-0.009453942999243736
1696965602505350700,8.4123505859375,-0.023568280041217804,-0.04687025398015976,-0.024367205798625946
1696965602515364900,8.42236474609375,0.011584409512579441,-0.009587096981704235,-0.07549838721752167
1696965602525378800,8.43237890625,0.013714875094592571,-0.13102366030216217,0.021437814459204674
1696965602535393000,8.44239306640625,0.052063263952732086,-0.06071828305721283,-0.08082455396652222
1696965602545407200,8.4524072265625,0.08082455396652222,-0.05539211630821228,0.010785484686493874
1696965602555421200,8.462421142578124,0.07549838721752167,0.0106523297727108,-0.013714875094592571
1696965602565435400,8.472435302734375,-0.0011983871227130294,0.02663082629442215,0.004394086077809334
1696965602575449600,8.48244970703125,0.006258244160562754,0.04047885537147522,-0.037150003015995026
1696965602585463600,8.492463623046875,0.009453942999243736,0.01917419396340847,0.013981183059513569
1696965602595477800,8.502477783203124,0.011584409512579441,0.01810896210372448,-0.008388710208237171
1696965602605491700,8.51249169921875,-0.005459319334477186,0.03728315606713295,-0.025432437658309937
1696965602615506000,8.522505859375,0.008388710208237171,0.04367455467581749,0.007589785382151604
1696965602625520000,8.53252001953125,0.012649642303586006,0.05219641700387001,-0.004127778112888336
1696965602635534000,8.5425341796875,-0.006524552125483751,0.05432688444852829,-0.013714875094592571
1696965602645548300,8.55254833984375,-0.0011983871227130294,0.02769605815410614,-0.016910573467612267
1696965602655562500,8.5625625,0.017975807189941406,0.04580501839518547,-0.0030625448562204838
1696965602665576400,8.572576416015625,0.010519175790250301,0.012782796286046505,-0.023301972076296806
1696965602675590700,8.582590576171874,-0.004394086077809334,0.0159784946590662,-0.020106272771954536
1696965602685604900,8.59260498046875,-0.0001331541279796511,0.03302222490310669,-0.03608476743102074
1696965602695618800,8.602618896484374,0.007323476951569319,0.0021304660476744175,-0.023301972076296806
1696965602705633000,8.612633056640625,0.006258244160562754,0.009587096981704235,-0.037150003015995026
1696965602715647000,8.62264697265625,-0.007589785382151604,0.01491326279938221,-0.05632419511675835
1696965602725661200,8.6326611328125,-0.005459319334477186,0.0031956990715116262,-0.028628136962652206
1696965602735675400,8.64267529296875,0.001997311832383275,-0.009587096981704235,-0.05632419511675835
1696965602745689300,8.652689453125,-0.0011983871227130294,-0.02663082629442215,-0.045671865344047546
1696965602755703600,8.66270361328125,-0.009720250964164734,0.0053261648863554,-0.061650361865758896
1696965602765717800,8.6727177734375,-0.00226362026296556,-0.01384802907705307,-0.033954303711652756
1696965602775731700,8.682731689453124,-0.0033288532868027687,-0.02343512699007988,-0.06378082931041718
1696965602785746000,8.692745849609375,-0.006524552125483751,-0.02450035884976387,-0.031823836266994476
1696965602795760000,8.702760009765624,-0.007589785382151604,-0.01810896210372448,-0.052063263952732086
1696965602805774000,8.712774169921875,-0.0033288532868027687,-0.03834838792681694,-0.007323476951569319
1696965602815788300,8.722788330078124,-0.00226362026296556,-0.01704372838139534,-0.055258963257074356
1696965602825802200,8.73280224609375,-0.0033288532868027687,-0.03408745676279068,-0.004127778112888336
1696965602835816400,8.74281640625,0.0009320789249613881,-0.00852186419069767,-0.017975807189941406
1696965602845830700,8.75283056640625,0.0030625448562204838,-0.03408745676279068,-0.009453942999243736
1696965602855844600,8.7628447265625,0.004127778112888336,-0.0053261648863554,0.0033288532868027687
1696965602865858800,8.77285888671875,0.001997311832383275,-0.0053261648863554,-0.006258244160562754
1696965602875873000,8.782873046875,0.007323476951569319,0.0010652330238372087,0.015046416781842709
1696965602885887000,8.792886962890625,0.011584409512579441,0.0106523297727108,0.016111649572849274
1696965602895901200,8.802901123046874,0.004127778112888336,0.01917419396340847,-0.0009320789249613881
1696965602905915400,8.812915283203125,0.009453942999243736,0.03834838792681694,0.034220609813928604
1696965602915929300,8.822929443359374,0.014780107885599136,0.004260932095348835,0.024633513763546944
1696965602925943600,8.832943603515625,0.009453942999243736,0.02556559257209301,0.008655018173158169
1696965602935957500,8.84295751953125,0.008388710208237171,0.0106523297727108,0.03528584539890289
1696965602945971700,8.8529716796875,0.015845341607928276,0.0031956990715116262,0.028894444927573204
1696965602955986000,8.86298583984375,0.013714875094592571,-0.009587096981704235,0.023568280041217804
1696965602965999900,8.872999755859375,0.007323476951569319,-0.0213046595454216,0.027829213067889214
1696965602976014000,8.88301416015625,0.011584409512579441,-0.012782796286046505,0.03528584539890289
1696965602986028300,8.8930283203125,0.011584409512579441,-0.05752258375287056,0.044872939586639404
1696965602996042200,8.903042236328124,0.007323476951569319,-0.0159784946590662,0.017176883295178413
1696965603006056400,8.913056396484375,0.0009320789249613881,-0.04473978653550148,0.057655736804008484
1696965603016070400,8.9230703125,0.005193010903894901,-0.004260932095348835,0.033155377954244614
1696965603026084600,8.933084716796875,-0.0001331541279796511,-0.05965305119752884,0.043807707726955414
1696965603036098800,8.943098876953124,-0.0033288532868027687,0.0319569893181324,0.026763979345560074
1696965603046112800,8.95311279296875,-0.005459319334477186,-0.01384802907705307,0.05978620424866676
1696965603056127000,8.963126953125,-0.006524552125483751,0.02663082629442215,0.019307348877191544
1696965603066141200,8.97314111328125,-0.011850717477500439,0.02876129187643528,0.044872939586639404
1696965603076155100,8.983155029296874,-0.015046416781842709,0.05539211630821228,0.026763979345560074
1696965603086169300,8.99316943359375,-0.011850717477500439,0.04793548583984375,0.041677240282297134
1696965603096183600,9.00318359375,-0.011850717477500439,0.03621792420744896,0.018242115154862404
1696965603106197500,9.013197509765625,-0.015046416781842709,0.06284874677658081,0.029959678649902344
1696965603116211700,9.023211669921874,-0.009720250964164734,0.03408745676279068,0.034220609813928604
1696965603126225700,9.0332255859375,-0.004394086077809334,0.00852186419069767,0.031024912372231483
1696965603136239900,9.043239990234374,-0.008655018173158169,0.0426093190908432,0.011850717477500439
1696965603146254000,9.053254150390625,-0.006524552125483751,-0.0021304660476744175,0.04593817517161369
1696965603156268000,9.06326806640625,0.006258244160562754,0.0053261648863554,0.026763979345560074
1696965603166282200,9.0732822265625,0.0009320789249613881,-0.009587096981704235,0.024633513763546944
1696965603176296400,9.08329638671875,-0.004394086077809334,0.00852186419069767,0.03528584539890289
1696965603186310400,9.093310302734375,0.005193010903894901,-0.004260932095348835,0.048068638890981674
1696965603196324600,9.10332470703125,0.005193010903894901,-0.02769605815410614,0.012915950268507004
1696965603206338800,9.1133388671875,-0.004394086077809334,0.02663082629442215,0.024633513763546944
1696965603216352800,9.123352783203124,0.0030625448562204838,-0.02450035884976387,0.054460037499666214
1696965603226367000,9.133366943359375,0.006258244160562754,-0.0106523297727108,0.00226362026296556
1696965603236381000,9.143380859375,0.001997311832383275,-0.00852186419069767,0.03209014609456062
1696965603246395100,9.15339501953125,0.006258244160562754,-0.0159784946590662,0.027829213067889214
1696965603256409300,9.163409423828124,0.004127778112888336,-0.0159784946590662,0.0033288532868027687
1696965603266423300,9.17342333984375,0.001997311832383275,0.004260932095348835,0.0033288532868027687
1696965603276437500,9.1834375,0.005193010903894901,-0.02236989326775074,0.026763979345560074
1696965603286451500,9.193451416015625,0.004127778112888336,0.009587096981704235,-0.006258244160562754
1696965603296465700,9.203465576171874,0.0009320789249613881,0.0031956990715116262,0.004394086077809334
1696965603306479600,9.213479736328125,0.006258244160562754,0,0.013981183059513569
1696965603316493800,9.223493896484374,0.0030625448562204838,0.02769605815410614,-0.014780107885599136
1696965603326507800,9.2335078125,0.0009320789249613881,0.0159784946590662,0.026763979345560074
1696965603336521700,9.243521728515624,0.004127778112888336,0.02343512699007988,-0.021171506494283676
1696965603346536000,9.253535888671875,0.001997311832383275,0.0159784946590662,0.022503048181533813
1696965603356550000,9.2635498046875,-0.00226362026296556,0.02450035884976387,-0.013714875094592571
1696965603366564000,9.273564208984375,0.008388710208237171,-0.02663082629442215,0.019307348877191544
1696965603376578000,9.283578125,-0.0001331541279796511,0.04047885537147522,-0.022236740216612816
1696965603386592300,9.29359228515625,0.005193010903894901,-0.05432688444852829,0.028894444927573204
1696965603396606200,9.303606201171876,0.006258244160562754,0.01704372838139534,-0.008388710208237171
1696965603406620200,9.3136201171875,-0.0011983871227130294,-0.03089175745844841,-0.004127778112888336
1696965603416634400,9.32363427734375,0.007323476951569319,-0.00852186419069767,0.009720250964164734
1696965603426648300,9.3336484375,0.004127778112888336,-0.02876129187643528,-0.007323476951569319
1696965603436662500,9.34366259765625,0.0030625448562204838,-0.01704372838139534,0.004394086077809334
1696965603446676500,9.353676513671875,0.005193010903894901,-0.0063913981430232525,-0.001997311832383275
1696965603456690700,9.363690673828126,0.001997311832383275,-0.01704372838139534,0.005459319334477186
1696965603466704600,9.37370458984375,0.004127778112888336,-0.0021304660476744175,-0.0030625448562204838
1696965603476718600,9.383718505859376,0.0009320789249613881,-0.0053261648863554,-0.0030625448562204838
1696965603486732800,9.39373291015625,0.0030625448562204838,0.004260932095348835,0.0001331541279796511
1696965603496746800,9.403746826171876,0.0030625448562204838,-0.0063913981430232525,-0.006258244160562754
1696965603506761000,9.413760986328125,0.0009320789249613881,0.007456631399691105,0.005459319334477186
1696965603516775000,9.42377490234375,0.005193010903894901,-0.0053261648863554,0.010785484686493874
1696965603526789000,9.4337890625,0.0009320789249613881,-0.01810896210372448,-0.016910573467612267
1696965603536803000,9.443802978515626,0.005193010903894901,-0.01384802907705307,0.023568280041217804
1696965603546817000,9.453817138671875,0.0009320789249613881,-0.009587096981704235,-0.021171506494283676
1696965603556831200,9.463831298828126,0.0030625448562204838,-0.04154408723115921,0.03209014609456062
1696965603566845200,9.47384521484375,-0.0001331541279796511,0,-0.027562905102968216
1696965603576859400,9.483859375,-0.00226362026296556,-0.03089175745844841,0.023568280041217804
1696965603586873300,9.493873291015625,0.0009320789249613881,0.0063913981430232525,-0.0009320789249613881
1696965603596887600,9.503887451171876,-0.006524552125483751,-0.02023942768573761,-0.007323476951569319
1696965603606901500,9.513901611328125,-0.004394086077809334,0.0213046595454216,0.024633513763546944
1696965603616915700,9.523915771484376,-0.010785484686493874,0.02982652559876442,-0.014780107885599136
1696965603626930000,9.533929931640625,-0.008655018173158169,0.02450035884976387,0.024633513763546944
1696965603636944000,9.54394384765625,-0.011850717477500439,0.03728315606713295,-0.006258244160562754
1696965603646958000,9.5539580078125,-0.010785484686493874,0.02876129187643528,0.008655018173158169
1696965603656972000,9.563971923828126,-0.008655018173158169,0.0532616525888443,0.018242115154862404
1696965603666986200,9.573986328125,-0.012915950268507004,0.01810896210372448,0.0001331541279796511
1696965603677000400,9.58400048828125,-0.007589785382151604,0.02876129187643528,0.027829213067889214
1696965603687014400,9.594014404296875,-0.010785484686493874,0.02023942768573761,0.011850717477500439
1696965603697028600,9.604028564453126,-0.004394086077809334,-0.00852186419069767,0.024633513763546944
1696965603707042800,9.614042724609375,-0.008655018173158169,0.00852186419069767,0.013981183059513569
1696965603717056800,9.624056884765626,-0.007589785382151604,-0.0213046595454216,0.028894444927573204
1696965603727071000,9.634071044921875,-0.008655018173158169,0.007456631399691105,0.020372580736875534
1696965603737085200,9.644085205078126,-0.009720250964164734,-0.01491326279938221,0.025698747485876083
1696965603747099100,9.65409912109375,-0.010785484686493874,0.02023942768573761,0.023568280041217804
1696965603757113300,9.66411328125,-0.012915950268507004,0,0.017176883295178413
1696965603767127300,9.674127197265625,-0.013981183059513569,0.03621792420744896,0.009720250964164734
1696965603777141500,9.6841416015625,-0.016111649572849274,0.03515268862247467,0.013981183059513569
1696965603787155700,9.69415576171875,-0.012915950268507004,0.02769605815410614,0.009720250964164734
1696965603797169700,9.704169677734376,-0.018242115154862404,0.03302222490310669,-0.0030625448562204838
1696965603807184000,9.714183837890625,-0.007589785382151604,0.03089175745844841,0.022503048181533813
1696965603817198000,9.724197998046876,-0.013981183059513569,0.009587096981704235,-0.020106272771954536
1696965603827212000,9.7342119140625,-0.008655018173158169,0.03408745676279068,0.004394086077809334
1696965603837226200,9.744226318359376,-0.007589785382151604,0.0031956990715116262,-0.012649642303586006
1696965603847240200,9.754240234375,-0.0011983871227130294,0,-0.004127778112888336
1696965603857254400,9.76425439453125,-0.004394086077809334,0.03941362351179123,-0.026497671380639076
1696965603867268600,9.7742685546875,-0.004394086077809334,-0.0213046595454216,-0.006258244160562754
1696965603877282600,9.784282470703126,-0.005459319334477186,0.05539211630821228,-0.041410934180021286
1696965603887296800,9.794296875,-0.006524552125483751,0.004260932095348835,-0.012649642303586006
1696965603897311000,9.80431103515625,-0.004394086077809334,0.04047885537147522,-0.03608476743102074
1696965603907325000,9.814324951171875,-0.009720250964164734,-0.0031956990715116262,-0.019041040912270546
1696965603917339100,9.824339111328126,-0.004394086077809334,0.03089175745844841,-0.029693370684981346
1696965603927353300,9.834353271484375,-0.004394086077809334,-0.02769605815410614,-0.015845341607928276
1696965603937367300,9.8443671875,-0.004394086077809334,0.009587096981704235,-0.031823836266994476
1696965603947381500,9.854381591796875,-0.011850717477500439,-0.01171756349503994,-0.015845341607928276
1696965603957395500,9.8643955078125,-0.0011983871227130294,-0.02663082629442215,0.0033288532868027687
1696965603967409700,9.87440966796875,-0.006524552125483751,0.004260932095348835,-0.026497671380639076
1696965603977424000,9.884423828125,-0.0033288532868027687,-0.03834838792681694,0.021437814459204674
1696965603987437800,9.894437744140625,-0.011850717477500439,0.02023942768573761,-0.023301972076296806
1696965603997452000,9.9044521484375,-0.007589785382151604,-0.01917419396340847,0.027829213067889214
1696965604007466200,9.91446630859375,-0.007589785382151604,0.0010652330238372087,-0.009453942999243736
1696965604017480200,9.924480224609376,-0.011850717477500439,0.0106523297727108,0.009720250964164734
1696965604027494400,9.934494384765625,-0.011850717477500439,0.01917419396340847,0.008655018173158169
1696965604037508600,9.944508544921876,-0.009720250964164734,-0.0106523297727108,0.012915950268507004
1696965604047522600,9.9545224609375,-0.010785484686493874,0.004260932095348835,-0.008388710208237171
1696965604057536800,9.964536865234376,-0.009720250964164734,0.0031956990715116262,0.044872939586639404
1696965604067550700,9.97455078125,-0.010785484686493874,-0.01704372838139534,-0.033954303711652756
1696965604077565000,9.98456494140625,-0.008655018173158169,-0.004260932095348835,0.060851436108350754
1696965604087579100,9.9945791015625,-0.006524552125483751,-0.0213046595454216,-0.024367205798625946
1696965604097593000,10.004593017578125,-0.008655018173158169,-0.01810896210372448,0.03528584539890289
1696965604107607300,10.014607177734375,-0.009720250964164734,-0.0010652330238372087,0.009720250964164734
1696965604117621500,10.02462158203125,-0.008655018173158169,-0.03089175745844841,0.029959678649902344
1696965604127635500,10.034635498046875,-0.006524552125483751,0.0213046595454216,0.012915950268507004
1696965604137649700,10.044649658203125,-0.012915950268507004,-0.02982652559876442,0.036351077258586884
1696965604147664000,10.054663818359375,-0.008655018173158169,0.0426093190908432,0.013981183059513569
1696965604157677800,10.064677734375,-0.010785484686493874,-0.02343512699007988,0.040612008422613144
1696965604167692000,10.074692138671875,-0.010785484686493874,0.03834838792681694,0.008655018173158169
1696965604177706000,10.0847060546875,-0.015046416781842709,0.01384802907705307,0.04593817517161369
1696965604187720200,10.09472021484375,-0.010785484686493874,0.01917419396340847,0.020372580736875534
1696965604197734400,10.104734375,-0.015046416781842709,-0.0053261648863554,0.027829213067889214
1696965604207748400,10.114748291015625,-0.011850717477500439,0.01917419396340847,0.03954677656292915
1696965604217762600,10.124762451171875,-0.012915950268507004,-0.03621792420744896,0.027829213067889214
1696965604227776800,10.13477685546875,-0.011850717477500439,0.02343512699007988,0.012915950268507004
1696965604237790700,10.144790771484375,-0.013981183059513569,-0.0426093190908432,0.048068638890981674
1696965604247805000,10.154804931640625,-0.007589785382151604,0.0063913981430232525,-0.004127778112888336
1696965604257819100,10.164819091796875,-0.013981183059513569,-0.007456631399691105,0.040612008422613144
1696965604267833000,10.1748330078125,-0.016111649572849274,0.02023942768573761,0.0001331541279796511
1696965604277847300,10.184847412109375,-0.012915950268507004,0.01171756349503994,0.03528584539890289
1696965604287861200,10.194861328125,-0.018242115154862404,0.05006595328450203,0.006524552125483751
1696965604297875500,10.20487548828125,-0.013981183059513569,0.02556559257209301,0.023568280041217804
1696965604307889700,10.2148896484375,-0.015046416781842709,0.04793548583984375,0.011850717477500439
1696965604317903600,10.224903564453125,-0.018242115154862404,0.0532616525888443,0.023568280041217804
1696965604327917800,10.234917724609375,-0.016111649572849274,0.03728315606713295,0.006524552125483751
1696965604337932000,10.24493212890625,-0.018242115154862404,0.02769605815410614,0.024633513763546944
1696965604347946000,10.254946044921875,-0.018242115154862404,0.05006595328450203,-0.005193010903894901
1696965604357960200,10.264960205078125,-0.015046416781842709,0.0106523297727108,0.033155377954244614
1696965604367974400,10.274974365234375,-0.016111649572849274,0.03941362351179123,0.004394086077809334
1696965604377988400,10.28498828125,-0.020372580736875534,0.01491326279938221,0.024633513763546944
1696965604388002600,10.29500244140625,-0.016111649572849274,0.03728315606713295,0.021437814459204674
1696965604398016500,10.3050166015625,-0.021437814459204674,-0.007456631399691105,0.023568280041217804
1696965604408030700,10.31503076171875,-0.019307348877191544,0.04793548583984375,0.012915950268507004
1696965604418045000,10.325044921875,-0.020372580736875534,-0.03621792420744896,0.03954677656292915
1696965604428059000,10.335058837890625,-0.020372580736875534,0.03515268862247467,-0.006258244160562754
1696965604438073000,10.345072998046875,-0.017176883295178413,-0.0159784946590662,0.06298190355300903
1696965604448087300,10.35508740234375,-0.015046416781842709,-0.02556559257209301,-0.017975807189941406
1696965604458101200,10.365101318359375,-0.021437814459204674,0.004260932095348835,0.054460037499666214
1696965604468115500,10.375115478515625,-0.019307348877191544,-0.02343512699007988,0.0033288532868027687
1696965604478129700,10.385129638671875,-0.021437814459204674,-0.02663082629442215,0.022503048181533813
1696965604488143600,10.3951435546875,-0.017176883295178413,0.01171756349503994,0.021437814459204674
1696965604498157800,10.40515771484375,-0.026763979345560074,-0.007456631399691105,-0.006258244160562754
1696965604508172800,10.4151728515625,-0.025698747485876083,0.02556559257209301,0.029959678649902344
1696965604518186500,10.4251865234375,-0.033155377954244614,0.02876129187643528,0.0001331541279796511
1696965604528200200,10.4352001953125,-0.024633513763546944,0.02556559257209301,0.012915950268507004
1696965604538214000,10.4452138671875,-0.028894444927573204,0.04580501839518547,0.008655018173158169
1696965604548227600,10.4552275390625,-0.033155377954244614,0.04367455467581749,0.016111649572849274
1696965604558241300,10.4652412109375,-0.037416309118270874,0.02876129187643528,-0.0009320789249613881
1696965604568255200,10.475255126953124,-0.024633513763546944,0.009587096981704235,0.026763979345560074
1696965604578269000,10.48526904296875,-0.03209014609456062,0.00852186419069767,0.004394086077809334
1696965604588283000,10.495282958984374,-0.024633513763546944,-0.01171756349503994,0.028894444927573204
1696965604598296800,10.505296875,-0.027829213067889214,-0.03728315606713295,0.005459319334477186
1696965604608310800,10.515310791015626,-0.021437814459204674,-0.0213046595454216,0.024633513763546944
1696965604618325000,10.525324951171875,-0.026763979345560074,-0.04367455467581749,0.016111649572849274
1696965604628339200,10.535339111328126,-0.024633513763546944,-0.01704372838139534,0.031024912372231483
1696965604638353700,10.545353759765625,-0.03209014609456062,-0.03408745676279068,0.03848154470324516
1696965604648367900,10.555367919921874,-0.026763979345560074,-0.01384802907705307,0.017176883295178413
1696965604658382300,10.56538232421875,-0.029959678649902344,-0.02556559257209301,0.051264338195323944
1696965604668396800,10.575396728515624,-0.034220609813928604,-0.0159784946590662,0.022503048181533813
1696965604678411000,10.585410888671875,-0.033155377954244614,-0.0010652330238372087,0.033155377954244614
1696965604688425500,10.595425537109374,-0.027829213067889214,-0.03302222490310669,0.040612008422613144
1696965604698440000,10.60543994140625,-0.026763979345560074,0.007456631399691105,0.013981183059513569
1696965604708454400,10.615454345703125,-0.028894444927573204,-0.0159784946590662,0.053394805639982224
1696965604718468600,10.625468505859375,-0.03209014609456062,0.004260932095348835,-0.0009320789249613881
1696965604728482800,10.63548291015625,-0.025698747485876083,-0.01491326279938221,0.048068638890981674
1696965604738496800,10.645496826171875,-0.024633513763546944,-0.00852186419069767,-0.0009320789249613881
1696965604748511000,10.655510986328125,-0.022503048181533813,-0.02663082629442215,0.03848154470324516
1696965604758526700,10.665526611328126,-0.024633513763546944,-0.004260932095348835,0.0001331541279796511
1696965604768539100,10.6755390625,-0.021437814459204674,-0.0319569893181324,0.013981183059513569
1696965604778551600,10.685551513671875,-0.020372580736875534,-0.004260932095348835,0.0011983871227130294
1696965604788564200,10.695564208984376,-0.023568280041217804,-0.03515268862247467,0.008655018173158169
1696965604798577200,10.7055771484375,-0.020372580736875534,-0.0031956990715116262,-0.006258244160562754
1696965604808590000,10.715590087890625,-0.019307348877191544,-0.02556559257209301,0.005459319334477186
1696965604818603300,10.725603271484376,-0.019307348877191544,-0.0010652330238372087,-0.0030625448562204838
1696965604828616700,10.73561669921875,-0.021437814459204674,-0.05965305119752884,-0.010519175790250301
1696965604838630400,10.74563037109375,-0.015046416781842709,0.007456631399691105,-0.045671865344047546
1696965604848644600,10.75564453125,-0.010785484686493874,-0.0319569893181324,0.037416309118270874
1696965604858658800,10.765658935546876,-0.007589785382151604,-0.0021304660476744175,-0.07336792349815369
1696965604868673500,10.775673583984375,-0.017176883295178413,-0.0031956990715116262,0.019307348877191544
1696965604878688300,10.785688232421874,-0.00226362026296556,0.007456631399691105,-0.042476166039705276
1696965604888703200,10.795703125,0.0030625448562204838,-0.01171756349503994,0.0011983871227130294
1696965604898718500,10.805718505859375,0.007323476951569319,0.0031956990715116262,-0.023301972076296806
1696965604908733700,10.815733642578126,0.010519175790250301,0.0106523297727108,-0.020106272771954536
1696965604918749000,10.8257490234375,0.0030625448562204838,0.01491326279938221,-0.014780107885599136
1696965604928764200,10.83576416015625,0.016910573467612267,0.00852186419069767,-0.028628136962652206
1696965604938779100,10.845779052734375,0.023301972076296806,-0.007456631399691105,0.006524552125483751
1696965604948793000,10.85579296875,0.019041040912270546,0.03408745676279068,-0.04993279650807381
1696965604958807300,10.865807373046875,0.0030625448562204838,-0.0063913981430232525,0.019307348877191544
1696965604968821500,10.875821533203125,0.0030625448562204838,0.05432688444852829,-0.050998032093048096
1696965604978835500,10.88583544921875,-0.025698747485876083,0.009587096981704235,0.004394086077809334
1696965604988849700,10.895849609375,-0.026763979345560074,0.03515268862247467,-0.016910573467612267
1696965604998863600,10.905863525390625,-0.026763979345560074,0.01917419396340847,-0.017975807189941406
1696965605008877600,10.915877685546874,-0.028894444927573204,0.012782796286046505,0.006524552125483751
1696965605018891800,10.925891845703125,-0.024633513763546944,0.0021304660476744175,-0.021171506494283676
1696965605028905700,10.93590576171875,-0.027829213067889214,-0.01384802907705307,0.017176883295178413
1696965605038920000,10.945919921875,-0.024633513763546944,0.0106523297727108,-0.020106272771954536
1696965605048934000,10.955933837890624,-0.034220609813928604,0.02663082629442215,0.048068638890981674
1696965605058948000,10.965947998046875,-0.03209014609456062,-0.01704372838139534,-0.033954303711652756
1696965605068962000,10.975962158203124,-0.03528584539890289,0.04047885537147522,0.034220609813928604
1696965605078976000,10.98597607421875,-0.03528584539890289,-0.00852186419069767,-0.005193010903894901
1696965605088990200,10.995990234375,-0.03848154470324516,0.03834838792681694,0.026763979345560074
1696965605099004200,11.006004150390625,-0.03848154470324516,0.03089175745844841,-0.012649642303586006
1696965605109018400,11.016018310546874,-0.03528584539890289,0.0021304660476744175,0.043807707726955414
1696965605119032300,11.0260322265625,-0.034220609813928604,0.04367455467581749,-0.012649642303586006
1696965605129046500,11.036046630859374,-0.03528584539890289,-0.0031956990715116262,0.034220609813928604
1696965605139060500,11.046060546875,-0.041677240282297134,0.06604444980621338,-0.021171506494283676
1696965605149074400,11.056074462890624,-0.031024912372231483,-0.05752258375287056,0.033155377954244614
1696965605159088600,11.066088623046875,-0.03848154470324516,0.09374050796031952,-0.03608476743102074
1696965605169102600,11.0761025390625,-0.027829213067889214,-0.09161003679037094,0.033155377954244614
1696965605179116800,11.08611669921875,-0.03954677656292915,0.09480573982000351,-0.055258963257074356
1696965605189130800,11.096130859375,-0.034220609813928604,-0.07882724702358246,0.018242115154862404
1696965605199145000,11.10614501953125,-0.03848154470324516,0.06817491352558136,-0.041410934180021286
1696965605209159000,11.116158935546874,-0.03209014609456062,-0.05219641700387001,0.004394086077809334
1696965605219172900,11.1261728515625,-0.03954677656292915,0.01704372838139534,-0.041410934180021286
1696965605229187000,11.13618701171875,-0.03954677656292915,0.0213046595454216,-0.033954303711652756
1696965605239201000,11.146200927734375,-0.03528584539890289,-0.03621792420744896,0.006524552125483751
1696965605249215200,11.15621533203125,-0.03954677656292915,0.04473978653550148,-0.07336792349815369
1696965605259230000,11.16622998046875,-0.041677240282297134,-0.04367455467581749,0.012915950268507004
1696965605269244400,11.176244384765624,-0.044872939586639404,0.07137060910463333,-0.057389430701732635
1696965605279259000,11.1862587890625,-0.04274247586727142,-0.05113118514418602,0.0001331541279796511
1696965605289272800,11.19627294921875,-0.050199106335639954,0.07030537724494934,-0.05632419511675835
1696965605299287000,11.206287109375,-0.044872939586639404,-0.05113118514418602,0.008655018173158169
1696965605309301000,11.216301025390624,-0.048068638890981674,0.04367455467581749,-0.04673709720373154
1696965605319315200,11.226315185546875,-0.048068638890981674,-0.05539211630821228,0.0011983871227130294
1696965605329329400,11.236329345703124,-0.051264338195323944,0.02982652559876442,-0.029693370684981346
1696965605339343400,11.24634326171875,-0.048068638890981674,-0.07563154399394989,-0.008388710208237171
1696965605349357600,11.256357666015624,-0.048068638890981674,0.0213046595454216,0.0001331541279796511
1696965605359371500,11.26637158203125,-0.04913387447595596,-0.08415340632200241,-0.027562905102968216
1696965605369385700,11.2763857421875,-0.054460037499666214,0.04367455467581749,0.015046416781842709
1696965605379399700,11.286399658203125,-0.051264338195323944,-0.09161003679037094,-0.007323476951569319
1696965605389413600,11.29641357421875,-0.053394805639982224,0.03834838792681694,0.00226362026296556
1696965605399427800,11.306427734375,-0.054460037499666214,-0.0745663121342659,-0.0009320789249613881
1696965605409441800,11.31644189453125,-0.060851436108350754,0.04473978653550148,0.025698747485876083
1696965605419456000,11.3264560546875,-0.05659050494432449,-0.04793548583984375,0.004394086077809334
1696965605429470000,11.336469970703124,-0.058720968663692474,0.01171756349503994,0.017176883295178413
1696965605439484200,11.346484130859375,-0.060851436108350754,-0.0053261648863554,0.023568280041217804
1696965605449498000,11.356498046875,-0.060851436108350754,0,0.010785484686493874
1696965605459512300,11.36651220703125,-0.05978620424866676,0.0063913981430232525,0.019307348877191544
1696965605469526300,11.3765263671875,-0.054460037499666214,-0.03302222490310669,0.024633513763546944
1696965605479540200,11.386540283203125,-0.061916667968034744,0.04793548583984375,0.0033288532868027687
1696965605489554400,11.396554443359374,-0.053394805639982224,-0.07350108027458191,0.03209014609456062
1696965605499568400,11.406568359375,-0.057655736804008484,0.0745663121342659,-0.012649642303586006
1696965605509582600,11.41658251953125,-0.04913387447595596,-0.08841434121131897,0.027829213067889214
1696965605519596500,11.426596435546875,-0.05659050494432449,0.06284874677658081,-0.009453942999243736
1696965605529610800,11.43661083984375,-0.050199106335639954,-0.0639139786362648,0.012915950268507004
1696965605539624700,11.446624755859375,-0.053394805639982224,0.05219641700387001,-0.023301972076296806
1696965605549638700,11.456638671875,-0.04593817517161369,-0.06178351491689682,0.016111649572849274
1696965605559652900,11.46665283203125,-0.053394805639982224,0.02982652559876442,-0.024367205798625946
1696965605569666800,11.476666748046876,-0.051264338195323944,-0.004260932095348835,-0.011584409512579441
1696965605579681000,11.486680908203125,-0.048068638890981674,0,-0.004127778112888336
1696965605589695000,11.496695068359376,-0.051264338195323944,0.02663082629442215,-0.033954303711652756
1696965605599709200,11.506709228515625,-0.04913387447595596,-0.01491326279938221,0.0001331541279796511
1696965605609723100,11.51672314453125,-0.054460037499666214,0.06710968166589737,-0.044606633484363556
1696965605619737000,11.526737060546875,-0.047003407031297684,-0.03302222490310669,0.021437814459204674
1696965605629751300,11.536751220703126,-0.05232957378029823,0.06071828305721283,-0.04993279650807381
1696965605639765500,11.546765625,-0.051264338195323944,-0.04580501839518547,0.03209014609456062
1696965605649779500,11.556779541015626,-0.054460037499666214,0.07776200771331787,-0.052063263952732086
1696965605659793700,11.566793701171875,-0.04593817517161369,-0.08841434121131897,0.025698747485876083
1696965605669807900,11.576807861328126,-0.053394805639982224,0.08095771074295044,-0.029693370684981346
1696965605679821800,11.58682177734375,-0.048068638890981674,-0.07669677585363388,0.017176883295178413
1696965605689836000,11.5968359375,-0.054460037499666214,0.06924014538526535,-0.016910573467612267
1696965605699850000,11.60685009765625,-0.047003407031297684,-0.05432688444852829,0.033155377954244614
1696965605709864200,11.6168642578125,-0.057655736804008484,0.07137060910463333,-0.009453942999243736
1696965605719878400,11.62687841796875,-0.053394805639982224,-0.03621792420744896,0.026763979345560074
1696965605729892400,11.636892333984376,-0.05978620424866676,0.09800143539905548,0.006524552125483751
1696965605739906600,11.646906494140625,-0.054460037499666214,-0.07882724702358246,0.018242115154862404
1696965605749920800,11.656920654296876,-0.061916667968034744,0.12569749355316162,-0.001997311832383275
1696965605759934700,11.666934814453125,-0.057655736804008484,-0.07669677585363388,0.029959678649902344
1696965605769949000,11.676948974609376,-0.06298190355300903,0.10332760214805603,-0.0009320789249613881
1696965605779963100,11.686963134765625,-0.05978620424866676,-0.06817491352558136,0.025698747485876083
1696965605789977000,11.69697705078125,-0.06404713541269302,0.0852186381816864,-0.0030625448562204838
1696965605799991300,11.7069912109375,-0.058720968663692474,-0.02236989326775074,0.031024912372231483
1696965605810005200,11.717005126953126,-0.06404713541269302,0.01491326279938221,-0.009453942999243736
1696965605820019500,11.72701953125,-0.06404713541269302,0.04367455467581749,0.0011983871227130294
1696965605830033700,11.73703369140625,-0.058720968663692474,-0.02236989326775074,0.017176883295178413
1696965605840047600,11.747047607421875,-0.061916667968034744,0.05113118514418602,-0.020106272771954536
1696965605850061800,11.757061767578126,-0.06404713541269302,-0.03515268862247467,0.026763979345560074
1696965605860076000,11.767075927734375,-0.06298190355300903,0.05432688444852829,-0.017975807189941406
1696965605870090000,11.777090087890626,-0.060851436108350754,-0.0426093190908432,0.015046416781842709
1696965605880104200,11.787104248046875,-0.060851436108350754,0.01810896210372448,-0.004127778112888336
1696965605890118400,11.797118408203126,-0.060851436108350754,-0.03941362351179123,-0.009453942999243736
1696965605900132400,11.80713232421875,-0.06404713541269302,0.02450035884976387,-0.010519175790250301
1696965605910146600,11.817146484375,-0.058720968663692474,-0.05539211630821228,0.0011983871227130294
1696965605920160500,11.827160400390625,-0.06298190355300903,0.012782796286046505,-0.007323476951569319
1696965605930174700,11.8371748046875,-0.066177599132061,-0.02876129187643528,-0.023301972076296806
1696965605940189000,11.84718896484375,-0.06404713541269302,-0.01704372838139534,0.016111649572849274
1696965605950203000,11.857202880859376,-0.06404713541269302,-0.01171756349503994,-0.03608476743102074
1696965605960217000,11.867217041015625,-0.066177599132061,-0.02982652559876442,-0.001997311832383275
1696965605970231300,11.877231201171876,-0.06830807030200958,0.0021304660476744175,-0.026497671380639076
1696965605980245200,11.887245361328125,-0.066177599132061,-0.05965305119752884,0.006524552125483751
1696965605990259500,11.897259521484376,-0.07256899774074554,0.02663082629442215,-0.044606633484363556
1696965606000273700,11.907273681640625,-0.06830807030200958,-0.09374050796031952,0.017176883295178413
1696965606010287600,11.91728759765625,-0.07363422960042953,0.03515268862247467,-0.048867564648389816
1696965606020301800,11.9273017578125,-0.06937330216169357,-0.10332760214805603,0.009720250964164734
1696965606030315800,11.937315673828126,-0.07469946891069412,0.04367455467581749,-0.042476166039705276
1696965606040330000,11.947330078125,-0.07256899774074554,-0.10226237028837204,0.008655018173158169
1696965606050344200,11.95734423828125,-0.0778951644897461,0.05752258375287056,-0.015845341607928276
1696965606060358100,11.967358154296875,-0.0768299326300621,-0.06710968166589737,0.0001331541279796511
1696965606070372400,11.977372314453126,-0.08215609937906265,0.04900071769952774,-0.0030625448562204838
1696965606080386600,11.987386474609375,-0.08215609937906265,-0.01704372838139534,0.0001331541279796511
1696965606090400500,11.997400390625,-0.08535179495811462,0.01704372838139534,0.013981183059513569
1696965606100414700,12.007414794921875,-0.0874822586774826,0.02450035884976387,-0.006258244160562754
1696965606110429000,12.017428955078126,-0.08961272984743118,0.0106523297727108,0.027829213067889214
1696965606120443000,12.02744287109375,-0.08854749798774719,0.0106523297727108,0.0033288532868027687
1696965606130457000,12.03745703125,-0.08535179495811462,-0.01384802907705307,0.031024912372231483
1696965606140471000,12.047470947265625,-0.0874822586774826,-0.0010652330238372087,0.007589785382151604
1696965606150485200,12.0574853515625,-0.08535179495811462,-0.03728315606713295,0.028894444927573204
1696965606160499500,12.06749951171875,-0.08322133123874664,0.0106523297727108,0.011850717477500439
1696965606170513400,12.077513427734376,-0.08322133123874664,-0.06604444980621338,0.033155377954244614
1696965606180527600,12.087527587890625,-0.08109086751937866,0.009587096981704235,0.011850717477500439
1696965606190541800,12.097541748046876,-0.08215609937906265,-0.03728315606713295,0.022503048181533813
1696965606200555800,12.1075556640625,-0.08215609937906265,0.0010652330238372087,0.022503048181533813
1696965606210570000,12.117570068359376,-0.08109086751937866,-0.03728315606713295,0.028894444927573204
1696965606220584200,12.127584228515625,-0.08535179495811462,0.02769605815410614,0.023568280041217804
1696965606230598100,12.13759814453125,-0.08109086751937866,-0.03834838792681694,0.029959678649902344
1696965606240612400,12.1476123046875,-0.08215609937906265,0.03621792420744896,0.020372580736875534
1696965606250626300,12.157626220703126,-0.08002562820911407,-0.03941362351179123,0.03848154470324516
