time,seconds_elapsed,z,y,x
1696958661080622800,0.143622802734375,2.095036506652832,0.5628596544265747,0.9503312110900879
1696958661090638000,0.15363818359375,0.9541635513305664,-0.2182694673538208,1.0767408609390259
1696958661100655600,0.163655517578125,-0.016854286193847656,-0.2886965274810791,0.6617829203605652
1696958661110674700,0.1736748046875,1.4160432815551758,0.022719621658325195,1.1328707933425903
1696958661120695600,0.183695556640625,1.886540412902832,0.10824060440063477,0.8330771923065186
1696958661130717400,0.193717529296875,-0.5526332855224609,-0.5495857000350952,0.361758828163147
1696958661140740400,0.203740234375,0.41864776611328125,-0.2841722369194031,0.46506768465042114
1696958661150763500,0.213763427734375,0.13205909729003906,0.27555739879608154,0.5062662363052368
1696958661160786400,0.223786376953125,1.174783706665039,-0.0470615029335022,-0.357740581035614
1696958661170799900,0.2337998046875,-1.4103927612304688,-0.26968324184417725,0.11261385679244995
1696958661180813300,0.243813232421875,1.3823461532592773,0.024095892906188965,0.962971568107605
1696958661190826500,0.253826416015625,1.3680763244628906,0.1918284296989441,0.3516607880592346
1696958661200839700,0.263839599609375,-1.215505599975586,-0.41628700494766235,0.1395612359046936
1696958661210853000,0.27385302734375,0.4951353073120117,0.0016548633575439453,0.8051354289054871
1696958661220866300,0.2838662109375,1.046525001525879,0.0639910101890564,0.800016462802887
1696958661230879500,0.29387939453125,0.15824604034423828,0.243432879447937,0.30806609988212585
1696958661240893000,0.303892822265625,-0.606867790222168,-0.04751831293106079,0.5661189556121826
1696958661250906000,0.313906005859375,0.8351736068725586,-0.06327664852142334,0.6889266967773438
1696958661260919600,0.32391943359375,-0.053748130798339844,-0.48811784386634827,-0.3160421550273895
1696958661270932700,0.3339326171875,-1.0125751495361328,0.29129117727279663,-0.32669422030448914
1696958661280946000,0.34394580078125,1.1872501373291016,0.009197771549224854,0.4399210512638092
1696958661290959400,0.35395947265625,-0.8110733032226562,-0.21677350997924805,0.1162240207195282
1696958661300972500,0.36397265625,-0.03391551971435547,0.22858566045761108,-0.13641604781150818
1696958661310986000,0.373986083984375,-0.3062286376953125,0.12003886699676514,-0.0316428542137146
1696958661320999200,0.383999267578125,-1.6349773406982422,-0.15974098443984985,0.6057688593864441
1696958661331012400,0.394012451171875,2.305074691772461,0.058724045753479004,-0.12529104948043823
1696958661341025800,0.40402587890625,-2.209519863128662,0.4158511757850647,-0.3900021016597748
1696958661351039000,0.4140390625,0.701995849609375,0.25210118293762207,-0.03750056028366089
1696958661361052200,0.42405224609375,0.4830350875854492,0.0261080265045166,0.3742658793926239
1696958661371065600,0.434065673828125,-1.461111068725586,-0.11186420917510986,-0.36995095014572144
1696958661381078800,0.444078857421875,-1.0314149856567383,-0.10953235626220703,0.06781500577926636
1696958661391092200,0.45409228515625,0.4096946716308594,0.3440537452697754,0.4262757897377014
1696958661401105400,0.46410546875,0.9279880523681641,-0.11902296543121338,0.47237837314605713
1696958661411118600,0.47411865234375,-1.904930591583252,-0.20433712005615234,-0.2415388822555542
1696958661421132000,0.484132080078125,1.4194154739379883,-0.0884738564491272,0.5166992545127869
1696958661431145200,0.494145263671875,0.9754371643066406,0.013587892055511475,0.8653320670127869
1696958661441158400,0.504158447265625,0.5880680084228516,-0.23272299766540527,0.5523926019668579
1696958661451171800,0.514171875,-0.8260173797607422,0.15518635511398315,0.2374613881111145
1696958661461185300,0.524185302734375,2.238922119140625,-0.27039891481399536,0.8852814435958862
1696958661471198500,0.534198486328125,0.6819887161254883,-0.31673234701156616,0.32695192098617554
1696958661481212000,0.5442119140625,-1.2376317977905273,-0.2469191551208496,-0.36889469623565674
1696958661491225000,0.55422509765625,0.6041650772094727,0.035047054290771484,0.37042897939682007
1696958661501238500,0.564238525390625,1.8370122909545898,0.020033597946166992,0.6879457831382751
1696958661511252000,0.574251953125,-0.1952953338623047,-0.45218077301979065,-0.16339808702468872
1696958661521265200,0.58426513671875,-1.3102807998657227,0.4561011791229248,0.32885128259658813
1696958661531278600,0.594278564453125,2.127627372741699,0.09162861108779907,0.859643280506134
1696958661541291800,0.604291748046875,-0.42753028869628906,-0.09591591358184814,0.11746758222579956
1696958661551305200,0.61430517578125,-0.9563226699829102,0.03525364398956299,0.03162586688995361
1696958661561318400,0.624318359375,0.5477561950683594,-0.0063967108726501465,0.48683029413223267
1696958661571331800,0.634331787109375,0.15686893463134766,-0.10962796211242676,0.4650222659111023
1696958661581345300,0.64434521484375,0.03162956237792969,-0.2762225866317749,0.06184422969818115
1696958661591358700,0.654358642578125,-0.9440164566040039,0.20049244165420532,0.26053768396377563
1696958661601372200,0.6643720703125,1.2765998840332031,0.6243743896484375,1.0004411935806274
1696958661611385300,0.67438525390625,-0.5308141708374023,-0.7203129529953003,0.0101318359375
1696958661621398800,0.684398681640625,-0.9281377792358398,0.020879387855529785,-0.17994773387908936
1696958661631412200,0.694412109375,0.4350719451904297,0.11547863483428955,0.15831995010375977
1696958661641425700,0.70442578125,-1.048452377319336,0.20162928104400635,0.3971261978149414
1696958661651439000,0.714439208984375,1.161031723022461,-0.32770490646362305,0.11636096239089966
1696958661661452300,0.724452392578125,-1.6078424453735352,0.01706916093826294,-0.450176477432251
1696958661671465700,0.7344658203125,-0.20152568817138672,0.2764717936515808,0.30674099922180176
1696958661681479200,0.744479248046875,0.36772632598876953,-0.16074985265731812,0.3281036615371704
1696958661691492600,0.75449267578125,-1.7488036155700684,-0.4782991111278534,-0.485873281955719
1696958661701505800,0.764505859375,-0.03821372985839844,0.30732011795043945,-0.23459982872009277
1696958661711519200,0.774519287109375,1.417323112487793,0.22351086139678955,0.21812796592712402
1696958661721532700,0.78453271484375,-0.7664089202880859,-0.5731275081634521,-0.4071548581123352
1696958661731546000,0.794546142578125,-0.8082351684570312,-0.4772391617298126,-0.6441607475280762
1696958661741559600,0.8045595703125,0.2851572036743164,-0.25283223390579224,0.056563377380371094
1696958661751572700,0.81457275390625,1.2599458694458008,-0.10123199224472046,0.23045027256011963
1696958661761586200,0.824586181640625,1.5180282592773438,-0.20001697540283203,0.1832006573677063
1696958661771599600,0.834599609375,0.060810089111328125,-0.3016968369483948,0.12876427173614502
1696958661781613000,0.844613037109375,0.7363777160644531,0.14331310987472534,0.8931625485420227
1696958661791626500,0.85462646484375,2.737494468688965,-0.5306521654129028,0.022765636444091797
1696958661801639700,0.8646396484375,-2.3826589584350586,-0.1120983362197876,-0.09961295127868652
1696958661811653000,0.874653076171875,2.482423782348633,0.14640116691589355,0.7873924374580383
1696958661821666600,0.88466650390625,1.3923873901367188,0.31217777729034424,0.4177005887031555
1696958661831680000,0.894679931640625,-0.9679460525512695,-0.8488866090774536,-0.6958848834037781
1696958661841693200,0.904693115234375,0.1562671661376953,0.32345086336135864,0.4251735210418701
1696958661851706600,0.91470654296875,1.167428970336914,-0.14907175302505493,0.28398436307907104
1696958661861720000,0.924719970703125,-1.1333189010620117,-0.5310056209564209,-0.33915919065475464
1696958661871733500,0.9347333984375,0.5561180114746094,0.040263831615448,-0.4391040503978729
1696958661881746700,0.94474658203125,0.05764961242675781,-0.2209383249282837,0.6317599415779114
1696958661891760000,0.954760009765625,-0.10439205169677734,-0.3606685996055603,0.15152257680892944
1696958661901773600,0.964773681640625,0.9772186279296875,-0.42262688279151917,-0.40497517585754395
1696958661911786800,0.974786865234375,-1.4401912689208984,0.563989520072937,0.17366063594818115
1696958661921800200,0.98480029296875,0.4092388153076172,0.007795393466949463,0.38923531770706177
1696958661931813400,0.9948134765625,0.3716878890991211,0.042086660861968994,-0.18757092952728271
1696958661941826800,1.004826904296875,-1.765192985534668,-0.5928323268890381,-0.6485658288002014
1696958661951840300,1.01484033203125,-0.9360885620117188,0.5140886306762695,0.06812870502471924
1696958661961853400,1.024853515625,0.922785758972168,0.31125664710998535,-0.022791683673858643
1696958661971867000,1.034866943359375,-2.4391398429870605,-0.2307339906692505,-0.6983039975166321
1696958661981880000,1.044880126953125,-0.9491853713989258,0.5369209051132202,-0.47833290696144104
1696958661991893500,1.0548935546875,-0.5268993377685547,0.2595713138580322,0.07669562101364136
1696958662001906700,1.06490673828125,-1.4563932418823242,0.12521588802337646,-0.3627868890762329
1696958662011920100,1.074920166015625,-1.3092832565307617,0.10505020618438721,-0.6629168391227722
1696958662021933600,1.08493359375,-1.0878801345825195,0.22947466373443604,-0.3931104242801666
1696958662031946800,1.09494677734375,-1.181797981262207,0.44133901596069336,-0.08673644065856934
1696958662041960200,1.104960205078125,-0.2075357437133789,-0.10012584924697876,0.11243236064910889
1696958662051973400,1.114973388671875,-1.3397579193115234,0.16096580028533936,-0.016329407691955566
1696958662061986800,1.12498681640625,-0.14594554901123047,0.260115385055542,0.8470832705497742
1696958662072000300,1.135000244140625,0.10199642181396484,0.5995785593986511,1.379439353942871
1696958662082013400,1.145013427734375,-1.1197576522827148,0.4314814805984497,0.8770178556442261
1696958662092027000,1.15502685546875,-1.015486717224121,0.25100910663604736,1.1101269721984863
1696958662102040000,1.1650400390625,2.382314682006836,0.03607696294784546,1.0035326480865479
1696958662112053500,1.175053466796875,-0.9302587509155273,0.34444373846054077,0.12069052457809448
1696958662122066700,1.185066650390625,-1.7164921760559082,-0.0781475305557251,-0.7603195309638977
1696958662132080000,1.195080078125,1.4460887908935547,0.5408774018287659,-0.14168238639831543
1696958662142093600,1.205093505859375,-0.638056755065918,-0.4201612174510956,-0.8606702089309692
1696958662152106800,1.215106689453125,-2.8848981857299805,-0.374977171421051,-0.326183557510376
1696958662162120200,1.2251201171875,0.8579292297363281,-0.6383868455886841,-0.2134552299976349
1696958662172133400,1.23513330078125,0.33693599700927734,0.5487115383148193,-0.14745715260505676
1696958662182146800,1.245146728515625,-0.6309623718261719,0.9267601370811462,-0.7254791855812073
1696958662192160300,1.25516015625,-1.6147565841674805,0.32274097204208374,-1.4184503555297852
1696958662202173400,1.26517333984375,-1.070113182067871,0.395969033241272,-1.3255903720855713
1696958662212187000,1.275186767578125,-0.639012336730957,-0.47547534108161926,-1.9603427648544312
1696958662222200000,1.285199951171875,-3.14786958694458,0.6621818542480469,-1.0033937692642212
1696958662232213500,1.295213623046875,2.6460304260253906,-0.2570618987083435,-0.7884695529937744
1696958662242226700,1.305226806640625,0.4954071044921875,-0.4953204095363617,-1.1506680250167847
1696958662252240100,1.315240234375,2.0782623291015625,-1.1971242427825928,-0.830502986907959
1696958662262253600,1.325253662109375,-0.8328628540039062,0.31633710861206055,-0.2136666178703308
1696958662272266800,1.335266845703125,1.573038101196289,0.03222215175628662,-0.14421942830085754
1696958662282280200,1.3452802734375,2.910872459411621,-0.603556752204895,1.2102246284484863
1696958662292293400,1.35529345703125,2.5404844284057617,-0.13159573078155518,-1.2895245552062988
1696958662302306800,1.365306884765625,-0.3319053649902344,-0.22335195541381836,-0.7809402942657471
1696958662312320300,1.3753203125,1.5718536376953125,-0.44708842039108276,-0.503513753414154
1696958662322333400,1.38533349609375,2.6865663528442383,-0.34407779574394226,-1.1695891618728638
1696958662332347000,1.395346923828125,0.060469627380371094,0.23182696104049683,-1.0994542837142944
1696958662342360300,1.4053603515625,3.383756637573242,0.15237855911254883,-0.4468207359313965
1696958662352373800,1.415373779296875,1.7658472061157227,-2.0895440578460693,-0.08409121632575989
1696958662362387000,1.425386962890625,-1.73797607421875,-2.0896198749542236,-1.3643461465835571
1696958662372400400,1.435400390625,0.7238302230834961,-0.6478133201599121,-1.3045445680618286
1696958662382413800,1.445413818359375,4.063088417053223,-0.21662664413452148,-1.348007321357727
1696958662392427300,1.45542724609375,0.23877716064453125,0.20978271961212158,-0.7345860004425049
1696958662402440700,1.465440673828125,3.70041561126709,0.18390458822250366,-0.4212232828140259
1696958662412454000,1.475453857421875,-0.6774263381958008,0.0597538948059082,1.097069263458252
1696958662422467300,1.48546728515625,1.5204439163208008,-1.3140052556991577,-0.34429115056991577
1696958662432480800,1.495480712890625,-0.05452442169189453,0.40766608715057373,0.08728095889091492
1696958662442494200,1.505494140625,4.656461715698242,0.347944974899292,0.6929019689559937
1696958662452507600,1.515507568359375,2.3414077758789062,-0.028238654136657715,-0.14460012316703796
1696958662462520800,1.525520751953125,-0.195953369140625,0.04353606700897217,-0.004802525043487549
1696958662472534300,1.5355341796875,0.6244621276855469,-0.44910240173339844,1.2115142345428467
1696958662482547700,1.545547607421875,-1.5304079055786133,-0.6149295568466187,0.42452555894851685
1696958662492561200,1.55556103515625,0.5217275619506836,-0.8398102521896362,-0.16584663093090057
1696958662502574300,1.56557421875,0.7902545928955078,0.7138012647628784,0.047821879386901855
1696958662512587800,1.575587890625,2.570042610168457,0.046324968338012695,-0.00244748592376709
1696958662522601200,1.585601318359375,0.9498100280761719,0.7851482629776001,-0.17147794365882874
1696958662532614700,1.59561474609375,-2.6493563652038574,-0.30979350209236145,-0.3111323118209839
1696958662542628000,1.605628173828125,-2.3895201683044434,0.16791117191314697,0.4345918893814087
1696958662552641300,1.615641357421875,0.8393039703369141,-0.686643123626709,0.28867560625076294
1696958662562654700,1.62565478515625,-1.0793466567993164,-0.021828293800354004,-0.5148673057556152
1696958662572668200,1.635668212890625,-0.015474319458007812,0.24699485301971436,-1.0436780452728271
1696958662582681600,1.645681640625,-0.2338724136352539,0.7641876339912415,-0.07310527563095093
1696958662592695000,1.655695068359375,-0.5702991485595703,-0.456485778093338,-0.2246927171945572
1696958662602708200,1.665708251953125,-2.7755184173583984,0.11191266775131226,-0.7169229984283447
1696958662612721700,1.6757216796875,-0.6777267456054688,-0.05774718523025513,-0.5450681447982788
1696958662622735000,1.685735107421875,0.19359779357910156,-0.029517173767089844,0.14122551679611206
1696958662632748500,1.69574853515625,-1.769148826599121,-0.4745164215564728,-0.49018973112106323
1696958662642761700,1.70576171875,-0.6724853515625,0.5072849988937378,-0.6790575981140137
1696958662652775200,1.715775146484375,-0.13948535919189453,-0.003621041774749756,-0.26801836490631104
1696958662662788600,1.72578857421875,-1.962204933166504,0.2597082853317261,-0.040620774030685425
1696958662672802000,1.735802001953125,-2.6028552055358887,0.3757209777832031,-0.12115511298179626
1696958662682815500,1.7458154296875,-0.8251562118530273,0.928692102432251,0.3427930772304535
1696958662692828700,1.75582861328125,-0.7296590805053711,-0.008567273616790771,0.7965515851974487
1696958662702842000,1.765842041015625,-1.073227882385254,-0.07651197910308838,-0.09637059271335602
1696958662712855600,1.77585546875,-1.8100743293762207,-0.24997341632843018,-0.3075593411922455
1696958662722869000,1.785868896484375,0.8628959655761719,0.3994223475456238,-0.5254943370819092
1696958662732882400,1.79588232421875,0.3105154037475586,-0.07163673639297485,-0.6537829637527466
1696958662742895600,1.8058955078125,-3.67820405960083,-0.21576470136642456,0.25427335500717163
1696958662752909000,1.815908935546875,2.4732818603515625,-1.3528650999069214,0.6200082898139954
1696958662762922500,1.825922607421875,-2.1989073753356934,-0.8814966678619385,0.4582100808620453
1696958662772936000,1.83593603515625,-0.004836082458496094,-1.595595121383667,0.6187264919281006
1696958662782949000,1.84594921875,0.9914655685424805,0.679155170917511,-1.008371114730835
1696958662792962600,1.855962646484375,-0.6812400817871094,1.8034957647323608,-1.9961869716644287
1696958662802976000,1.86597607421875,0.2427539825439453,-0.047261178493499756,-0.6732212901115417
1696958662812989400,1.875989501953125,-0.6728601455688477,-1.791968822479248,0.13634070754051208
1696958662823003000,1.8860029296875,-0.8022651672363281,0.02214646339416504,-1.122476577758789
1696958662833016000,1.89601611328125,1.2613134384155273,1.2771592140197754,-1.1045207977294922
1696958662843029500,1.906029541015625,-1.5128612518310547,0.6879736185073853,-0.2369379699230194
1696958662853043000,1.91604296875,0.3157539367675781,-0.313639760017395,0.1604112684726715
1696958662863056400,1.926056396484375,0.2770099639892578,-0.7669497728347778,-0.342553973197937
1696958662873069800,1.93606982421875,-0.3335456848144531,-0.5389816761016846,-1.9069969654083252
1696958662883083000,1.9460830078125,-2.1224517822265625,0.4734131097793579,-0.8035620450973511
1696958662893096400,1.956096435546875,2.4786195755004883,0.6685540080070496,0.3777746260166168
1696958662903110000,1.96610986328125,1.4042043685913086,0.6596996188163757,-0.5383317470550537
1696958662913123300,1.976123291015625,-4.178499698638916,0.5777912735939026,-1.6842081546783447
1696958662923136500,1.986136474609375,3.75040340423584,1.1036863327026367,0.3746159076690674
1696958662933150000,1.99614990234375,2.0067758560180664,-1.1525970697402954,-0.2566823959350586
1696958662943163400,2.006163330078125,-2.8980326652526855,-1.4725772142410278,-1.361323595046997
1696958662953176800,2.0161767578125,-1.877307415008545,1.0620675086975098,-0.2270548790693283
1696958662963190300,2.026190185546875,4.4915771484375,1.804298758506775,1.3724005222320557
1696958662973203700,2.03620361328125,1.952322006225586,0.5430371761322021,0.26205989718437195
1696958662983217200,2.046217041015625,2.195286750793457,-0.1728144884109497,-1.1817375421524048
1696958662993230600,2.056230712890625,-4.198368072509766,-0.7504596710205078,-0.7148768901824951
1696958663003244000,2.066244140625,2.3243770599365234,-1.055842399597168,0.8726871013641357
1696958663013257500,2.076257568359375,3.0091819763183594,0.048075199127197266,0.06645360589027405
1696958663023271000,2.08627099609375,-0.8670110702514648,-0.7410951852798462,-1.01395583152771
1696958663033284400,2.096284423828125,2.9931955337524414,1.8855715990066528,-0.49569839239120483
1696958663043297800,2.1062978515625,2.7077550888061523,1.6683361530303955,-0.24895428121089935
1696958663053311200,2.116311279296875,-4.619560241699219,0.14244067668914795,-0.636139988899231
1696958663063324700,2.12632470703125,1.074854850769043,-3.1461431980133057,0.545646071434021
1696958663073338000,2.136338134765625,3.101083755493164,0.383356511592865,1.5192110538482666
1696958663083351600,2.1463515625,0.2588958740234375,1.6294327974319458,-0.2937476336956024
1696958663093365000,2.156364990234375,-0.7070293426513672,0.9366868734359741,0.6910988092422485
1696958663103378400,2.16637841796875,6.243159294128418,-0.961774468421936,0.9494450688362122
1696958663113391900,2.176391845703125,-5.645279407501221,-0.7138011455535889,0.4271877110004425
1696958663123405300,2.1864052734375,0.34946537017822266,0.7868673801422119,0.40031930804252625
1696958663133418800,2.196418701171875,3.0799055099487305,0.4216313362121582,0.5254846811294556
1696958663143432200,2.20643212890625,-2.409578800201416,-1.0413742065429688,0.25468572974205017
1696958663153445600,2.216445556640625,0.7429084777832031,-0.8316953778266907,-0.801638126373291
1696958663163459000,2.226458984375,-0.9202795028686523,0.591966986656189,0.20339110493659973
1696958663173472500,2.236472412109375,2.1444339752197266,-0.10989218950271606,-0.26155027747154236
1696958663183486000,2.24648583984375,-1.7238149642944336,-0.8369331359863281,-0.03851807117462158
1696958663193499400,2.25649951171875,-1.4258794784545898,0.13517242670059204,-0.237232968211174
1696958663203512800,2.266512939453125,0.3256082534790039,0.35439348220825195,0.3230058550834656
1696958663213526300,2.2765263671875,-1.2503013610839844,-0.480555921792984,0.06823429465293884
1696958663223539700,2.286539794921875,-2.604520320892334,0.7959004640579224,-0.3467765748500824
1696958663233553200,2.29655322265625,-0.8909711837768555,0.3251551389694214,-0.4483894109725952
1696958663243566600,2.306566650390625,0.3002052307128906,0.47075557708740234,-1.0735760927200317
1696958663253580000,2.316580078125,-2.572904586791992,-1.5278382301330566,-0.061122193932533264
1696958663263593500,2.326593505859375,-0.4205913543701172,0.7006993889808655,0.15073350071907043
1696958663273607000,2.33660693359375,4.002281188964844,-0.28282642364501953,-0.2998834252357483
1696958663283620400,2.346620361328125,-2.879092216491699,0.02682703733444214,-0.7245376706123352
1696958663293633800,2.3566337890625,-0.5684280395507812,-1.1894762516021729,0.4155900180339813
1696958663303647200,2.366647216796875,1.089085578918457,-0.3497619926929474,-0.6180371046066284
1696958663313660700,2.37666064453125,-0.47099876403808594,-0.7300955653190613,0.1578158438205719
1696958663323674000,2.386674072265625,3.1611223220825195,-0.2384980320930481,0.18607372045516968
1696958663333687600,2.3966875,-0.7782917022705078,-0.3931167423725128,0.5592423677444458
1696958663343701000,2.406700927734375,2.759489059448242,-0.5588440895080566,0.7482950091362
1696958663353714200,2.416714111328125,0.9260673522949219,-0.9192537069320679,1.2759897708892822
1696958663363727600,2.4267275390625,-1.4345979690551758,-0.6659713983535767,-1.2754666805267334
1696958663373741000,2.436740966796875,-3.7755589485168457,0.8055976629257202,-0.9425917863845825
1696958663383754500,2.44675439453125,1.7461671829223633,0.4827911853790283,0.43280941247940063
1696958663393768000,2.456767822265625,0.9622278213500977,-1.207995891571045,-1.1251684427261353
1696958663403781000,2.466781005859375,-6.126463890075684,0.025355815887451172,-0.9917038679122925
1696958663413794600,2.476794677734375,4.137757301330566,0.9305312037467957,0.8137333989143372
1696958663423808000,2.48680810546875,-3.1825294494628906,0.7767663598060608,0.21187147498130798
1696958663433821400,2.496821533203125,-0.6604433059692383,-0.596432089805603,0.12533125281333923
1696958663443835000,2.5068349609375,-0.6185073852539062,0.45491331815719604,0.19611135125160217
1696958663453848000,2.51684814453125,-0.7879657745361328,0.09960484504699707,0.36027762293815613
1696958663463861500,2.526861572265625,-0.7365274429321289,-0.12153887748718262,-1.0102440118789673
1696958663473875000,2.536875,-0.7192878723144531,0.9508822560310364,-0.08840206265449524
1696958663483888400,2.546888427734375,1.4934310913085938,0.6541943550109863,1.6751365661621094
1696958663493901600,2.556901611328125,0.862156867980957,-0.3404109477996826,0.6805006861686707
1696958663503915000,2.5669150390625,-0.3292398452758789,-0.08727401494979858,0.7404676079750061
1696958663513928400,2.576928466796875,2.8307056427001953,-0.771823525428772,-0.10615310072898865
1696958663523942000,2.58694189453125,-2.3145241737365723,0.5657477974891663,0.21652749180793762
1696958663533955300,2.596955322265625,3.5064010620117188,-1.0183225870132446,0.20897361636161804
1696958663543968500,2.606968505859375,-1.4885444641113281,-0.19027775526046753,-0.2912396490573883
1696958663553982000,2.61698193359375,1.8047761917114258,-0.1914547085762024,-0.6136735677719116
1696958663563995400,2.626995361328125,0.6918354034423828,0.18003731966018677,0.5404294729232788
1696958663574008800,2.6370087890625,-3.219388484954834,-0.5777764320373535,0.03132367134094238
1696958663584022300,2.647022216796875,1.9998464584350586,0.021784305572509766,1.645463466644287
1696958663594035500,2.657035400390625,0.8524112701416016,0.2635341286659241,2.226820468902588
1696958663604049000,2.667048828125,-0.8216180801391602,1.0547982454299927,-0.3252922594547272
1696958663614062300,2.677062255859375,-0.4220743179321289,0.7836557030677795,1.4767005443572998
1696958663624075800,2.68707568359375,3.259204864501953,-1.3054165840148926,1.236438512802124
1696958663634089000,2.6970888671875,-3.883220672607422,0.5865380764007568,-0.01743835210800171
1696958663644102400,2.707102294921875,1.5002241134643555,0.9668892025947571,0.6009296178817749
1696958663654115800,2.71711572265625,-0.7525825500488281,-0.8127124309539795,1.7642208337783813
1696958663664129300,2.72712939453125,-2.4119176864624023,-0.2850441336631775,-0.43475276231765747
1696958663674142700,2.737142822265625,-0.6028547286987305,0.9152228236198425,0.690599262714386
1696958663684156000,2.747156005859375,-0.7632160186767578,1.9291625022888184,-0.9015699625015259
1696958663694169300,2.75716943359375,-4.583864688873291,0.0981704592704773,-1.5427272319793701
1696958663704182800,2.767182861328125,-5.035301685333252,-0.3392355442047119,-1.8798718452453613
1696958663714196200,2.7771962890625,1.422262191772461,-0.5278822183609009,-0.6329165697097778
1696958663724209700,2.787209716796875,2.357746124267578,0.09361732006072998,0.43150630593299866
1696958663734222800,2.797222900390625,0.44896888732910156,0.3906187415122986,0.8159816265106201
1696958663744236300,2.807236328125,2.8192968368530273,0.5274077653884888,0.8287705183029175
1696958663754249700,2.817249755859375,-3.5727853775024414,-0.25451940298080444,1.9654449224472046
1696958663764263200,2.82726318359375,-1.265594482421875,-0.5630209445953369,-0.455558717250824
1696958663774276600,2.837276611328125,2.7771987915039062,-0.8139201402664185,0.5417488217353821
1696958663784290000,2.8472900390625,2.757866859436035,0.08734047412872314,-0.11008515954017639
1696958663794303500,2.857303466796875,2.708786964416504,-0.4093855321407318,-0.835237979888916
1696958663804317000,2.86731689453125,-1.7255477905273438,0.744844377040863,0.9419869184494019
1696958663814330400,2.877330322265625,-2.1498379707336426,-1.0748989582061768,0.5236035585403442
1696958663824343800,2.88734375,1.3373746871948242,1.911848545074463,0.791223406791687
1696958663834357200,2.897357177734375,2.1254119873046875,-0.6843813061714172,1.8188424110412598
1696958663844370700,2.90737060546875,-0.9521417617797852,-0.4266839921474457,0.7791967391967773
1696958663854384000,2.917384033203125,0.17726612091064453,-0.9120636582374573,-0.7368965148925781
1696958663864397600,2.9273974609375,-0.4197359085083008,0.09189218282699585,-1.4366199970245361
1696958663874411000,2.937410888671875,-0.08859062194824219,0.8781191110610962,0.6384408473968506
1696958663884424400,2.947424560546875,0.22743511199951172,-1.0201430320739746,2.251603603363037
1696958663894438000,2.95743798828125,1.348109245300293,-0.23214632272720337,0.47595664858818054
1696958663904451300,2.967451416015625,1.343954086303711,-1.031508445739746,0.8704832792282104
1696958663914464800,2.97746484375,-0.4506692886352539,0.21691954135894775,0.6270642280578613
1696958663924478200,2.987478271484375,2.983722686767578,-0.0876232385635376,0.33733320236206055
1696958663934491600,2.99749169921875,-2.6647839546203613,-0.7230348587036133,-0.20948255062103271
1696958663944505000,3.007505126953125,3.260007858276367,-0.11024457216262817,1.2935073375701904
1696958663954518500,3.0175185546875,4.299905776977539,-0.3869379460811615,0.42148178815841675
1696958663964532000,3.027531982421875,-4.1561102867126465,0.6214305758476257,1.2114659547805786
1696958663974545400,3.03754541015625,5.239665985107422,-0.3375367224216461,0.924347460269928
1696958663984558800,3.047558837890625,-4.3311872482299805,0.7424473166465759,1.1530005931854248
1696958663994572300,3.057572265625,0.9771385192871094,0.9582100510597229,-0.45775851607322693
1696958664004585700,3.067585693359375,1.5853490829467773,0.48625290393829346,-1.0420241355895996
1696958664014599200,3.07759912109375,-3.247117519378662,-0.18709242343902588,0.7540329098701477
1696958664024612600,3.087612548828125,4.369637489318848,-0.5995578765869141,0.24641704559326172
1696958664034626000,3.0976259765625,-3.9818811416625977,0.7474989295005798,0.36327576637268066
1696958664044639500,3.107639404296875,0.6197977066040039,-1.3040326833724976,1.0289130210876465
1696958664054653000,3.11765283203125,0.9421777725219727,0.07577890157699585,-0.6141015291213989
1696958664064666400,3.127666259765625,-1.8494219779968262,0.504440188407898,-0.3675975501537323
1696958664074679800,3.1376796875,-0.09099578857421875,-1.2944600582122803,0.41013574600219727
1696958664084693200,3.147693359375,2.578497886657715,-0.7607532739639282,0.18087279796600342
1696958664094706700,3.157706787109375,0.7799491882324219,0.7600306868553162,0.11972850561141968
1696958664104720100,3.16772021484375,-1.8730030059814453,-0.18888390064239502,0.10186952352523804
1696958664114733600,3.177733642578125,1.704564094543457,-1.5808820724487305,-0.835835874080658
1696958664124747000,3.1877470703125,1.6619834899902344,0.49972760677337646,0.9619093537330627
1696958664134760400,3.197760498046875,-0.14868831634521484,-0.695591926574707,0.039901554584503174
1696958664144774000,3.20777392578125,1.026310920715332,0.08403831720352173,-0.13434457778930664
1696958664154787300,3.217787353515625,2.9960880279541016,0.48923230171203613,-0.09455287456512451
1696958664164800800,3.22780078125,-2.2617239952087402,-0.7278370261192322,0.3625301122665405
1696958664174814200,3.237814208984375,4.053503036499023,-1.621816635131836,0.5249729752540588
1696958664184827600,3.24782763671875,0.6933746337890625,-0.28999000787734985,-0.9506065249443054
1696958664194841000,3.257841064453125,-2.5659403800964355,0.7852005958557129,-1.4452807903289795
1696958664204854500,3.2678544921875,0.21665000915527344,0.0005139708518981934,0.852647602558136
1696958664214868000,3.277867919921875,3.1627073287963867,0.7813864350318909,0.9514503479003906
1696958664224881400,3.28788134765625,-2.7644152641296387,-0.6836687326431274,-0.021949946880340576
1696958664234894800,3.297894775390625,-2.3169326782226562,0.00573807954788208,0.22849592566490173
1696958664244908300,3.307908203125,3.5073976516723633,0.2197621464729309,1.5806448459625244
1696958664254921700,3.317921630859375,-1.2363462448120117,-1.0953267812728882,-0.3566855788230896
1696958664264935200,3.32793505859375,-1.429154396057129,0.15752607583999634,-1.7635596990585327
1696958664274948600,3.337948486328125,0.21909332275390625,1.3349158763885498,0.4619518220424652
1696958664284962000,3.347962158203125,0.7578048706054688,-0.2315780520439148,0.010301679372787476
1696958664294975500,3.3579755859375,-2.28201961517334,-2.0346298217773438,-1.405343770980835
1696958664304988700,3.36798876953125,-1.2333593368530273,-0.5109034180641174,-2.1733946800231934
1696958664315002000,3.378002197265625,-3.4355359077453613,0.21206122636795044,-2.206589698791504
1696958664325015600,3.388015625,0.10053634643554688,-2.3483755588531494,-1.7129197120666504
1696958664335029000,3.398029052734375,0.1214752197265625,-0.07048165798187256,-0.4846284091472626
1696958664345042400,3.40804248046875,0.8626213073730469,1.8332664966583252,0.3436940610408783
1696958664355055600,3.4180556640625,4.395962715148926,0.45076191425323486,0.30534958839416504
1696958664365069000,3.428069091796875,-1.8112702369689941,-1.353015422821045,-0.5412091016769409
1696958664375082500,3.43808251953125,-2.468797206878662,0.8651260733604431,0.58370441198349
1696958664385096000,3.448095947265625,4.073625564575195,-0.9112367630004883,-0.2753435969352722
1696958664395109000,3.458109130859375,-3.397944450378418,0.8752704858779907,-0.02750486135482788
1696958664405122600,3.46812255859375,1.9428415298461914,1.3858916759490967,-1.388507604598999
1696958664415136000,3.478135986328125,-2.2933168411254883,1.3201510906219482,0.09827476739883423
1696958664425149400,3.4881494140625,1.5968656539916992,-2.144472122192383,0.11735856533050537
1696958664435163000,3.498162841796875,-1.4062376022338867,-0.6798952221870422,-0.10928750038146973
1696958664445176000,3.508176025390625,-0.050201416015625,-0.24840885400772095,-0.131869375705719
1696958664455189500,3.518189453125,3.0184335708618164,1.183598279953003,0.5890802145004272
1696958664465203000,3.528202880859375,0.7602825164794922,-0.7868455648422241,-0.10004603862762451
1696958664475216400,3.53821630859375,-2.2603302001953125,-3.18247389793396,-0.856661319732666
1696958664485229800,3.548229736328125,-0.43796253204345703,0.07988470792770386,0.808034360408783
1696958664495243000,3.558242919921875,2.8799705505371094,1.0566532611846924,0.2784615755081177
1696958664505256400,3.56825634765625,-2.9270920753479004,0.5205065011978149,0.32948625087738037
1696958664515270000,3.578269775390625,4.705519676208496,3.405636787414551,-0.42675137519836426
1696958664525283300,3.588283447265625,-4.320728302001953,-1.6062591075897217,0.8978857398033142
1696958664535296500,3.598296630859375,1.6004371643066406,-1.397186279296875,1.2126190662384033
1696958664545310000,3.60831005859375,0.6744794845581055,-0.4802238345146179,-1.1895594596862793
1696958664555323400,3.618323486328125,-1.4810152053833008,1.9175784587860107,0.002429366111755371
1696958664565336800,3.6283369140625,3.1239843368530273,-0.550545334815979,-0.9408507943153381
1696958664575350300,3.638350341796875,-1.1266193389892578,-1.1522468328475952,-0.29309403896331787
1696958664585363500,3.648363525390625,1.5477657318115234,-1.9040820598602295,0.13298344612121582
1696958664595377000,3.658376953125,-0.08042240142822266,1.6218132972717285,-0.2825429439544678
1696958664605390300,3.668390380859375,0.9857997894287109,0.6798864603042603,0.8806248307228088
1696958664615403800,3.67840380859375,0.23340892791748047,-1.4383575916290283,1.7484558820724487
1696958664625417200,3.688417236328125,0.9249477386474609,-0.655856728553772,0.12498891353607178
1696958664635430400,3.698430419921875,2.13144588470459,1.0739995241165161,-2.40078067779541
1696958664645443800,3.70844384765625,-0.46808624267578125,1.8084216117858887,-1.258239507675171
1696958664655457300,3.718457275390625,2.342350959777832,-0.49660825729370117,1.281043529510498
1696958664665470700,3.728470703125,-0.29142189025878906,-2.3913164138793945,-0.03779435157775879
1696958664675484200,3.738484130859375,-1.4948997497558594,0.11794352531433105,-0.43809568881988525
1696958664685497300,3.748497314453125,3.2300233840942383,0.6165744066238403,1.040419101715088
1696958664695510800,3.7585107421875,-1.2123661041259766,-0.2867085933685303,0.48323941230773926
1696958664705524200,3.768524169921875,-0.6173543930053711,0.3889634609222412,-0.663184404373169
1696958664715537700,3.77853759765625,1.2002763748168945,-0.755738377571106,0.08640766143798828
1696958664725550800,3.78855078125,-0.6473379135131836,-0.14532077312469482,0.9774600267410278
1696958664735564300,3.798564208984375,4.490180015563965,-1.2115925550460815,0.006836920976638794
1696958664745577700,3.80857763671875,-3.486217975616455,0.17954504489898682,-0.9248250722885132
1696958664755591200,3.818591064453125,1.8449888229370117,-0.465114951133728,-0.5369324088096619
1696958664765604600,3.8286044921875,0.130279541015625,0.8185124397277832,-0.6913923025131226
1696958664775617800,3.83861767578125,-0.7878017425537109,-1.6848808526992798,-0.09648650884628296
1696958664785631200,3.84863134765625,1.6510820388793945,-1.1013774871826172,-0.7150380611419678
1696958664795644700,3.858644775390625,1.7711801528930664,0.16879022121429443,-1.4828320741653442
1696958664805658000,3.868658203125,1.170271873474121,0.9477696418762207,-0.19494743645191193
1696958664815671600,3.878671630859375,-1.4565668106079102,-2.069108009338379,-0.10079619288444519
1696958664825684700,3.888684814453125,3.411637306213379,-1.6173601150512695,0.01776033639907837
1696958664835698200,3.8986982421875,2.337810516357422,-0.2079533338546753,-2.2344319820404053
1696958664845711600,3.908711669921875,-3.5212392807006836,1.5191737413406372,-1.4502637386322021
1696958664855725000,3.91872509765625,5.122286796569824,-0.6779139041900635,1.1309731006622314
1696958664865738200,3.92873828125,-0.37528038024902344,-1.842392921447754,0.05965334177017212
1696958664875751700,3.938751708984375,-2.0093674659729004,-0.4150571823120117,-1.096357822418213
1696958664885765000,3.94876513671875,1.3752260208129883,1.527984857559204,-1.191339135169983
1696958664895778600,3.958778564453125,1.2381305694580078,-0.5239421129226685,-1.2388149499893188
1696958664905792000,3.9687919921875,-0.8715934753417969,-2.6881918907165527,-0.7727118730545044
1696958664915805400,3.978805419921875,-1.3903179168701172,0.4464583396911621,-2.371934413909912
1696958664925819000,3.98881884765625,-0.7307901382446289,1.6851602792739868,-0.9343968629837036
1696958664935832300,3.998832275390625,1.6080999374389648,-0.07843577861785889,-0.835277259349823
1696958664945845800,4.008845703125,-5.099513053894043,-3.042449951171875,0.2117789089679718
1696958664955859200,4.018859130859375,-0.6667699813842773,0.03366804122924805,-0.2815501093864441
1696958664965872600,4.02887255859375,-2.011075973510742,1.9433673620224,-1.6796693801879883
1696958664975886000,4.038885986328125,-3.559384346008301,2.2745282649993896,-3.0985019207000732
1696958664985899500,4.0488994140625,-1.0123844146728516,-0.3020423650741577,-0.9934228658676147
1696958664995913000,4.058912841796875,-3.570523738861084,-1.360645055770874,0.36605265736579895
1696958665005926400,4.068926513671875,-2.5730953216552734,-0.8138734102249146,-1.9373987913131714
1696958665015939800,4.07893994140625,0.93157958984375,1.7920281887054443,-2.915461778640747
1696958665025953300,4.088953369140625,3.1619110107421875,-0.7934983968734741,-0.5533809661865234
1696958665035966700,4.098966796875,-1.5913105010986328,-2.1544854640960693,0.1286071538925171
1696958665045980200,4.108980224609375,-2.409912109375,0.7656371593475342,-0.45220422744750977
1696958665055993600,4.11899365234375,-1.8968501091003418,1.549618124961853,-0.3122536242008209
1696958665066007000,4.129007080078125,4.033106803894043,-0.7801685333251953,1.5329136848449707
1696958665076020500,4.1390205078125,0.553741455078125,-2.5656933784484863,-0.33983150124549866
1696958665086034000,4.149033935546875,-1.7659077644348145,-0.6402022838592529,-0.6835207343101501
1696958665096047400,4.15904736328125,5.023932456970215,0.494154691696167,-1.4465057849884033
1696958665106060800,4.169060791015625,-0.20151042938232422,0.5351051092147827,-1.8087271451950073
1696958665116074200,4.17907421875,-3.6949167251586914,1.1187505722045898,0.4752274453639984
1696958665126087700,4.189087646484375,3.510725975036621,-1.356326937675476,0.5236774682998657
1696958665136101000,4.19910107421875,-1.7832860946655273,-1.6111953258514404,-0.061793893575668335
1696958665146114600,4.209114501953125,4.237214088439941,-1.108752965927124,0.7309852838516235
1696958665156128000,4.2191279296875,-2.0325984954833984,0.028982877731323242,1.2307943105697632
1696958665166141400,4.229141357421875,-0.28421497344970703,0.45504283905029297,0.09824508428573608
1696958665176155000,4.23915478515625,-2.7539725303649902,0.7476943731307983,-2.371250629425049
1696958665186168300,4.249168212890625,2.112668991088867,0.28460896015167236,0.08730879426002502
1696958665196181800,4.259181640625,-0.9505834579467773,-1.5151264667510986,-0.8652229905128479
1696958665206195200,4.2691953125,-1.909766674041748,0.8424767255783081,0.2507203221321106
1696958665216208600,4.279208740234375,7.543366432189941,-0.2711009979248047,-0.15120959281921387
1696958665226222000,4.28922216796875,-3.9483718872070312,-0.3547813892364502,0.35666751861572266
1696958665236235500,4.299235595703125,-2.6025171279907227,-0.42684483528137207,-0.40194642543792725
1696958665246249000,4.3092490234375,-1.529571533203125,-0.20428955554962158,-0.2885136604309082
1696958665256262400,4.319262451171875,5.1304826736450195,-0.6302492618560791,-1.0223299264907837
1696958665266275800,4.32927587890625,-0.008869171142578125,0.1812659502029419,-0.02767316997051239
1696958665276289300,4.339289306640625,0.008829116821289062,0.4671889543533325,-0.015307962894439697
1696958665286302700,4.349302734375,-2.8005504608154297,-0.7647838592529297,-0.7206875085830688
1696958665296316200,4.359316162109375,-2.641633987426758,2.142270803451538,-0.7345035076141357
1696958665306329600,4.36932958984375,1.5940780639648438,1.6409951448440552,-1.3376837968826294
1696958665316342800,4.3793427734375,-4.856893062591553,0.08698689937591553,0.3478003144264221
1696958665326356200,4.389356201171875,-0.5403347015380859,-0.7849289178848267,0.10885104537010193
1696958665336369700,4.39936962890625,-3.822266101837158,1.1185786724090576,-0.8828943967819214
1696958665346383000,4.409383056640625,4.199917793273926,-1.7035770416259766,-1.7906370162963867
1696958665356396500,4.419396484375,-4.703770637512207,-1.9565905332565308,-0.27788999676704407
1696958665366409700,4.42940966796875,3.10469913482666,1.8415507078170776,-0.4795699715614319
1696958665376423200,4.439423095703125,0.40248584747314453,1.5260204076766968,-0.8948184847831726
1696958665386436600,4.4494365234375,-7.350830078125,-0.7254825830459595,-0.8390865325927734
1696958665396450000,4.459449951171875,3.9759979248046875,-0.782778263092041,0.46942585706710815
1696958665406463200,4.469463134765625,-0.5587158203125,-0.5045661926269531,-1.7108383178710938
1696958665416476700,4.4794765625,-0.3781280517578125,-0.1496490240097046,-2.1579184532165527
1696958665426490000,4.489489990234375,2.5419492721557617,-2.5020227432250977,-1.1166348457336426
1696958665436503600,4.499503662109375,0.2693462371826172,0.07160604000091553,-0.24830390512943268
1696958665446517000,4.50951708984375,0.047707557678222656,2.126833915710449,-0.7204004526138306
1696958665456530200,4.5195302734375,1.4223499298095703,0.8948449492454529,0.5512043833732605
1696958665466543600,4.529543701171875,1.0063867568969727,-2.248206615447998,1.4377679824829102
1696958665476557000,4.53955712890625,-1.2866106033325195,0.3932993412017822,1.1307543516159058
1696958665486570500,4.549570556640625,1.6253042221069336,-0.00924450159072876,-1.4696083068847656
1696958665496584000,4.559583984375,-2.1691794395446777,0.5089676380157471,-0.8858429789543152
1696958665506597000,4.56959716796875,3.4970474243164062,-1.2135475873947144,-0.9542897343635559
1696958665516610600,4.579610595703125,-2.2086405754089355,0.6979745030403137,-1.6677583456039429
1696958665526624000,4.5896240234375,3.3908796310424805,-1.195054292678833,-0.9831384420394897
1696958665536637400,4.599637451171875,-1.2864494323730469,-0.09084087610244751,1.0095866918563843
1696958665546651000,4.60965087890625,-1.4097423553466797,0.1689656376838684,0.4807811379432678
1696958665556664000,4.6196640625,1.6997928619384766,-0.6033384203910828,-0.6878662705421448
1696958665566677500,4.629677490234375,-0.9628286361694336,-1.7561874389648438,0.1627860814332962
1696958665576691000,4.63969091796875,3.4546661376953125,0.4296097159385681,-0.34263813495635986
1696958665586704400,4.649704345703125,0.04752826690673828,0.6176352500915527,-0.8998960256576538
1696958665596717600,4.659717529296875,2.317021369934082,-0.19149643182754517,-0.7640055418014526
1696958665606731000,4.66973095703125,-1.4788551330566406,-1.701004981994629,0.6484450101852417
1696958665616744400,4.679744384765625,0.6748981475830078,-1.791722297668457,-0.7745505571365356
1696958665626758000,4.6897578125,-0.8367376327514648,-0.06051993370056152,-2.723207950592041
1696958665636771300,4.699771240234375,0.03997611999511719,0.3190704584121704,-1.4991543292999268
1696958665646785300,4.709785400390625,2.0951290130615234,-2.1401596069335938,-1.0782971382141113
1696958665656798700,4.719798828125,2.286123275756836,0.703181803226471,0.6970632672309875
1696958665666812200,4.729812255859375,2.1473169326782227,1.3284952640533447,-1.6285160779953003
1696958665676825600,4.73982568359375,-3.4873766899108887,-0.19613909721374512,-0.05311354249715805
1696958665686839000,4.749839111328125,7.713468551635742,-2.337454319000244,1.2851707935333252
1696958665696852200,4.759852294921875,-2.6458940505981445,-1.543593168258667,0.05335594713687897
1696958665706865700,4.76986572265625,-0.9242086410522461,1.1481850147247314,-2.1589629650115967
1696958665716879000,4.779879150390625,0.8808469772338867,2.4473328590393066,-0.8946554064750671
1696958665726892500,4.789892578125,2.2506637573242188,-0.15636587142944336,-0.6467651128768921
1696958665736906000,4.799906005859375,-1.6635398864746094,-3.431206703186035,0.053195565938949585
1696958665746919200,4.809919189453125,-0.617518424987793,-1.2858295440673828,-0.7355143427848816
1696958665756932600,4.8199326171875,0.727839469909668,1.0345970392227173,-1.3482879400253296
1696958665766946000,4.829946044921875,-1.5241384506225586,3.310852527618408,-1.1572375297546387
1696958665776959500,4.83995947265625,4.997981071472168,-3.106222152709961,-0.6037393808364868
1696958665786972700,4.84997265625,-3.237802505493164,-1.3995025157928467,0.7699743509292603
1696958665796986000,4.859986083984375,2.055309295654297,0.791106104850769,0.25039002299308777
1696958665806999600,4.86999951171875,-2.5884642601013184,1.4362531900405884,-1.8031209707260132
1696958665817013000,4.880012939453125,-1.411738395690918,-1.7980329990386963,1.1609247922897339
1696958665827026400,4.8900263671875,5.354860305786133,-2.1285533905029297,1.7579667568206787
1696958665837039600,4.90003955078125,-5.720669269561768,2.1072816848754883,-0.10190701484680176
1696958665847053000,4.910052978515625,2.412442207336426,2.3590762615203857,-0.7404780387878418
1696958665857066500,4.92006640625,0.7489776611328125,-1.4889142513275146,0.4165633022785187
1696958665867080000,4.930079833984375,-4.089173793792725,-1.0203135013580322,0.06522852182388306
1696958665877093400,4.94009326171875,-1.3168048858642578,0.9710949063301086,-1.3769809007644653
1696958665887106600,4.9501064453125,0.7321996688842773,1.9191417694091797,-0.169252410531044
1696958665897120500,4.96012060546875,0.8356761932373047,-0.8708593249320984,1.0503394603729248
1696958665907134000,4.970134033203125,-2.3300323486328125,-1.1687074899673462,1.8068616390228271
1696958665917147100,4.980147216796875,-1.9325551986694336,0.9474553465843201,0.41642436385154724
1696958665927160300,4.990160400390625,-0.7522296905517578,0.7165259718894958,-0.07480424642562866
1696958665937173800,5.000173828125,0.06232166290283203,-0.6907516121864319,0.23394012451171875
1696958665947187000,5.01018701171875,-4.191084384918213,-1.0526288747787476,-1.0189205408096313
1696958665957200400,5.020200439453125,0.7655773162841797,-0.06853598356246948,-0.5369673371315002
1696958665967213600,5.030213623046875,-1.3567705154418945,0.6518577933311462,0.9933640956878662
1696958665977226800,5.040226806640625,2.18740177154541,-1.317652702331543,1.313260555267334
1696958665987240200,5.050240234375,-0.6748294830322266,0.022644996643066406,1.0199737548828125
1696958665997253400,5.06025341796875,0.14404678344726562,1.768045425415039,0.6850529909133911
1696958666007266800,5.070266845703125,-1.346776008605957,0.7075119614601135,-2.1082961559295654
1696958666017280000,5.080280029296875,-3.7420172691345215,-0.7083594799041748,-0.17751675844192505
1696958666027293400,5.09029345703125,5.032256126403809,-1.431743860244751,0.28476569056510925
1696958666037307000,5.100306884765625,-1.4115276336669922,-0.8973751664161682,-1.513171672821045
1696958666047320300,5.1103203125,0.6188335418701172,1.236960530281067,-1.6126580238342285
1696958666057333800,5.120333740234375,2.1528186798095703,0.3276865482330322,1.2715526819229126
1696958666067347200,5.13034716796875,0.03574371337890625,-1.5410796403884888,0.8037099838256836
1696958666077360600,5.140360595703125,-1.8035821914672852,-1.9360743761062622,0.46974682807922363
1696958666087374000,5.1503740234375,0.2187519073486328,1.3483275175094604,-0.14593884348869324
1696958666097387500,5.160387451171875,4.443387031555176,1.7646762132644653,1.3194634914398193
1696958666107401000,5.17040087890625,0.48676013946533203,0.4245767593383789,1.33750319480896
1696958666117414400,5.180414306640625,-2.4534192085266113,0.5394781231880188,0.7792503833770752
1696958666127427800,5.190427734375,-1.686976432800293,-2.181840419769287,0.7935571670532227
1696958666137441300,5.200441162109375,0.9371700286865234,1.0706138610839844,1.338834285736084
1696958666147455200,5.210455322265625,0.3291301727294922,-0.4456811547279358,1.464930534362793
1696958666157469000,5.220468994140625,4.447700500488281,2.1174778938293457,0.601815938949585
1696958666167482400,5.230482421875,-2.1377086639404297,-0.02143782377243042,-1.1377365589141846
1696958666177495800,5.240495849609375,-1.3389396667480469,-1.8268382549285889,0.7667120695114136
1696958666187509200,5.25050927734375,-1.6832342147827148,-1.5467250347137451,2.3920958042144775
1696958666197522700,5.260522705078125,1.7851858139038086,-0.09460371732711792,0.08851125836372375
1696958666207535900,5.270535888671875,-0.8844985961914062,2.581956624984741,0.7998794317245483
1696958666217549300,5.28054931640625,6.0712127685546875,0.02868717908859253,1.5505139827728271
1696958666227562800,5.290562744140625,-2.8889641761779785,-0.037191152572631836,0.43983274698257446
1696958666237576200,5.300576171875,0.26195812225341797,-1.659210443496704,0.09202611446380615
1696958666247589600,5.310589599609375,-1.672947883605957,1.2426224946975708,-0.6287538409233093
1696958666257602800,5.320602783203125,-1.004415512084961,0.6414138078689575,1.433353304862976
1696958666267616300,5.3306162109375,3.6817121505737305,-0.2270033359527588,1.9357573986053467
1696958666277629700,5.340629638671875,-3.3910293579101562,0.5165477395057678,-0.10597407817840576
1696958666287643100,5.35064306640625,-2.1208558082580566,0.08964210748672485,0.9850189089775085
1696958666297656300,5.36065625,3.107400894165039,0.15953552722930908,1.023367166519165
1696958666307669800,5.370669677734375,-0.7334680557250977,-0.283153235912323,0.6983546614646912
1696958666317683200,5.38068310546875,0.18562984466552734,0.8590772747993469,1.1246634721755981
1696958666327696600,5.390696533203125,-0.025826454162597656,-0.27683478593826294,0.8758999109268188
1696958666337710000,5.4007099609375,0.8957290649414062,-1.3448654413223267,-0.35685503482818604
1696958666347723300,5.41072314453125,-2.0742759704589844,0.7999943494796753,0.5382764339447021
1696958666357736700,5.42073681640625,2.628129005432129,-0.17519766092300415,0.8692923188209534
1696958666367750100,5.430750244140625,-0.9585247039794922,-0.003476083278656006,0.47935765981674194
1696958666377763600,5.440763671875,2.3166494369506836,-0.9091572165489197,-0.1025659441947937
1696958666387777000,5.450777099609375,-1.1390352249145508,0.7120588421821594,0.8699849843978882
1696958666397790200,5.460790283203125,1.8782997131347656,0.3491073250770569,1.0338873863220215
1696958666407803600,5.4708037109375,2.474956512451172,-1.6046292781829834,-0.8549438714981079
1696958666417817000,5.480817138671875,-1.3925485610961914,-1.2964050769805908,-0.4487546682357788
1696958666427830500,5.49083056640625,0.8037967681884766,0.17799460887908936,-0.5600017309188843
1696958666437843700,5.50084375,0.8594951629638672,1.2959834337234497,2.0203206539154053
1696958666447857200,5.510857177734375,3.389559745788574,-0.1772470474243164,1.719260811805725
1696958666457870600,5.52087060546875,-2.253938674926758,-2.397672653198242,-1.4853136539459229
1696958666467884000,5.530884033203125,-4.489948272705078,-1.0682563781738281,0.04766690731048584
1696958666477897500,5.5408974609375,5.973043441772461,1.410996437072754,0.9514976739883423
1696958666487910700,5.55091064453125,-4.1392693519592285,0.957802414894104,0.5723220705986023
1696958666497924000,5.560924072265625,1.2606000900268555,-2.633777618408203,1.2565743923187256
1696958666507937500,5.5709375,1.721083641052246,-0.437959223985672,-0.28661420941352844
1696958666517951000,5.580950927734375,-3.3965535163879395,1.0835869312286377,0.29770857095718384
1696958666527964400,5.59096435546875,2.752429962158203,0.9172946810722351,0.6437921524047852
1696958666537977600,5.6009775390625,-2.109323501586914,-0.4136609733104706,0.21772366762161255
1696958666547991000,5.610990966796875,-2.835379123687744,-1.1535673141479492,1.0486233234405518
1696958666558004500,5.62100439453125,3.532369613647461,-0.7521888017654419,0.8098083734512329
1696958666568018000,5.631017822265625,-1.4990053176879883,-1.3926053047180176,-0.5987698435783386
1696958666578031000,5.641031005859375,0.5211982727050781,0.16572630405426025,0.40840011835098267
1696958666588044500,5.65104443359375,0.14779090881347656,-0.1436193585395813,1.5652059316635132
1696958666598058000,5.66105810546875,1.0646514892578125,1.3237487077713013,0.43006443977355957
1696958666608071400,5.671071533203125,-0.20456218719482422,-1.0762510299682617,-1.0666694641113281
1696958666618084900,5.6810849609375,-6.320488929748535,-0.8770798444747925,0.8476629257202148
1696958666628098000,5.69109814453125,3.4962148666381836,0.5548217296600342,0.7833836078643799
1696958666638111500,5.701111572265625,-0.8368339538574219,0.6916583180427551,-0.08926635980606079
1696958666648125000,5.711125,-1.9821534156799316,-0.6441745162010193,-0.9144214987754822
1696958666658138400,5.721138427734375,4.116209030151367,-0.25356370210647583,0.6136100888252258
1696958666668151800,5.73115185546875,-1.5663232803344727,0.4948563575744629,-1.3083477020263672
1696958666678165000,5.7411650390625,-3.335747718811035,-0.06818240880966187,-1.7755908966064453
1696958666688178400,5.751178466796875,2.512714385986328,-1.4887657165527344,0.612837016582489
1696958666698192000,5.76119189453125,-0.9000530242919922,-1.2184123992919922,1.1442418098449707
1696958666708205300,5.771205322265625,0.4587211608886719,0.8211755752563477,-0.2793254256248474
1696958666718218500,5.781218505859375,0.10437870025634766,2.4821600914001465,-0.15412503480911255
1696958666728232000,5.79123193359375,0.30965423583984375,0.611524224281311,1.2812938690185547
1696958666738245400,5.801245361328125,0.28970909118652344,-2.0816218852996826,2.1507620811462402
1696958666748258800,5.8112587890625,-1.3078765869140625,-1.7421998977661133,1.222975492477417
1696958666758272300,5.821272216796875,2.3509349822998047,0.7217103838920593,0.0015812516212463379
1696958666768285400,5.831285400390625,-0.3166666030883789,2.039511203765869,-0.8925452828407288
1696958666778299000,5.841298828125,-0.9087104797363281,0.4971654415130615,-0.23389822244644165
1696958666788312300,5.851312255859375,2.4334611892700195,-2.3635988235473633,0.4608194828033447
1696958666798325800,5.86132568359375,-3.5509986877441406,-1.9414905309677124,0.044671595096588135
1696958666808339200,5.871339111328125,0.4429187774658203,0.41996240615844727,-0.9805318117141724
1696958666818352400,5.881352294921875,3.486429214477539,0.2724371552467346,0.6445635557174683
1696958666828365800,5.89136572265625,-1.5494680404663086,-0.6628788709640503,0.12593293190002441
1696958666838379300,5.901379150390625,3.729294776916504,0.6469177603721619,-1.626707673072815
1696958666848392700,5.911392822265625,-5.120002746582031,-0.3159630298614502,-0.866105318069458
1696958666858406000,5.921406005859375,1.835679054260254,0.5002254247665405,1.4122940301895142
1696958666868419300,5.93141943359375,3.996880531311035,0.03236907720565796,1.3806179761886597
1696958666878432800,5.941432861328125,-3.401276111602783,-0.016844987869262695,1.0624518394470215
1696958666888446200,5.9514462890625,3.1057424545288086,-1.2939064502716064,0.39167654514312744
1696958666898459600,5.961459716796875,-4.279783248901367,0.7962866425514221,0.08112543821334839
1696958666908472800,5.971472900390625,1.9239816665649414,0.07994848489761353,0.10582196712493896
1696958666918486300,5.981486328125,1.0406265258789062,-1.1898789405822754,2.0547866821289062
1696958666928499700,5.991499755859375,1.6204986572265625,-1.5552750825881958,-0.15637201070785522
1696958666938513200,6.00151318359375,-0.944178581237793,-1.3145971298217773,0.8475961089134216
1696958666948526600,6.011526611328125,-0.41114234924316406,1.4427704811096191,-0.4331305921077728
1696958666958539800,6.021539794921875,-0.027858734130859375,-0.35487526655197144,0.9251607656478882
1696958666968553200,6.03155322265625,1.1391258239746094,0.04527747631072998,1.368675708770752
1696958666978566700,6.041566650390625,-0.5652647018432617,-0.9556782841682434,-0.05555236339569092
1696958666988580000,6.051580078125,-1.590928077697754,1.8295788764953613,0.06716841459274292
1696958666998593500,6.061593505859375,2.761813163757324,-0.6417672634124756,0.9069308638572693
1696958667008606700,6.071606689453125,-0.5610170364379883,-0.791163980960846,0.48523151874542236
1696958667018620200,6.0816201171875,2.5700511932373047,-0.8699036836624146,0.16476595401763916
1696958667028633600,6.091633544921875,-0.2029438018798828,1.7037192583084106,-0.6252230405807495
1696958667038647000,6.10164697265625,0.4665870666503906,0.13465839624404907,1.054006814956665
1696958667048660200,6.11166015625,-3.34768009185791,-1.8687509298324585,1.4960427284240723
1696958667058673700,6.121673583984375,2.489180564880371,-1.0169018507003784,1.111399531364441
1696958667068687000,6.13168701171875,2.6652870178222656,0.8428704738616943,0.4518803358078003
1696958667078700500,6.141700439453125,-3.506239891052246,-0.638068437576294,-0.9743626713752747
1696958667088714000,6.1517138671875,3.4212636947631836,0.2269774079322815,-0.786064624786377
1696958667098727200,6.16172705078125,-1.0923585891723633,-0.6729488372802734,0.4343092441558838
1696958667108740600,6.17174072265625,-1.3774614334106445,-1.7045526504516602,-0.16358867287635803
1696958667118754000,6.181754150390625,0.007813453674316406,-0.3832051753997803,1.0878360271453857
1696958667128767500,6.191767578125,1.388880729675293,0.33349674940109253,-0.24994687736034393
1696958667138781000,6.201781005859375,-0.3966827392578125,1.317384958267212,-1.2719931602478027
1696958667148794000,6.211794189453125,-0.7537965774536133,0.781875729560852,-0.2067454755306244
1696958667158807600,6.2218076171875,-2.1519389152526855,-3.0525755882263184,-0.03393474221229553
1696958667168821000,6.231821044921875,1.2748432159423828,-0.3365545868873596,1.041464924812317
1696958667178834400,6.24183447265625,0.2117452621459961,1.8847326040267944,-0.9326367378234863
1696958667188847900,6.251847900390625,-1.6004838943481445,1.3120039701461792,-0.42544230818748474
1696958667198861300,6.261861328125,1.9304780960083008,-0.37598860263824463,1.0131412744522095
1696958667208874800,6.271874755859375,-2.7434072494506836,-2.4489288330078125,-0.8242082595825195
1696958667218888200,6.28188818359375,-2.731717586517334,-0.07122468948364258,-0.3193647861480713
1696958667228901600,6.291901611328125,2.4363832473754883,0.6653345227241516,-0.2758917212486267
1696958667238915000,6.3019150390625,-0.6565465927124023,0.4452363848686218,-2.234466314315796
1696958667248928500,6.311928466796875,-2.967461109161377,-0.41535836458206177,-0.415407657623291
1696958667258942000,6.32194189453125,-0.4557065963745117,-0.32559525966644287,1.2395007610321045
1696958667268955400,6.331955322265625,2.85213565826416,-0.02627617120742798,-0.026342809200286865
1696958667278968800,6.34196875,-3.448127269744873,0.3389679789543152,-1.3933756351470947
1696958667288982300,6.351982177734375,-1.576228141784668,-0.08837121725082397,-0.852325439453125
1696958667298995700,6.36199560546875,1.2478952407836914,0.8184448480606079,1.486693263053894
1696958667309009200,6.372009033203125,-3.1376490592956543,0.10147660970687866,-1.2039706707000732
1696958667319022600,6.382022705078125,-3.287912368774414,-0.4565138816833496,-1.019486427307129
1696958667329036000,6.3920361328125,3.195925712585449,-0.4039970636367798,-0.18575727939605713
1696958667339049500,6.402049560546875,-2.5986318588256836,0.9499119520187378,0.6916390061378479
1696958667349063000,6.41206298828125,4.288420677185059,-0.8440665006637573,-0.4011538326740265
1696958667359076000,6.422076171875,-3.3195438385009766,-0.34641849994659424,0.7898987531661987
1696958667369089500,6.432089599609375,0.9078540802001953,-0.5756561756134033,2.0080690383911133
1696958667379103000,6.44210302734375,1.6703863143920898,0.43352293968200684,-0.14925697445869446
1696958667389116400,6.452116455078125,-0.0068569183349609375,-0.020329535007476807,-1.385555386543274
1696958667399129900,6.4621298828125,1.546743392944336,-0.7793617248535156,-0.7993407249450684
1696958667409143300,6.472143310546875,-1.171015739440918,0.22390210628509521,2.813149929046631
1696958667419156700,6.48215673828125,4.16976261138916,-0.11299395561218262,0.42561206221580505
1696958667429170200,6.492170166015625,-4.045800685882568,-0.3625492453575134,-0.7556933164596558
1696958667439183600,6.50218359375,3.1850357055664062,-1.4743729829788208,0.9330717325210571
1696958667449197000,6.512197021484375,-0.5541896820068359,0.5084856748580933,0.21395504474639893
1696958667459210500,6.52221044921875,-0.8445396423339844,2.6840896606445312,1.1162036657333374
1696958667469224000,6.532223876953125,3.645167350769043,-2.4640543460845947,0.750750720500946
1696958667479237400,6.5422373046875,-0.1297130584716797,-0.9422063827514648,2.0985281467437744
1696958667489250800,6.552250732421875,1.0849132537841797,-0.6070117950439453,-0.2539438009262085
1696958667499264300,6.56226416015625,-4.656763553619385,2.8155689239501953,-0.27796751260757446
1696958667509277700,6.572277587890625,8.352127075195312,-3.9104859828948975,0.23605895042419434
1696958667519291100,6.582291015625,-1.5970163345336914,-1.5881521701812744,0.2018883228302002
1696958667529304600,6.5923046875,-2.4973630905151367,-0.32206326723098755,-1.1010241508483887
1696958667539318000,6.602318115234375,3.0149755477905273,2.089437484741211,0.3027023673057556
1696958667549331500,6.61233154296875,4.493863105773926,-0.18397092819213867,0.8210027813911438
1696958667559344600,6.6223447265625,0.9514551162719727,-3.560394287109375,-0.4420287013053894
1696958667569358000,6.632358154296875,-6.352618217468262,1.5240392684936523,-0.05111128091812134
1696958667579371500,6.64237158203125,4.467507362365723,-0.3450968861579895,0.369512140750885
1696958667589385000,6.652385009765625,4.615048408508301,-1.4683178663253784,-0.5006389021873474
1696958667599398400,6.6623984375,-2.956653594970703,-1.652045488357544,-0.610279381275177
1696958667609411600,6.67241162109375,6.761354446411133,-1.9695096015930176,1.4784128665924072
1696958667619425000,6.682425048828125,0.6467380523681641,0.27529072761535645,-1.5873024463653564
1696958667629438500,6.6924384765625,-2.8386635780334473,0.30500417947769165,-2.5158615112304688
1696958667639452000,6.702451904296875,-5.229300498962402,0.28103017807006836,1.9275648593902588
1696958667649465300,6.71246533203125,4.790349006652832,-0.9890008568763733,0.8845709562301636
1696958667659478500,6.722478515625,-3.5933480262756348,0.4698967933654785,-0.5228272080421448
1696958667669492000,6.732491943359375,2.369295120239258,-0.6938033699989319,-0.4758715033531189
1696958667679505400,6.74250537109375,-2.8922882080078125,-1.1649106740951538,3.0134849548339844
1696958667689518800,6.752518798828125,-2.441133975982666,1.4843840599060059,2.3741824626922607
1696958667699532300,6.7625322265625,0.44103050231933594,2.0251083374023438,1.5286071300506592
1696958667709545500,6.77254541015625,-3.355618953704834,-0.4092320203781128,0.2572824954986572
1696958667719559000,6.782558837890625,2.8644838333129883,-1.4669467210769653,-0.41708600521087646
1696958667729572400,6.792572265625,-4.24365758895874,-0.08037424087524414,-0.9666845202445984
1696958667739585800,6.802585693359375,-2.6190757751464844,0.5073195695877075,-1.1951403617858887
1696958667749599000,6.812598876953125,-4.246936321258545,-3.771162748336792,0.07904249429702759
1696958667759612400,6.8226123046875,1.7707462310791016,-0.9618086218833923,1.9040948152542114
1696958667769625900,6.8326259765625,1.1693363189697266,1.5791406631469727,-0.8400503396987915
1696958667779639300,6.842639404296875,0.15245914459228516,1.8075448274612427,-0.6307063102722168
1696958667789652700,6.85265283203125,3.468843460083008,-2.0753445625305176,-0.5889937281608582
1696958667799666000,6.862666015625,-8.280440330505371,-1.4597692489624023,0.8083812594413757
1696958667809679400,6.872679443359375,3.7765045166015625,0.2735697627067566,0.9829972982406616
1696958667819692800,6.88269287109375,4.135838508605957,0.21155017614364624,-0.1438085436820984
1696958667829706200,6.892706298828125,-2.6508240699768066,-0.257753849029541,-0.1562340259552002
1696958667839719700,6.9027197265625,0.619384765625,-1.567749261856079,0.333726167678833
1696958667849732900,6.91273291015625,-0.4812335968017578,-1.3975650072097778,0.19432175159454346
1696958667859746300,6.922746337890625,-0.17909622192382812,-0.6546552181243896,-1.2827168703079224
1696958667869759700,6.932759765625,1.160029411315918,-0.08119308948516846,-0.47934114933013916
1696958667879773200,6.942773193359375,1.2481212615966797,0.5341343283653259,-0.918918788433075
1696958667889786400,6.952786376953125,0.44284725189208984,0.1752251386642456,0.40577977895736694
1696958667899799800,6.9627998046875,-1.6988286972045898,-2.086848735809326,0.49014604091644287
1696958667909813200,6.972813232421875,-1.3167839050292969,-0.9412987232208252,0.5448276996612549
1696958667919826700,6.98282666015625,3.0118913650512695,0.0392950177192688,0.5196151733398438
1696958667929840000,6.992840087890625,1.2752885818481445,-0.16177397966384888,-1.3019120693206787
1696958667939853300,7.002853271484375,-2.0056748390197754,-0.6849319934844971,-0.301200807094574
1696958667949866800,7.01286669921875,-0.33183956146240234,-0.983588457107544,1.3480949401855469
1696958667959880200,7.022880126953125,2.6084718704223633,-1.678970456123352,1.231207251548767
1696958667969893600,7.0328935546875,-2.075438976287842,-0.20461082458496094,-0.6998697519302368
1696958667979907000,7.042906982421875,-0.45000553131103516,-0.1405976414680481,-0.7128849625587463
1696958667989920300,7.052920166015625,2.415341377258301,-0.2983796000480652,0.5113540887832642
1696958667999933700,7.06293359375,-1.178908348083496,-0.2562866806983948,-0.9453921914100647
1696958668009947100,7.072947021484375,-0.10477256774902344,-0.005963623523712158,-0.0006485581398010254
1696958668019960600,7.082960693359375,2.018446922302246,-2.4219412803649902,0.8061057329177856
1696958668029973800,7.092973876953125,2.104731559753418,-0.19644063711166382,-0.2274143099784851
1696958668039987200,7.1029873046875,-0.6705970764160156,-0.3183010220527649,1.5786020755767822
1696958668050000600,7.113000732421875,0.47297000885009766,-0.14483213424682617,-0.151877760887146
1696958668060014000,7.12301416015625,-2.7532973289489746,-1.3953144550323486,-0.6180302500724792
1696958668070027500,7.133027587890625,0.1839313507080078,-0.6678520441055298,0.7815667986869812
1696958668080040700,7.143040771484375,6.754881858825684,-2.1020634174346924,1.2513463497161865
1696958668090054100,7.15305419921875,-2.1544694900512695,1.2250791788101196,-0.4598785638809204
1696958668100067600,7.163067626953125,-3.166665554046631,-0.45196884870529175,0.14731985330581665
1696958668110081000,7.1730810546875,1.1569280624389648,-2.073291540145874,0.11327213048934937
1696958668120094500,7.183094482421875,4.470778465270996,-2.361201763153076,0.7633720636367798
1696958668130107600,7.193107666015625,-3.892368793487549,-0.3937646746635437,-0.7792314291000366
1696958668140121000,7.20312109375,3.700638771057129,-0.35175377130508423,-0.13642847537994385
1696958668150134500,7.213134521484375,-0.31632041931152344,-0.604690432548523,0.11212176084518433
1696958668160148000,7.22314794921875,-0.5641746520996094,-1.7851229906082153,0.7901856303215027
1696958668170161200,7.2331611328125,-0.657963752746582,-0.4794318675994873,-1.276780128479004
1696958668180174600,7.243174560546875,-0.7469234466552734,0.39205294847488403,0.1640028953552246
1696958668190188000,7.25318798828125,2.2137508392333984,0.9285496473312378,1.4516204595565796
1696958668200201500,7.263201416015625,0.27280712127685547,-1.6135705709457397,0.4224591851234436
1696958668210215000,7.27321484375,-4.3727803230285645,-2.133111000061035,1.9757826328277588
1696958668220228000,7.28322802734375,4.545214653015137,-1.4559378623962402,3.1301445960998535
1696958668230241500,7.293241455078125,-2.830759048461914,0.08075696229934692,0.16025352478027344
1696958668240255000,7.3032548828125,-1.2579765319824219,0.26036763191223145,-2.355679512023926
1696958668250268400,7.313268310546875,-3.0799384117126465,-3.3285043239593506,0.8096096515655518
1696958668260281900,7.32328173828125,4.343297958374023,-0.29790347814559937,-0.7409918904304504
1696958668270295000,7.333294921875,-2.7974019050598145,0.8749432563781738,-1.385122537612915
1696958668280308500,7.34330859375,-1.194681167602539,-0.5065025091171265,-0.33670318126678467
1696958668290322000,7.353322021484375,5.507906913757324,-3.415200710296631,1.446150302886963
1696958668300335400,7.36333544921875,-3.7618770599365234,-0.7897675633430481,0.2148478627204895
1696958668310348500,7.3733486328125,0.7862539291381836,-0.37790849804878235,0.44904786348342896
1696958668320362000,7.383362060546875,3.842534065246582,-2.197650671005249,0.48038941621780396
1696958668330375400,7.39337548828125,-1.3904104232788086,-1.923283338546753,1.188697099685669
1696958668340388900,7.403388916015625,-0.7087554931640625,-1.6309356689453125,2.6187291145324707
1696958668350402300,7.41340234375,3.0429296493530273,-0.05568021535873413,2.19435715675354
1696958668360415700,7.423415771484375,1.8584070205688477,-1.5419427156448364,-1.0762596130371094
1696958668370429200,7.43342919921875,-2.6198911666870117,-1.43707275390625,-1.5106548070907593
1696958668380442600,7.443442626953125,-1.002823829650879,-2.244701385498047,1.778627872467041
1696958668390456000,7.4534560546875,3.2613964080810547,-1.7826030254364014,-0.7248731851577759
1696958668400469500,7.463469482421875,-4.808554172515869,-0.624211311340332,-0.14536118507385254
1696958668410483000,7.47348291015625,3.7045812606811523,-0.9788980484008789,-0.41137805581092834
1696958668420496400,7.483496337890625,1.086343765258789,-1.3187445402145386,-0.15595674514770508
1696958668430509800,7.493509765625,-1.2484121322631836,-1.9551573991775513,-0.6835808753967285
1696958668440523300,7.503523193359375,-2.3250885009765625,-2.134143352508545,-1.4317066669464111
1696958668450536700,7.51353662109375,-1.238534927368164,-0.7233445048332214,0.3007739186286926
1696958668460550100,7.523550048828125,5.097352981567383,-1.0854238271713257,-0.0465051531791687
1696958668470563600,7.5335634765625,-4.046942710876465,-0.33649390935897827,-1.4688920974731445
1696958668480577000,7.543576904296875,1.4065189361572266,-0.5742579698562622,0.5234909057617188
1696958668490590500,7.553590576171875,1.2754364013671875,-0.6466736793518066,1.0428117513656616
1696958668500604000,7.56360400390625,-0.5918979644775391,-1.474463939666748,0.35424214601516724
1696958668510617300,7.573617431640625,-1.8753619194030762,-0.31888431310653687,-0.1356487274169922
1696958668520630800,7.583630859375,1.1541881561279297,0.7043340802192688,2.170584201812744
1696958668530644200,7.593644287109375,3.554812431335449,-1.7193138599395752,1.0669357776641846
1696958668540657700,7.60365771484375,-2.481046676635742,-1.8817585706710815,-1.0852646827697754
1696958668550671000,7.613671142578125,0.8317584991455078,-1.1016563177108765,-0.7046955823898315
1696958668560684500,7.6236845703125,-1.793858528137207,-0.6028029918670654,0.139118492603302
1696958668570698000,7.633697998046875,1.5022144317626953,-1.0225517749786377,-0.4326363503932953
1696958668580711400,7.64371142578125,-1.5169076919555664,-1.7830078601837158,-0.9729467034339905
1696958668590724900,7.653724853515625,-1.527470588684082,-0.48450198769569397,0.7546647787094116
1696958668600738300,7.66373828125,6.996552467346191,-0.9951483607292175,-0.028714656829833984
1696958668610751700,7.673751708984375,-3.7534008026123047,-0.9007902145385742,0.2014787793159485
1696958668620765200,7.68376513671875,1.5925788879394531,-1.3301434516906738,-1.0066845417022705
1696958668630778600,7.693778564453125,-0.22174835205078125,-1.4732670783996582,0.11766695976257324
1696958668640792000,7.7037919921875,0.4426889419555664,-1.173170804977417,-0.37063300609588623
1696958668650805500,7.713805419921875,1.0724973678588867,-0.755933403968811,-0.5009357929229736
1696958668660819000,7.72381884765625,1.3661794662475586,-0.5292121171951294,0.4117152690887451
1696958668670832400,7.733832275390625,2.691176414489746,-1.7785987854003906,0.04036402702331543
1696958668680845800,7.743845703125,-2.1422228813171387,-0.17317986488342285,-0.3367880582809448
1696958668690859300,7.753859375,1.9820480346679688,-0.6330493688583374,0.299538254737854
1696958668700872400,7.76387255859375,2.130040168762207,-0.6821550726890564,-0.5456347465515137
1696958668710886000,7.773885986328125,-1.2444934844970703,-1.1512787342071533,-0.7407436370849609
1696958668720899300,7.7838994140625,1.8644132614135742,-2.256885528564453,-1.1886427402496338
1696958668730912800,7.793912841796875,-2.689635753631592,-0.05481374263763428,-0.9972705841064453
1696958668740926000,7.803926025390625,1.9333820343017578,-0.702640175819397,-0.5020442008972168
1696958668750939400,7.813939453125,-0.751856803894043,-0.2806673049926758,-0.3143428564071655
1696958668760952800,7.823952880859375,1.447737693786621,-1.7295472621917725,-0.3218425214290619
1696958668770966300,7.83396630859375,0.36449432373046875,-0.7255274057388306,-0.8739106059074402
1696958668780979700,7.843979736328125,-2.0498828887939453,-1.3172489404678345,-1.1888381242752075
1696958668790993000,7.853992919921875,1.233499526977539,-0.3921873867511749,-1.2017099857330322
1696958668801006300,7.86400634765625,0.5905122756958008,-1.0768076181411743,-0.799389660358429
1696958668811019800,7.874019775390625,-1.9627799987792969,-0.9023714065551758,-0.25515294075012207
1696958668821033200,7.884033203125,1.7837696075439453,-1.2823364734649658,-0.9466379284858704
1696958668831046700,7.894046630859375,-0.7675514221191406,-0.6479430198669434,-1.5118979215621948
1696958668841059800,7.904059814453125,-0.029680252075195312,-1.0072345733642578,-0.737697184085846
1696958668851073300,7.9140732421875,-0.6410999298095703,-0.49596884846687317,-1.6865952014923096
1696958668861086700,7.924086669921875,-0.4723091125488281,0.31991279125213623,-1.2498525381088257
1696958668871100200,7.93410009765625,1.8038997650146484,-0.9019564986228943,-0.07021695375442505
1696958668881113300,7.94411328125,0.14151954650878906,-1.026124358177185,0.5082191824913025
1696958668891126800,7.954126708984375,-0.06932449340820312,-0.3850402534008026,0.018727242946624756
1696958668901140200,7.96414013671875,-0.13108062744140625,0.5435432195663452,0.08420610427856445
1696958668911153700,7.974153564453125,-0.12604141235351562,-0.6029538512229919,1.0714597702026367
1696958668921167000,7.9841669921875,0.7249393463134766,-1.925620198249817,0.4131532311439514
1696958668931180300,7.99418017578125,-2.0581936836242676,-1.2082065343856812,0.37549278140068054
1696958668941193700,8.00419384765625,0.11667633056640625,0.28218722343444824,0.47036629915237427
1696958668951207200,8.014207275390625,1.7414369583129883,1.69364333152771,-0.38706034421920776
1696958668961220600,8.024220703125,-1.3736095428466797,-0.5677827000617981,-0.7608177661895752
1696958668971234000,8.034234130859375,-1.895777702331543,-2.3984460830688477,0.6714189052581787
1696958668981247200,8.044247314453125,0.7425203323364258,0.2987096309661865,1.3729134798049927
1696958668991260700,8.0542607421875,1.8496780395507812,1.0546015501022339,-0.6479830741882324
1696958669001274000,8.064274169921875,-1.604792594909668,0.20488190650939941,-0.21696200966835022
1696958669011287600,8.07428759765625,1.37652587890625,-1.8267085552215576,0.6628817915916443
1696958669021300700,8.08430078125,-0.9535379409790039,-0.3654194474220276,0.14472326636314392
1696958669031314200,8.094314208984375,-1.686910629272461,1.4013077020645142,0.10641583800315857
1696958669041327600,8.10432763671875,1.9782342910766602,0.5289127826690674,1.0025646686553955
1696958669051341000,8.114341064453125,0.023929595947265625,0.26595354080200195,0.7438668012619019
1696958669061354500,8.1243544921875,-1.95930814743042,-0.33431923389434814,-0.22576647996902466
1696958669071367700,8.13436767578125,-0.6495704650878906,0.15115994215011597,0.05383038520812988
1696958669081381000,8.144381103515625,0.9769315719604492,0.28609800338745117,0.045480430126190186
1696958669091394600,8.15439453125,0.7788820266723633,0.16806679964065552,-1.208150029182434
1696958669101408000,8.164407958984375,-2.3052287101745605,-0.46040627360343933,-0.04575127363204956
1696958669111421400,8.17442138671875,1.972794532775879,0.01958245038986206,0.5768989324569702
1696958669121434600,8.1844345703125,-1.6873559951782227,-0.48263832926750183,0.7579047679901123
1696958669131448000,8.194447998046876,1.0642023086547852,0.17772895097732544,0.09020358324050903
1696958669141461500,8.20446142578125,2.619884490966797,-1.3796217441558838,-0.4977169632911682
1696958669151475000,8.214474853515625,-0.5979766845703125,-0.4971630871295929,1.1014434099197388
1696958669161488100,8.224488037109374,4.77956485748291,-0.5362029075622559,0.29306769371032715
1696958669171501600,8.23450146484375,-0.5509042739868164,-0.5167186260223389,-1.2242463827133179
1696958669181515000,8.244514892578126,0.6688518524169922,-0.7274372577667236,0.7516766786575317
1696958669191528400,8.254528564453125,3.644723892211914,-1.029779314994812,-0.035454899072647095
1696958669201542000,8.2645419921875,-4.072547435760498,-0.2644932270050049,-1.1790637969970703
1696958669211555000,8.27455517578125,1.705759048461914,-0.314561665058136,-0.3035280704498291
1696958669221568500,8.284568603515625,2.079771041870117,0.23036491870880127,-0.2672588527202606
1696958669231582000,8.29458203125,-1.1747751235961914,0.7411645650863647,-0.8945157527923584
1696958669241595400,8.304595458984375,-1.1907167434692383,0.2601577043533325,-0.46991583704948425
1696958669251608800,8.31460888671875,-0.10719585418701172,-0.18170267343521118,-0.06842711567878723
1696958669261622000,8.3246220703125,-0.7900419235229492,-0.046157777309417725,-0.5394866466522217
1696958669271635500,8.334635498046875,-0.40992069244384766,0.014402151107788086,-0.6038418412208557
1696958669281649000,8.34464892578125,-1.9617071151733398,-0.3184061646461487,-0.02067863941192627
1696958669291662300,8.354662353515625,-0.1977672576904297,-0.4278005361557007,0.18396100401878357
1696958669301675800,8.36467578125,-2.53842830657959,0.5992393493652344,-0.6310088634490967
1696958669311689000,8.37468896484375,-0.1949930191040039,0.48201215267181396,-0.09108763933181763
1696958669321702400,8.384702392578125,-0.21303367614746094,0.19776737689971924,-0.08080911636352539
1696958669331715800,8.3947158203125,-0.24582767486572266,-0.2782750129699707,-0.17751765251159668
1696958669341729300,8.404729248046875,-1.783503532409668,0.00863635540008545,-0.48739859461784363
1696958669351742500,8.414742431640626,-1.0333709716796875,0.07448375225067139,0.12430119514465332
1696958669361756000,8.424755859375,2.027857780456543,0.04883015155792236,0.30742812156677246
1696958669371769300,8.434769287109376,-2.525909423828125,0.5135098695755005,0.04817125201225281
1696958669381782800,8.44478271484375,-0.986083984375,0.22644484043121338,0.28523850440979004
1696958669391796200,8.454796142578125,0.7995386123657227,0.19529223442077637,0.38314756751060486
1696958669401809400,8.464809326171874,-1.6876344680786133,-0.23904573917388916,-0.04807096719741821
1696958669411822800,8.47482275390625,-0.6509923934936523,0.22832727432250977,-0.39676132798194885
1696958669421836300,8.484836181640626,-0.2814788818359375,0.2481987476348877,0.3294055461883545
1696958669431849700,8.494849609375,0.3645133972167969,0.2518012523651123,0.3124130964279175
1696958669441863200,8.50486328125,-1.4667491912841797,0.16969513893127441,-0.21331924200057983
1696958669451876400,8.51487646484375,-0.6032342910766602,0.4225121736526489,0.09895652532577515
1696958669461889800,8.524889892578125,1.142622947692871,0.2014477252960205,0.37580883502960205
1696958669471903200,8.5349033203125,-1.436182975769043,0.1495741605758667,-0.12343582510948181
1696958669481916700,8.544916748046875,-0.4102611541748047,-0.33831095695495605,0.46123313903808594
1696958669491929900,8.554929931640626,1.0433826446533203,0.49603915214538574,0.8420041799545288
1696958669501943300,8.564943359375,0.8686313629150391,0.0893101692199707,0.6158996820449829
1696958669511956700,8.574956787109375,-1.2605094909667969,0.07309877872467041,0.1697646975517273
1696958669521970200,8.58497021484375,1.5474624633789062,-0.09033346176147461,0.996600866317749
1696958669531983600,8.594983642578125,0.8600149154663086,-0.012957453727722168,0.5096437931060791
1696958669541996800,8.604996826171876,-0.6143407821655273,-0.23080110549926758,0.3717779517173767
1696958669552010200,8.61501025390625,-0.02069568634033203,0.2325575351715088,0.8075262308120728
1696958669562023700,8.625023681640625,2.354121208190918,0.47728872299194336,0.572468638420105
1696958669572037000,8.635037109375,-0.9158954620361328,-0.09740698337554932,-0.014335393905639648
1696958669582050600,8.645050537109375,-0.3360280990600586,-0.39723074436187744,0.48967328667640686
1696958669592063700,8.655063720703126,1.1699857711791992,-0.09451174736022949,0.6642303466796875
1696958669602077200,8.6650771484375,0.4402961730957031,-0.3302353620529175,0.35335811972618103
1696958669612090600,8.675090576171876,-0.30173301696777344,-0.02254331111907959,0.512432336807251
1696958669622104000,8.68510400390625,2.871518135070801,-0.24135172367095947,0.5346530079841614
1696958669632117500,8.695117431640625,-0.6429719924926758,-0.2507740259170532,0.23908889293670654
1696958669642131000,8.705130859375,-1.8894219398498535,-0.017952680587768555,0.2616102993488312
1696958669652144400,8.715144287109375,2.726764678955078,0.1974758505821228,0.19533514976501465
1696958669662157800,8.72515771484375,-0.47220325469970703,-0.18215101957321167,-0.07404685020446777
1696958669672171300,8.735171142578125,-0.662445068359375,-0.39352530241012573,0.2636837661266327
1696958669682184700,8.745184814453125,2.531024932861328,-0.38492459058761597,-0.3797202706336975
1696958669692198100,8.7551982421875,-0.6384382247924805,-0.14464610815048218,0.2873597741127014
1696958669702211600,8.765211669921875,-0.9670085906982422,0.06536740064620972,-0.45416879653930664
1696958669712225000,8.77522509765625,-0.38164615631103516,0.43282830715179443,-0.26308637857437134
1696958669722238500,8.785238525390625,0.9908676147460938,0.7293444871902466,0.2502136826515198
1696958669732252000,8.795251953125,-0.010318756103515625,-0.8089327216148376,-0.8741702437400818
1696958669742265300,8.805265380859375,-3.303107261657715,-0.5325486660003662,-0.9895222783088684
1696958669752278800,8.81527880859375,2.186452865600586,-0.700370192527771,-0.39739227294921875
1696958669762292200,8.825292236328124,-1.7848596572875977,0.10848534107208252,-0.15277157723903656
1696958669772305700,8.8353056640625,1.1914911270141602,-0.2863301634788513,-0.6270198225975037
1696958669782319000,8.845319091796876,1.4040250778198242,0.2746471166610718,0.7196300029754639
1696958669792332500,8.85533251953125,1.5867109298706055,0.300129234790802,0.7261663675308228
1696958669802346000,8.865345947265626,-0.7635889053344727,-0.5117994546890259,-0.03929096460342407
1696958669812359400,8.875359375,-0.15511131286621094,-0.5868862867355347,0.612031102180481
1696958669822372900,8.885372802734375,3.300534248352051,-0.4211370348930359,0.3782682418823242
1696958669832386300,8.89538623046875,-1.3906707763671875,0.4027004837989807,-0.011105477809906006
1696958669842399700,8.905399658203125,1.4941825866699219,-0.47101783752441406,0.022173374891281128
1696958669852413200,8.9154130859375,0.35846424102783203,-0.5812958478927612,1.068670630455017
1696958669862426600,8.925426513671875,2.020684242248535,-0.542815089225769,0.5667649507522583
1696958669872440000,8.935440185546875,-2.910623550415039,-0.6079287528991699,0.44724607467651367
1696958669882453500,8.94545361328125,2.4727725982666016,0.31917768716812134,1.4470653533935547
1696958669892467000,8.955467041015625,2.2908153533935547,-1.1810052394866943,0.7298629283905029
1696958669902480400,8.96548046875,-3.1626839637756348,-0.45952415466308594,0.6865031719207764
1696958669912493800,8.975493896484375,3.9562606811523438,0.04746139049530029,1.5973080396652222
1696958669922507300,8.98550732421875,-0.7933340072631836,-0.04123544692993164,1.5608513355255127
1696958669932520700,8.995520751953125,0.03513908386230469,-0.23579978942871094,1.584908366203308
1696958669942534000,9.005533935546875,3.2462806701660156,-1.3758409023284912,0.5846700668334961
1696958669952547300,9.01554736328125,-2.0801849365234375,-0.8785368204116821,1.8211758136749268
1696958669962560800,9.025560791015625,1.245452880859375,-0.19270336627960205,1.2849891185760498
1696958669972574200,9.03557421875,0.5976238250732422,0.9937779903411865,1.2722868919372559
1696958669982587600,9.045587646484375,0.1700763702392578,0.19315707683563232,1.3100285530090332
1696958669992600800,9.055600830078125,1.6317529678344727,-0.42798709869384766,0.054251283407211304
1696958670002614300,9.0656142578125,-3.1229095458984375,-0.8473892211914062,-0.2613010108470917
1696958670012627700,9.075627685546875,0.32050514221191406,-0.10692644119262695,0.8852795362472534
1696958670022641200,9.08564111328125,0.4962739944458008,-0.16476643085479736,0.5802291631698608
1696958670032654300,9.095654296875,-1.478621482849121,-0.000019788742065429688,0.02437494695186615
1696958670042667800,9.105667724609376,-1.3893976211547852,-0.14056003093719482,-0.19691000878810883
1696958670052681200,9.11568115234375,1.2185678482055664,0.25020623207092285,0.08944037556648254
1696958670062694700,9.125694580078125,-2.359034538269043,-0.8191272020339966,-0.06477533280849457
1696958670072708000,9.1357080078125,0.055027008056640625,0.008076906204223633,0.6812021136283875
1696958670082721300,9.14572119140625,1.3790884017944336,0.41280603408813477,0.7667015194892883
1696958670092734700,9.155734619140626,-1.5731658935546875,-0.047495365142822266,-0.3137354850769043
1696958670102748200,9.165748046875,0.48574256896972656,-1.043420672416687,-0.3171263337135315
1696958670112761600,9.17576171875,-2.1007041931152344,-0.5421842336654663,-0.10339555889368057
1696958670122775000,9.185775146484374,0.05478382110595703,-0.35831236839294434,-0.2057466208934784
1696958670132788200,9.195788330078125,1.3310346603393555,0.665276288986206,0.26456576585769653
1696958670142801700,9.2058017578125,0.8308658599853516,-0.6443612575531006,-0.35068339109420776
1696958670152815000,9.215815185546875,-1.0777368545532227,-0.32701730728149414,-0.7764967679977417
1696958670162828500,9.22582861328125,-0.41068458557128906,-0.5519955158233643,-0.3171026110649109
1696958670172841700,9.235841796875,-1.2404556274414062,0.40221142768859863,-0.4868824779987335
1696958670182855200,9.245855224609375,-0.3535003662109375,-0.7822256088256836,-0.723381757736206
1696958670192868600,9.25586865234375,1.6554450988769531,-0.660002589225769,-0.9038539528846741
1696958670202882000,9.265882080078125,-2.3862757682800293,0.10523557662963867,-0.4456062912940979
1696958670212895500,9.2758955078125,0.48241424560546875,-0.09698700904846191,-0.7486834526062012
1696958670222908700,9.28590869140625,-0.3446226119995117,-0.5259377956390381,-0.42151573300361633
1696958670232922000,9.295922119140625,-1.1604223251342773,-0.5573461055755615,0.09089000523090363
1696958670242935600,9.305935546875,0.20990848541259766,0.5373740196228027,-0.057791486382484436
1696958670252949000,9.315948974609375,-0.3826265335083008,-0.5345838069915771,0.5119926929473877
1696958670262962400,9.32596240234375,0.6129388809204102,-0.5578008890151978,0.40237322449684143
1696958670272975600,9.3359755859375,-0.8021917343139648,-0.4076756238937378,-0.10387194156646729
1696958670282989000,9.345989013671876,0.8919143676757812,0.9147112369537354,0.8460119962692261
1696958670293002500,9.35600244140625,0.25989341735839844,-0.5642349720001221,0.6507159471511841
1696958670303016000,9.366015869140625,-2.263644218444824,-0.33274316787719727,-0.2645595669746399
1696958670313029000,9.376029052734374,0.5718173980712891,0.17920660972595215,1.2684358358383179
1696958670323042600,9.38604248046875,-0.37024688720703125,0.06576836109161377,0.23866379261016846
1696958670333056000,9.396055908203126,1.7766199111938477,0.24550998210906982,0.9847427010536194
1696958670343069400,9.4060693359375,0.85601806640625,-0.06839418411254883,0.418621689081192
1696958670353083000,9.416082763671875,-2.429105758666992,-0.8585585355758667,0.2769505977630615
1696958670363096000,9.426095947265624,3.0590009689331055,-0.20153164863586426,1.13584303855896
1696958670373109500,9.436109619140625,-2.868342876434326,-0.44773244857788086,0.7797645926475525
1696958670383123000,9.446123046875,-1.4516382217407227,-0.68342125415802,0.955802321434021
1696958670393136400,9.456136474609375,3.136044502258301,0.3030906915664673,0.8395660519599915
1696958670403149800,9.46614990234375,-0.45023441314697266,0.26517295837402344,-0.15748940408229828
1696958670413163000,9.4761630859375,-1.7246131896972656,-0.5423593521118164,-0.12411046028137207
1696958670423176400,9.486176513671875,1.0804710388183594,0.006325960159301758,0.3716086745262146
1696958670433190000,9.49618994140625,-1.1049184799194336,-0.22410428524017334,0.4110969305038452
1696958670443203300,9.506203369140625,-1.3456649780273438,0.047954440116882324,0.6648484468460083
1696958670453216800,9.516216796875,2.0847625732421875,-0.1287919282913208,0.1819368451833725
1696958670463230000,9.52622998046875,0.5080709457397461,0.16655993461608887,0.6688193082809448
1696958670473243400,9.536243408203125,0.12499237060546875,-0.6789261102676392,0.18274755775928497
1696958670483256800,9.5462568359375,-0.7922554016113281,0.1209254264831543,0.6711280345916748
1696958670493270300,9.556270263671875,1.7860307693481445,0.24180305004119873,1.1293108463287354
1696958670503283500,9.566283447265626,-0.7122879028320312,-0.5920926332473755,0.4258670210838318
1696958670513297000,9.576296875,-1.082763671875,0.10288453102111816,-0.3959066569805145
1696958670523310300,9.586310302734375,1.2093820571899414,-0.01391589641571045,0.3888123631477356
1696958670533323800,9.59632373046875,0.8536186218261719,-0.1501864194869995,-0.24774658679962158
1696958670543337200,9.606337158203125,-3.2576913833618164,-0.35124778747558594,-1.196922779083252
1696958670553350400,9.616350341796876,-0.8168745040893555,-0.1255340576171875,-0.5651655197143555
1696958670563363800,9.62636376953125,-0.17835330963134766,-0.006285309791564941,0.1799745261669159
1696958670573377300,9.636377197265626,-2.657672882080078,-0.028432607650756836,-0.8075035810470581
1696958670583390700,9.646390625,-0.44788265228271484,0.3796689510345459,-1.1580278873443604
1696958670593404200,9.656404052734375,0.49555206298828125,0.33709847927093506,0.23478759825229645
1696958670603417300,9.666417236328124,-2.1292710304260254,0.04648613929748535,-0.67698073387146
1696958670613430800,9.6764306640625,-1.225724220275879,-0.34605348110198975,-0.6497765183448792
1696958670623444200,9.6864443359375,-0.30477333068847656,0.014638185501098633,0.589431643486023
1696958670633457700,9.696457763671875,1.4017086029052734,0.8414509296417236,0.27352556586265564
1696958670643470800,9.706470947265625,-0.7809352874755859,-0.12362170219421387,0.37922653555870056
1696958670653484300,9.716484375,-0.1727457046508789,0.7355121374130249,0.2526647448539734
1696958670663497700,9.726497802734375,-0.7461023330688477,0.015816092491149902,0.29467904567718506
1696958670673511200,9.73651123046875,-0.9218034744262695,-0.3969433307647705,0.004844874143600464
1696958670683524600,9.746524658203125,2.2052526473999023,-0.737190842628479,0.8911657333374023
1696958670693537800,9.756537841796876,0.7371358871459961,0.24758529663085938,1.0465943813323975
1696958670703551200,9.76655126953125,0.041332244873046875,-0.17493915557861328,0.4851364195346832
1696958670713564700,9.776564697265625,0.7288579940795898,-0.1840050220489502,0.30592384934425354
1696958670723578000,9.786578125,-1.1613044738769531,-0.8163912296295166,1.5017932653427124
1696958670733591600,9.796591552734375,2.4341869354248047,-0.767918586730957,0.9406269788742065
1696958670743604700,9.806604736328126,-1.2900629043579102,-0.2489999532699585,0.18364500999450684
1696958670753618200,9.8166181640625,0.6380805969238281,0.014954447746276855,1.0479661226272583
1696958670763631600,9.826631591796875,1.8259353637695312,-0.42628705501556396,0.8437148332595825
1696958670773645000,9.83664501953125,0.1147165298461914,-0.7355891466140747,0.018793493509292603
1696958670783658200,9.846658203125,-2.1414475440979004,-0.7976511716842651,0.5258892774581909
1696958670793671700,9.856671630859376,0.935917854309082,-0.6626392602920532,1.4526212215423584
1696958670803685000,9.86668505859375,2.357844352722168,-0.41849827766418457,1.320306420326233
1696958670813698600,9.876698486328126,-2.130744457244873,-0.17751610279083252,0.24378302693367004
1696958670823712000,9.8867119140625,0.7557086944580078,-0.7734956741333008,1.1210209131240845
1696958670833725200,9.89672509765625,1.4566774368286133,-0.6165928840637207,1.6094813346862793
1696958670843738600,9.906738525390624,0.8460016250610352,0.11195600032806396,1.0663783550262451
1696958670853752000,9.916751953125,0.3469810485839844,-1.204012155532837,1.2564061880111694
1696958670863765500,9.926765625,1.2489080429077148,-0.4727311134338379,1.2829387187957764
1696958670873779000,9.936779052734375,1.3990440368652344,-0.27070701122283936,0.9312504529953003
1696958670883792100,9.946792236328125,-0.1003561019897461,0.36614716053009033,1.5984036922454834
1696958670893805600,9.9568056640625,2.221982002258301,-0.007340431213378906,1.286840796470642
1696958670903819000,9.966819091796875,1.6144218444824219,0.0655897855758667,1.2332024574279785
1696958670913832400,9.97683251953125,-3.154484748840332,-0.968264102935791,0.2802540063858032
1696958670923845600,9.986845703125,1.177384376525879,-0.821628987789154,0.6718981266021729
1696958670933859000,9.996859130859375,2.001469612121582,-0.10855698585510254,0.3901230990886688
1696958670943872500,10.00687255859375,-2.816077709197998,0.07782769203186035,0.46500518918037415
1696958670953886000,10.016885986328125,2.040843963623047,-0.008332133293151855,0.07420223951339722
1696958670963899400,10.0268994140625,0.6642751693725586,-0.949203372001648,-0.43050092458724976
1696958670973912600,10.03691259765625,-3.194211483001709,-0.5946574211120605,0.8981121778488159
1696958670983926000,10.046926025390626,3.7329092025756836,-0.3891650438308716,-0.04558086395263672
1696958670993939500,10.056939453125,-3.989203929901123,0.6087182760238647,0.37400975823402405
1696958671003953000,10.066952880859375,5.013465881347656,0.28858399391174316,1.5898629426956177
1696958671013966300,10.07696630859375,-1.1104545593261719,-0.8045899271965027,0.048542141914367676
1696958671023979500,10.0869794921875,-4.162662506103516,-0.9547535181045532,0.040809839963912964
1696958671033993000,10.096992919921876,4.239194869995117,-0.08738970756530762,-0.8658803701400757
1696958671044006400,10.10700634765625,-3.3071165084838867,0.7837547063827515,-1.405515193939209
1696958671054019800,10.117019775390625,-1.3835210800170898,-0.9527006149291992,-0.7544306516647339
1696958671064033000,10.127032958984374,2.629514694213867,-0.3446383476257324,1.0732190608978271
1696958671074046500,10.13704638671875,-3.245412826538086,0.08806562423706055,-0.1725044846534729
1696958671084060000,10.147059814453126,2.1669626235961914,0.07416832447052002,-0.9064958691596985
1696958671094073300,10.1570732421875,-2.722019672393799,-1.0578396320343018,-0.15836076438426971
1696958671104086800,10.167086669921876,1.1835317611694336,-0.9089944362640381,-0.16528886556625366
1696958671114100000,10.177099853515625,-0.8690118789672852,-0.05217564105987549,-0.43121522665023804
1696958671124113400,10.187113525390625,0.4802579879760742,-0.09442508220672607,0.08971081674098969
1696958671134126800,10.197126953125,2.7156219482421875,-0.8118056058883667,0.838473916053772
1696958671144140300,10.207140380859375,1.8965520858764648,-0.47726166248321533,0.323494553565979
1696958671154153700,10.21715380859375,-2.8822007179260254,-1.195636510848999,-0.8816625475883484
1696958671164167200,10.227167236328125,-1.2457466125488281,-0.30457842350006104,0.10754425823688507
1696958671174180600,10.2371806640625,4.009612083435059,-0.6012803316116333,1.153136134147644
1696958671184194000,10.247194091796874,-1.658003807067871,-0.6417827606201172,-1.038460612297058
1696958671194207500,10.25720751953125,-0.5647821426391602,1.1531226634979248,0.11501149833202362
1696958671204221000,10.267220947265624,2.5483932495117188,-0.6856198310852051,0.5193442106246948
1696958671214234400,10.277234375,-3.1733264923095703,-0.8536698222160339,0.49269065260887146
1696958671224247800,10.287247802734376,0.6861000061035156,-1.4029723405838013,-1.2033449411392212
1696958671234261200,10.29726123046875,-3.2523508071899414,0.5363478660583496,1.0310313701629639
1696958671244274700,10.307274658203125,5.256685256958008,1.2032960653305054,1.3980478048324585
1696958671254288100,10.3172880859375,-1.282425880432129,-1.1893943548202515,0.16313901543617249
1696958671264301600,10.327301513671875,-4.060999393463135,0.6352406740188599,0.3785003125667572
1696958671274315000,10.33731494140625,5.224647521972656,-1.3945798873901367,0.901191234588623
1696958671284328400,10.347328369140625,-3.2023911476135254,-0.8194947838783264,-0.24755367636680603
1696958671294342000,10.357341796875,1.8224105834960938,-1.5012787580490112,-0.1278274655342102
1696958671304355300,10.367355224609375,1.1645526885986328,-0.5504345893859863,1.0902550220489502
1696958671314368800,10.37736865234375,0.8075904846191406,-0.8678517937660217,-0.15881812572479248
1696958671324382200,10.38738232421875,-0.5647764205932617,-0.7670211791992188,0.22606877982616425
1696958671334395600,10.397395751953125,0.43513965606689453,0.6997419595718384,0.9624351263046265
1696958671344409000,10.4074091796875,4.334595680236816,-1.730018973350525,-0.248724102973938
1696958671354422500,10.417422607421875,-4.525584697723389,-0.7667522430419922,-0.8238080739974976
1696958671364436000,10.42743603515625,1.3875703811645508,-1.2356644868850708,-0.05043122172355652
1696958671374449400,10.437449462890624,-1.0610713958740234,0.8648817539215088,-0.3208743631839752
1696958671384462800,10.447462890625,2.396970748901367,-0.6184720993041992,0.0954887717962265
1696958671394476300,10.457476318359374,0.5337839126586914,-0.8044217824935913,-1.3015141487121582
1696958671404489700,10.46748974609375,-0.9914627075195312,-0.22533106803894043,1.2780202627182007
1696958671414503200,10.477503173828126,5.133935928344727,-0.420016884803772,0.5052820444107056
1696958671424516600,10.4875166015625,-4.4871110916137695,-0.06295788288116455,0.7541263103485107
1696958671434529800,10.49752978515625,3.227254867553711,-0.19112622737884521,0.6438370943069458
1696958671444543200,10.507543212890624,-0.7207536697387695,-1.2063734531402588,0.9917252063751221
1696958671454556700,10.517556640625,-1.0106840133666992,-0.5933322906494141,-0.21591995656490326
1696958671464570000,10.527570068359376,-0.06963634490966797,0.36335229873657227,-0.32163193821907043
1696958671474583300,10.537583251953125,-0.8050127029418945,0.07366883754730225,-0.8665214776992798
1696958671484596700,10.5475966796875,1.946481704711914,-1.1228630542755127,-0.6512389183044434
1696958671494610200,10.557610107421874,-3.194337844848633,0.380979061126709,-1.2577472925186157
1696958671504623600,10.56762353515625,0.05454826354980469,-0.5115964412689209,-0.6657986044883728
1696958671514637000,10.577636962890624,-1.0047683715820312,-0.12403476238250732,0.05759555101394653
1696958671524650200,10.587650146484375,0.5040102005004883,-1.2374110221862793,-1.9767847061157227
1696958671534663700,10.59766357421875,-0.035533905029296875,-1.4771603345870972,-0.8820809125900269
1696958671544677000,10.607677001953125,1.0364656448364258,-1.359736680984497,-0.5025177597999573
1696958671554690600,10.617690673828125,0.10344314575195312,0.3699328899383545,-1.6969470977783203
1696958671564704000,10.6277041015625,-1.8686113357543945,-0.7629783153533936,-2.0714547634124756
1696958671574717200,10.63771728515625,-1.0885658264160156,-0.007995963096618652,-1.0760984420776367
1696958671584730600,10.647730712890626,-0.10400390625,0.20852220058441162,-0.8891938924789429
1696958671594744000,10.657744140625,-4.106674671173096,-0.8844029903411865,-2.39758563041687
1696958671604757500,10.667757568359375,-1.9593329429626465,-1.3282108306884766,-1.626064658164978
1696958671614770700,10.677770751953124,4.361053466796875,0.2936673164367676,-1.0866588354110718
1696958671624784100,10.6877841796875,-3.0017032623291016,0.741112470626831,-0.18768441677093506
1696958671634797600,10.697797607421874,3.725353240966797,-1.0630038976669312,0.0821581482887268
1696958671644811000,10.70781103515625,0.4080820083618164,0.2781614065170288,0.5926406979560852
1696958671654824400,10.717824462890626,-3.0656676292419434,1.3088269233703613,2.7406351566314697
1696958671664837600,10.727837646484375,5.201024055480957,-0.4750351905822754,2.1512560844421387
1696958671674851000,10.73785107421875,-0.382171630859375,-1.8840821981430054,0.8294629454612732
1696958671684864500,10.747864501953124,2.0522680282592773,-1.2008335590362549,1.7543282508850098
1696958671694878000,10.7578779296875,-0.7085428237915039,0.24506402015686035,1.2365186214447021
1696958671704891400,10.767891357421876,-0.3147239685058594,-0.5049784183502197,1.234055995941162
1696958671714904600,10.777904541015625,0.7625713348388672,0.3777751922607422,1.7149078845977783
1696958671724918000,10.78791796875,-1.073472023010254,1.7889306545257568,2.7288684844970703
1696958671734931500,10.797931396484374,-1.743454933166504,0.533737301826477,2.138869285583496
1696958671744945000,10.80794482421875,-0.14855098724365234,-2.026960849761963,-0.14322566986083984
1696958671754958000,10.8179580078125,-3.951047420501709,-1.2584668397903442,0.13378918170928955
1696958671764971500,10.827971435546875,-1.2643632888793945,-0.6628447771072388,0.9010494351387024
1696958671774985000,10.83798486328125,3.5461158752441406,-0.30357253551483154,0.2547515630722046
1696958671784998400,10.847998291015625,-2.539890766143799,0.797073245048523,1.9113202095031738
1696958671795011800,10.85801171875,1.8915348052978516,-0.23340535163879395,2.7504889965057373
1696958671805025000,10.86802490234375,-0.7362823486328125,0.45908379554748535,2.082040309906006
1696958671815038500,10.87803857421875,-0.7971200942993164,-1.0606105327606201,1.1513442993164062
1696958671825052000,10.888052001953126,-1.0483675003051758,-1.695011854171753,0.30922937393188477
1696958671835065300,10.8980654296875,-1.5476083755493164,-0.21075952053070068,1.0540889501571655
1696958671845078800,10.908078857421875,4.902565956115723,0.30734455585479736,0.4822511672973633
1696958671855092000,10.918092041015624,1.8228988647460938,-0.7658324241638184,0.5504588484764099
1696958671865105400,10.92810546875,-1.4886531829833984,0.08051562309265137,0.6097162365913391
1696958671875118800,10.938118896484376,1.554102897644043,-0.3244413137435913,1.2415070533752441
1696958671885132300,10.94813232421875,-1.6611175537109375,-0.39479148387908936,0.029858946800231934
1696958671895145500,10.9581455078125,-0.5338964462280273,-1.180095911026001,0.6329077482223511
1696958671905159000,10.968158935546874,0.3275728225708008,-0.24245190620422363,0.16249245405197144
1696958671915172400,10.97817236328125,3.609330177307129,-0.42337989807128906,0.33649128675460815
1696958671925185800,10.988185791015624,2.1100358963012695,0.1406184434890747,0.46943235397338867
1696958671935199200,10.99819921875,-0.9779043197631836,-0.8563809394836426,-0.11235207319259644
1696958671945212400,11.00821240234375,-0.5937042236328125,-0.5141136646270752,-0.09201383590698242
1696958671955225900,11.018225830078125,0.2111215591430664,-0.4452453851699829,0.5543469786643982
1696958671965239300,11.0282392578125,-1.8493256568908691,-1.6212737560272217,-0.5413514971733093
1696958671975252700,11.038252685546874,0.840545654296875,-0.678436279296875,-0.11614692211151123
1696958671985266200,11.04826611328125,1.6373176574707031,0.5413930416107178,0.026511013507843018
1696958671995279400,11.058279296875,0.061026573181152344,0.9904193878173828,-1.6362583637237549
1696958672005292800,11.068292724609375,-4.14932107925415,0.15211737155914307,-0.9077435731887817
1696958672015306200,11.07830615234375,2.0880374908447266,-1.3042867183685303,1.1101586818695068
1696958672025319700,11.088319580078124,-1.15179443359375,-1.3096102476119995,0.7970057725906372
1696958672035333000,11.0983330078125,-1.2112932205200195,-0.7909111976623535,1.4125208854675293
1696958672045346300,11.10834619140625,5.094062805175781,-0.8697577714920044,0.17086052894592285
1696958672055359700,11.11835986328125,-3.1182241439819336,-0.7277486324310303,0.8338479995727539
1696958672065373200,11.128373291015626,-0.3214569091796875,0.7545167207717896,-1.1266108751296997
1696958672075386600,11.13838671875,-0.641148567199707,-0.5337151288986206,-1.7694082260131836
1696958672085399800,11.14839990234375,-1.8294644355773926,-1.4338021278381348,0.994493842124939
1696958672095413200,11.158413330078124,4.27210807800293,-0.8091471195220947,1.8619358539581299
1696958672105426700,11.1684267578125,-1.9081902503967285,1.1137206554412842,0.5179141163825989
1696958672115440000,11.178440185546876,2.7393646240234375,0.7557718753814697,0.35383641719818115
1696958672125453600,11.18845361328125,2.0632076263427734,-1.004465103149414,0.40257781744003296
1696958672135466800,11.198466796875,-5.001532554626465,-1.6948367357254028,0.5933346748352051
1696958672145480200,11.208480224609374,0.7197675704956055,-0.6824214458465576,0.5034481287002563
1696958672155493600,11.21849365234375,0.7410440444946289,0.43433284759521484,-0.11114609241485596
1696958672165507000,11.228507080078124,-0.19798755645751953,0.31670844554901123,0.23969781398773193
1696958672175520500,11.2385205078125,0.011801719665527344,-0.9666442275047302,0.8784927725791931
1696958672185533700,11.24853369140625,1.5489540100097656,-0.8980141878128052,-0.8420354127883911
1696958672195547100,11.258547119140625,-2.268761157989502,-0.9235944747924805,-1.7084107398986816
1696958672205560600,11.268560546875,-3.2624282836914062,-0.8668264150619507,-0.28491175174713135
1696958672215574000,11.278573974609374,3.8270978927612305,-0.44366300106048584,0.2190520167350769
1696958672225587200,11.288587158203125,-0.08610725402832031,0.4530216455459595,0.1592298150062561
1696958672235600600,11.2986005859375,0.15256786346435547,-0.17390227317810059,-0.13026690483093262
1696958672245614000,11.308614013671875,-1.2385168075561523,-1.5995934009552002,-0.3646880090236664
1696958672255627500,11.31862744140625,-0.49001121520996094,-0.7341588735580444,-1.109950304031372
1696958672265641000,11.328640869140624,0.31498050689697266,-0.15333926677703857,-0.9553571343421936
1696958672275654100,11.338654052734375,-0.13938045501708984,-0.6367315053939819,-1.4305181503295898
1696958672285667600,11.34866748046875,0.2538442611694336,-0.36507415771484375,0.46439945697784424
1696958672295681000,11.358680908203125,1.9935684204101562,-0.3767375946044922,-0.33165985345840454
1696958672305694500,11.368694580078126,-3.7163476943969727,0.060991883277893066,-1.2368650436401367
1696958672315708000,11.3787080078125,-1.0541448593139648,-0.5321873426437378,-0.09879308938980103
1696958672325721000,11.38872119140625,2.935283660888672,0.35591304302215576,-0.08289343118667603
1696958672335734500,11.398734619140624,-0.30140209197998047,-1.0706713199615479,-0.7865437865257263
1696958672345748000,11.408748046875,-0.7823429107666016,-0.4214595556259155,-0.19496655464172363
1696958672355761400,11.418761474609376,0.8263368606567383,-0.44335782527923584,0.4485195279121399
1696958672365774600,11.428774658203125,0.07497406005859375,0.2044525146484375,-0.8566886186599731
1696958672375788000,11.4387880859375,-1.7449703216552734,-0.19151759147644043,-1.0679981708526611
1696958672385801500,11.448801513671874,0.7022638320922852,-1.6412370204925537,-0.4466666579246521
1696958672395815000,11.45881494140625,0.37183475494384766,-1.3787087202072144,-0.20868736505508423
1696958672405828400,11.468828369140626,-0.8511819839477539,-0.11863243579864502,-0.8434215188026428
1696958672415841500,11.478841552734375,-0.5377979278564453,-0.5872924327850342,-0.9490236639976501
1696958672425855000,11.48885498046875,0.6691627502441406,-0.7637749910354614,0.7629545331001282
1696958672435868400,11.498868408203125,0.46290111541748047,-0.36822426319122314,-1.0234590768814087
1696958672445881900,11.5088818359375,-2.5868124961853027,-0.3517117500305176,-2.299924373626709
1696958672455895300,11.518895263671874,0.3505229949951172,-0.3569200038909912,-0.5779432058334351
1696958672465908500,11.528908447265625,0.040839195251464844,-0.14871442317962646,0.7071424722671509
1696958672475922000,11.538921875,0.10309410095214844,0.3974018096923828,-0.3244526982307434
1696958672485935400,11.548935302734375,-0.11108875274658203,0.30550825595855713,-0.09588652849197388
1696958672495948800,11.55894873046875,1.500901222229004,-0.38775932788848877,0.035471200942993164
1696958672505962000,11.5689619140625,-2.793808937072754,-1.2739026546478271,-1.178016185760498
1696958672515975400,11.578975341796875,0.24818992614746094,-0.15803885459899902,0.4453505277633667
1696958672525988900,11.58898876953125,3.952545166015625,-0.7830303907394409,0.4102768301963806
1696958672536002300,11.599002197265625,-3.0481467247009277,-0.7856895923614502,0.5272758603096008
1696958672546015700,11.609015625,4.414211273193359,-0.5030989646911621,0.5948478579521179
1696958672556029000,11.61902880859375,0.20897197723388672,-0.07654643058776855,0.007977187633514404
1696958672566042400,11.62904248046875,-3.939304828643799,-0.23293423652648926,0.1430516242980957
1696958672576055800,11.639055908203124,2.598398208618164,-1.0845903158187866,-0.13738232851028442
1696958672586069200,11.6490693359375,-1.268172264099121,-1.0676603317260742,-0.26983320713043213
1696958672596082700,11.659082763671876,0.4895143508911133,-1.0598422288894653,0.9073487520217896
1696958672606096000,11.669095947265625,3.0789661407470703,0.25950145721435547,0.7303237915039062
1696958672616109300,11.679109375,-1.0372772216796875,-0.47703850269317627,-0.08292043209075928
1696958672626122800,11.689122802734374,-2.3860836029052734,-0.9750336408615112,0.8594512939453125
1696958672636136200,11.69913623046875,2.4610891342163086,-0.6429541110992432,0.6981905698776245
1696958672646149600,11.709149658203126,-0.7926435470581055,0.1591099500656128,0.9184459447860718
1696958672656162800,11.719162841796875,-0.4321136474609375,-1.875219464302063,0.4776400327682495
1696958672666176300,11.72917626953125,1.7489328384399414,-0.793343186378479,1.7245064973831177
1696958672676189700,11.739189697265624,2.4669198989868164,-0.35213208198547363,0.8347870111465454
1696958672686203100,11.749203125,-2.952664852142334,-0.6961948871612549,0.9093101024627686
1696958672696216300,11.75921630859375,2.081361770629883,-0.6523882150650024,0.6856898069381714
1696958672706229800,11.769229736328125,-0.8703403472900391,0.05301535129547119,1.2760438919067383
1696958672716243200,11.7792431640625,-0.849639892578125,-0.5027883052825928,0.39504361152648926
1696958672726256600,11.789256591796875,3.128908157348633,-0.8619705438613892,0.7518136501312256
1696958672736270000,11.79927001953125,-2.1918821334838867,-1.1017851829528809,0.24995267391204834
1696958672746283300,11.809283203125,-0.4706707000732422,-1.1001392602920532,0.732469916343689
1696958672756296700,11.819296630859375,2.403323173522949,0.28225255012512207,1.113692283630371
1696958672766310100,11.82931005859375,-1.0805206298828125,-0.1872861385345459,0.4842038154602051
1696958672776323600,11.839323486328125,-1.2166624069213867,-1.1808927059173584,0.556938648223877
1696958672786337000,11.8493369140625,3.211989402770996,-1.1466633081436157,0.7608609199523926
1696958672796350200,11.85935009765625,-3.7145137786865234,-0.09468245506286621,0.37585318088531494
1696958672806363600,11.86936376953125,3.1082868576049805,-0.276578426361084,0.39139771461486816
1696958672816377000,11.879377197265624,-0.5631933212280273,-0.2556113004684448,0.41239237785339355
1696958672826390500,11.889390625,-2.0143723487854004,-0.3689091205596924,1.0302256345748901
1696958672836403700,11.89940380859375,3.471466064453125,0.045435309410095215,0.3856208324432373
1696958672846417200,11.909417236328125,-1.162550926208496,-0.7492700815200806,-0.3083285689353943
1696958672856430600,11.9194306640625,-1.742724895477295,-1.9163659811019897,-0.34724366664886475
1696958672866444000,11.929444091796874,2.285782814025879,0.05920672416687012,0.9877208471298218
1696958672876457500,11.93945751953125,-2.492884635925293,0.5770654678344727,0.4280238151550293
1696958672886470700,11.949470703125,1.397007942199707,-0.5140541791915894,-0.38119590282440186
1696958672896484000,11.959484130859375,0.6015253067016602,0.21058392524719238,0.4240891933441162
1696958672906497500,11.96949755859375,-2.0423636436462402,-0.33199119567871094,-0.10391449928283691
1696958672916511000,11.979510986328124,-0.21241188049316406,-0.7595150470733643,-0.31921494007110596
1696958672926524400,11.9895244140625,0.8161172866821289,-0.5241564512252808,-0.6518619656562805
1696958672936537600,11.99953759765625,-3.04646635055542,-0.9227030277252197,-0.15252983570098877
1696958672946551000,12.009551025390625,2.471006393432617,0.8182194232940674,0.31974339485168457
1696958672956564500,12.019564453125,0.8741178512573242,-0.3818471431732178,-0.3479076027870178
1696958672966578000,12.029577880859375,-1.3164453506469727,-0.059900879859924316,-0.18860769271850586
1696958672976591000,12.039591064453125,2.366827964782715,-0.5814456939697266,-0.05971825122833252
1696958672986604500,12.0496044921875,-2.235586643218994,-0.8836010694503784,-0.47542232275009155
1696958672996618000,12.059617919921875,2.266603469848633,-0.039084672927856445,0.28798234462738037
1696958673006631400,12.06963134765625,0.6705484390258789,-0.04023456573486328,-0.07844758033752441
1696958673016644900,12.079644775390625,-1.209519386291504,-0.3044414520263672,0.016146183013916016
1696958673026658000,12.089657958984375,3.4719390869140625,0.2528945207595825,-0.42904454469680786
1696958673036671500,12.09967138671875,-3.3501949310302734,-0.36322128772735596,-0.010274648666381836
1696958673046685000,12.109684814453125,1.1591501235961914,-0.06914389133453369,-0.10057699680328369
1696958673056698400,12.119698486328126,0.33021068572998047,-0.7667807340621948,-0.18750876188278198
1696958673066711800,12.1297119140625,-0.6310138702392578,0.29757237434387207,-0.2712414860725403
1696958673076725200,12.139725341796876,2.692154884338379,-0.4962073564529419,-0.5114495754241943
1696958673086738700,12.14973876953125,-4.558159828186035,-0.31059837341308594,-0.39985424280166626
1696958673096752000,12.159752197265625,4.312713623046875,-0.12483108043670654,-0.2813488245010376
1696958673106765600,12.169765625,-1.550384521484375,-0.012205004692077637,-0.5331448912620544
1696958673116779000,12.179779052734375,-0.35643863677978516,0.10621929168701172,0.6344213485717773
1696958673126792200,12.189792236328126,2.335376739501953,-0.7165001630783081,-0.23458760976791382
1696958673136805600,12.1998056640625,-2.7831950187683105,0.35939621925354004,0.17176032066345215
1696958673146819800,12.20981982421875,2.604829788208008,-0.100180983543396,0.5301778316497803
1696958673156833500,12.21983349609375,-0.6318492889404297,0.2226850986480713,-0.31806856393814087
1696958673166847000,12.229846923828125,1.0661020278930664,0.1834402084350586,-0.6404088735580444
1696958673176860400,12.2398603515625,-2.065760612487793,-0.5630291700363159,0.14176905155181885
1696958673186873600,12.24987353515625,0.7970256805419922,0.23724961280822754,1.1554709672927856
1696958673196887000,12.259886962890626,1.5494861602783203,-0.3321887254714966,-0.19440048933029175
1696958673206900500,12.269900390625,-1.942314624786377,0.45055198669433594,0.3469057083129883
1696958673216914000,12.279913818359375,0.6572761535644531,-0.6819968223571777,0.6479578018188477
1696958673226927400,12.28992724609375,-1.0078039169311523,0.4159044027328491,-0.6472805738449097
1696958673236940500,12.2999404296875,0.26087379455566406,-0.24748361110687256,-0.7314373850822449
1696958673246954000,12.3099541015625,-2.6157679557800293,-0.227028489112854,-0.6136183142662048
1696958673256967400,12.319967529296875,1.2804241180419922,1.0169764757156372,0.08807313442230225
1696958673266980900,12.32998095703125,0.20808124542236328,0.26389622688293457,0.2780677080154419
1696958673276994300,12.339994384765625,-0.1321887969970703,-0.047847628593444824,0.567996621131897
1696958673287007500,12.350007568359375,-0.13632965087890625,-1.0374647378921509,-0.08512437343597412
1696958673297021000,12.36002099609375,-2.247992992401123,0.9706542491912842,-0.12394416332244873
1696958673307034400,12.370034423828125,3.8502607345581055,0.08520627021789551,0.1332460641860962
1696958673317047800,12.3800478515625,-3.493992805480957,-0.47022974491119385,0.07744765281677246
1696958673327061000,12.39006103515625,2.5205392837524414,0.42954909801483154,0.7952924966812134
1696958673337074400,12.400074462890625,1.988926887512207,-0.5163109302520752,0.35007667541503906
1696958673347088000,12.410087890625,-2.3078794479370117,1.1487294435501099,-0.05031633377075195
1696958673357101300,12.420101318359375,2.623933792114258,-0.14265024662017822,-0.7544588446617126
1696958673367114800,12.43011474609375,-4.253913879394531,0.0320357084274292,-0.30766505002975464
1696958673377128000,12.4401279296875,0.8401708602905273,-0.5673521757125854,-0.5280408263206482
1696958673387141400,12.450141357421876,-0.0220947265625,0.2608712911605835,-1.2189478874206543
1696958673397155300,12.4601552734375,-1.766003131866455,0.5354334115982056,-0.8208590149879456
1696958673407168500,12.47016845703125,2.07608699798584,1.0523556470870972,-0.03339517116546631
1696958673417182000,12.480181884765624,-1.0783452987670898,0.4656651020050049,-0.5778722167015076
1696958673427195400,12.4901953125,-0.8702688217163086,-0.29103517532348633,-0.5414385795593262
1696958673437208800,12.500208740234376,-1.236100196838379,-0.4358360767364502,-0.49985241889953613
1696958673447222300,12.51022216796875,1.5860176086425781,0.14289486408233643,-0.8656357526779175
1696958673457235500,12.5202353515625,-1.2415752410888672,0.7698256969451904,0.504841685295105
1696958673467249000,12.530248779296874,4.55726432800293,0.4436459541320801,-0.1321210265159607
1696958673477262300,12.540262451171875,-2.9088544845581055,-0.7308094501495361,0.05797553062438965
1696958673487275800,12.55027587890625,3.954493522644043,-0.0335690975189209,0.26584064960479736
1696958673497289200,12.560289306640625,-1.5509538650512695,0.6866747140884399,-0.585399866104126
1696958673507302400,12.570302490234376,-2.2220473289489746,-0.7157121896743774,-1.6110756397247314
1696958673517315800,12.58031591796875,-1.3749895095825195,-0.20647656917572021,0.44325053691864014
1696958673527329300,12.590329345703125,4.013913154602051,1.4973490238189697,0.7544634342193604
1696958673537342700,12.6003427734375,1.1172475814819336,0.6909772157669067,-0.2302100658416748
1696958673547356000,12.61035595703125,-2.9095520973205566,-0.6615968942642212,-0.8136047124862671
1696958673557369300,12.620369384765626,-1.3215112686157227,-1.3489549160003662,-1.399035930633545
1696958673567382800,12.6303828125,-3.36185884475708,1.1507346630096436,0.7427252531051636
1696958673577396200,12.640396240234375,6.088064193725586,0.22934067249298096,-0.4864090085029602
