time,seconds_elapsed,z,y,x
1696962063873760800,0.1457607421875,-0.009720250964164734,-0.004260932095348835,-0.026497671380639076
1696962063883634000,0.155634033203125,-0.009720250964164734,0.0010652330238372087,0.00226362026296556
1696962063893538600,0.16553857421875,-0.007589785382151604,-0.01384802907705307,-0.020106272771954536
1696962063903477500,0.1754775390625,-0.006524552125483751,-0.01491326279938221,-0.022236740216612816
1696962063913452500,0.18545263671875,-0.006524552125483751,-0.0063913981430232525,0.0011983871227130294
1696962063923463700,0.195463623046875,-0.009720250964164734,0.00852186419069767,-0.059519894421100616
1696962063933509600,0.205509521484375,-0.0011983871227130294,-0.004260932095348835,0.050199106335639954
1696962063943587600,0.215587646484375,-0.011850717477500439,-0.009587096981704235,-0.1042596846818924
1696962063953693700,0.225693603515625,-0.0011983871227130294,0.01810896210372448,0.066177599132061
1696962063963823400,0.2358232421875,-0.006524552125483751,-0.01171756349503994,-0.06271559745073318
1696962063973971000,0.245970947265625,-0.008655018173158169,0.01171756349503994,-0.023301972076296806
1696962063984130000,0.256130126953125,-0.0011983871227130294,0.01171756349503994,0.036351077258586884
1696962063994294500,0.26629443359375,-0.009720250964164734,0,-0.09147688746452332
1696962064004439000,0.27643896484375,0.001997311832383275,-0.0053261648863554,0.067242830991745
1696962064014452500,0.286452392578125,-0.004394086077809334,0.01384802907705307,-0.0712374597787857
1696962064024465700,0.296465576171875,-0.0033288532868027687,-0.004260932095348835,0.022503048181533813
1696962064034479000,0.30647900390625,0.006258244160562754,-0.02343512699007988,-0.010519175790250301
1696962064044492500,0.316492431640625,-0.004394086077809334,0,-0.009453942999243736
1696962064054506000,0.326506103515625,0.005193010903894901,-0.02556559257209301,-0.010519175790250301
1696962064064519200,0.336519287109375,0.005193010903894901,-0.007456631399691105,0.029959678649902344
1696962064074532600,0.34653271484375,0.0009320789249613881,-0.03089175745844841,-0.035019535571336746
1696962064084546000,0.356546142578125,0.007323476951569319,-0.01810896210372448,0.016111649572849274
1696962064094559500,0.3665595703125,-0.0001331541279796511,0.02450035884976387,0.027829213067889214
1696962064104573000,0.376572998046875,0.0030625448562204838,-0.03834838792681694,-0.030758604407310486
1696962064114586000,0.386586181640625,0.0009320789249613881,-0.004260932095348835,0.043807707726955414
1696962064124599600,0.396599609375,-0.00226362026296556,0.02876129187643528,-0.010519175790250301
1696962064134613000,0.406613037109375,0.005193010903894901,-0.02343512699007988,0.007589785382151604
1696962064144626400,0.41662646484375,-0.006524552125483751,0,0.029959678649902344
1696962064154640000,0.426639892578125,-0.007589785382151604,0.0426093190908432,-0.03608476743102074
1696962064164653000,0.436653076171875,0.005193010903894901,-0.0021304660476744175,0.07363422960042953
1696962064174666500,0.44666650390625,-0.010785484686493874,0.00852186419069767,-0.07336792349815369
1696962064184680000,0.456679931640625,-0.0011983871227130294,0.02343512699007988,0.057655736804008484
1696962064194693400,0.466693359375,-0.004394086077809334,0.02982652559876442,-0.043541401624679565
1696962064204706600,0.47670654296875,-0.00226362026296556,0.009587096981704235,0.00226362026296556
1696962064214720000,0.486719970703125,-0.0001331541279796511,0.009587096981704235,-0.004127778112888336
1696962064224733400,0.4967333984375,-0.004394086077809334,0.02556559257209301,-0.03288906812667847
1696962064234747000,0.506746826171875,0.004127778112888336,0.00852186419069767,0.0033288532868027687
1696962064244760300,0.51676025390625,0.005193010903894901,-0.01491326279938221,-0.047802332788705826
1696962064254773500,0.5267734375,0.0009320789249613881,0.0031956990715116262,0.007589785382151604
1696962064264787000,0.536786865234375,0.008388710208237171,-0.0063913981430232525,-0.043541401624679565
1696962064274800400,0.54680029296875,0.004127778112888336,-0.0106523297727108,0.0011983871227130294
1696962064284813800,0.556813720703125,0.006258244160562754,-0.02236989326775074,-0.040345702320337296
1696962064294827300,0.5668271484375,0.008388710208237171,0.004260932095348835,0.005459319334477186
1696962064304840400,0.57684033203125,0.001997311832383275,0.0053261648863554,-0.042476166039705276
1696962064314854000,0.58685400390625,0.011584409512579441,-0.03515268862247467,0.006524552125483751
1696962064324867300,0.596867431640625,0.0009320789249613881,0.03515268862247467,-0.028628136962652206
1696962064334880800,0.606880859375,0.005193010903894901,-0.01810896210372448,-0.022236740216612816
1696962064344894000,0.61689404296875,0.009453942999243736,0.004260932095348835,0.012915950268507004
1696962064354907400,0.626907470703125,-0.0001331541279796511,0.01491326279938221,-0.03928046673536301
1696962064364920800,0.6369208984375,0.009453942999243736,-0.0319569893181324,0.013981183059513569
1696962064374934300,0.646934326171875,0.009453942999243736,0.0106523297727108,0.0011983871227130294
1696962064384947700,0.65694775390625,0.001997311832383275,-0.0159784946590662,-0.030758604407310486
1696962064394961000,0.6669609375,0.016910573467612267,-0.03728315606713295,0.051264338195323944
1696962064404974300,0.676974365234375,0.004127778112888336,-0.01917419396340847,-0.037150003015995026
1696962064414987800,0.68698779296875,0.011584409512579441,-0.02982652559876442,0.031024912372231483
1696962064425001200,0.697001220703125,0.013714875094592571,-0.04793548583984375,0.022503048181533813
1696962064435014700,0.7070146484375,0.004127778112888336,-0.0021304660476744175,-0.026497671380639076
1696962064445028400,0.7170283203125,0.012649642303586006,-0.03089175745844841,0.07576470077037811
1696962064455042000,0.7270419921875,0.004127778112888336,-0.007456631399691105,-0.042476166039705276
1696962064465056000,0.737055908203125,0.001997311832383275,0.01171756349503994,0.09280842542648315
1696962064475069400,0.7470693359375,0.005193010903894901,-0.02343512699007988,-0.038215234875679016
1696962064485083000,0.757082763671875,-0.004394086077809334,0.03941362351179123,0.054460037499666214
1696962064495096000,0.767095947265625,-0.0011983871227130294,0.02663082629442215,0.027829213067889214
1696962064505109500,0.777109619140625,0.0009320789249613881,0.0021304660476744175,0.0001331541279796511
1696962064515123000,0.787123046875,-0.0033288532868027687,0.0319569893181324,0.044872939586639404
1696962064525136400,0.797136474609375,0.004127778112888336,0.007456631399691105,0.0001331541279796511
1696962064535149800,0.80714990234375,0.0009320789249613881,0.0031956990715116262,0.025698747485876083
1696962064545163000,0.8171630859375,0.001997311832383275,-0.009587096981704235,-0.0030625448562204838
1696962064555176400,0.827176513671875,0.005193010903894901,0.01810896210372448,0.016111649572849274
1696962064565190000,0.83718994140625,0.0030625448562204838,-0.012782796286046505,-0.001997311832383275
1696962064575203300,0.847203369140625,0.008388710208237171,-0.03089175745844841,-0.0030625448562204838
1696962064585216500,0.857216552734375,0.006258244160562754,0.0031956990715116262,-0.0030625448562204838
1696962064595230000,0.86722998046875,0.006258244160562754,-0.0106523297727108,-0.009453942999243736
1696962064605243400,0.877243408203125,0.007323476951569319,-0.0053261648863554,-0.005193010903894901
1696962064615256800,0.8872568359375,0.001997311832383275,0.00852186419069767,-0.011584409512579441
1696962064625270300,0.897270263671875,0.008388710208237171,-0.0053261648863554,-0.005193010903894901
1696962064635283500,0.907283447265625,0.007323476951569319,0.0021304660476744175,-0.009453942999243736
1696962064645297000,0.917296875,0.0009320789249613881,0.0031956990715116262,-0.015845341607928276
1696962064655310300,0.927310302734375,0.006258244160562754,0.0106523297727108,-0.014780107885599136
1696962064665323800,0.93732373046875,0.004127778112888336,0.007456631399691105,0.010785484686493874
1696962064675337200,0.947337158203125,0.009453942999243736,-0.03621792420744896,-0.037150003015995026
1696962064685350400,0.957350341796875,0.009453942999243736,0.012782796286046505,0.040612008422613144
1696962064695363800,0.96736376953125,0.004127778112888336,-0.02982652559876442,-0.048867564648389816
1696962064705377300,0.977377197265625,0.013714875094592571,-0.02876129187643528,0.028894444927573204
1696962064715390700,0.987390625,0.0030625448562204838,-0.007456631399691105,-0.005193010903894901
1696962064725404000,0.99740380859375,0.010519175790250301,-0.04473978653550148,-0.028628136962652206
1696962064735417300,1.007417236328125,0.012649642303586006,-0.02236989326775074,0.06298190355300903
1696962064745430800,1.0174306640625,-0.0011983871227130294,-0.009587096981704235,-0.06484606117010117
1696962064755444200,1.0274443359375,0.012649642303586006,-0.009587096981704235,0.067242830991745
1696962064765457700,1.037457763671875,0.007323476951569319,-0.02876129187643528,-0.027562905102968216
1696962064775470800,1.047470947265625,-0.0033288532868027687,0.02556559257209301,0.022503048181533813
1696962064785484300,1.057484375,0.008388710208237171,-0.01704372838139534,0.029959678649902344
1696962064795497700,1.067497802734375,-0.0001331541279796511,-0.01384802907705307,0.005459319334477186
1696962064805511200,1.07751123046875,-0.00226362026296556,-0.004260932095348835,0.019307348877191544
1696962064815524600,1.087524658203125,0.001997311832383275,-0.01171756349503994,0.029959678649902344
1696962064825538000,1.0975380859375,-0.0033288532868027687,-0.02343512699007988,0.025698747485876083
1696962064835551500,1.107551513671875,0.001997311832383275,-0.04687025398015976,0.005459319334477186
1696962064845565000,1.11756494140625,-0.006524552125483751,-0.0010652330238372087,0.07256899774074554
1696962064855578400,1.127578369140625,-0.008655018173158169,-0.03408745676279068,-0.058454662561416626
1696962064865592000,1.137592041015625,0.0009320789249613881,-0.0213046595454216,0.09067796170711517
1696962064875605500,1.14760546875,-0.010785484686493874,-0.02876129187643528,-0.041410934180021286
1696962064885619000,1.157618896484375,-0.005459319334477186,-0.0063913981430232525,0.022503048181533813
1696962064895632400,1.16763232421875,-0.00226362026296556,-0.02663082629442215,0.03209014609456062
1696962064905645800,1.177645751953125,-0.009720250964164734,-0.03302222490310669,-0.07336792349815369
1696962064915659300,1.1876591796875,-0.005459319334477186,0.0010652330238372087,0.07150376588106155
1696962064925673000,1.1976728515625,-0.011850717477500439,-0.007456631399691105,-0.06910699605941772
1696962064935686400,1.207686279296875,-0.006524552125483751,-0.0063913981430232525,0.011850717477500439
1696962064945699800,1.217699951171875,-0.010785484686493874,0.004260932095348835,0.006524552125483751
1696962064955713300,1.22771337890625,-0.010785484686493874,-0.01171756349503994,-0.05632419511675835
1696962064965726700,1.237726806640625,-0.007589785382151604,0.004260932095348835,0.022503048181533813
1696962064975740400,1.247740478515625,-0.012915950268507004,-0.0106523297727108,-0.044606633484363556
1696962064985753900,1.25775390625,-0.010785484686493874,0.0031956990715116262,-0.011584409512579441
1696962064995767300,1.267767333984375,-0.004394086077809334,-0.02769605815410614,0.0011983871227130294
1696962065005780700,1.27778076171875,-0.016111649572849274,0.007456631399691105,-0.059519894421100616
1696962065015794200,1.287794189453125,-0.005459319334477186,-0.012782796286046505,0.031024912372231483
1696962065025808000,1.297807861328125,-0.012915950268507004,-0.012782796286046505,-0.054193731397390366
1696962065035821300,1.3078212890625,-0.008655018173158169,-0.012782796286046505,0.007589785382151604
1696962065045834800,1.317834716796875,-0.009720250964164734,-0.01810896210372448,-0.022236740216612816
1696962065055848200,1.32784814453125,-0.012915950268507004,-0.01704372838139534,0.012915950268507004
1696962065065861600,1.337861572265625,-0.008655018173158169,-0.02769605815410614,-0.03288906812667847
1696962065075875300,1.347875244140625,-0.010785484686493874,-0.004260932095348835,0.051264338195323944
1696962065085888800,1.357888671875,-0.009720250964164734,-0.05539211630821228,-0.03928046673536301
1696962065095902200,1.367902099609375,-0.008655018173158169,-0.01171756349503994,0.04913387447595596
1696962065105915600,1.37791552734375,-0.017176883295178413,-0.004260932095348835,-0.005193010903894901
1696962065115929000,1.38792919921875,-0.016111649572849274,0.004260932095348835,0.018242115154862404
1696962065125942800,1.39794287109375,-0.012915950268507004,-0.0053261648863554,0.047003407031297684
1696962065135956200,1.407956298828125,-0.020372580736875534,-0.02556559257209301,-0.009453942999243736
1696962065145969700,1.4179697265625,-0.017176883295178413,0.012782796286046505,0.043807707726955414
1696962065155983000,1.427983154296875,-0.021437814459204674,0.0021304660476744175,0.020372580736875534
1696962065165996500,1.43799658203125,-0.020372580736875534,-0.02343512699007988,0.00226362026296556
1696962065176010000,1.448010009765625,-0.017176883295178413,-0.0053261648863554,0.05232957378029823
1696962065186023400,1.4580234375,-0.027829213067889214,0.0021304660476744175,-0.028628136962652206
1696962065196036900,1.468036865234375,-0.017176883295178413,-0.01491326279938221,0.06298190355300903
1696962065206050300,1.47805029296875,-0.023568280041217804,-0.0063913981430232525,-0.026497671380639076
1696962065216063700,1.488063720703125,-0.024633513763546944,0.02556559257209301,0.017176883295178413
1696962065226077200,1.4980771484375,-0.020372580736875534,-0.0063913981430232525,0.024633513763546944
1696962065236090600,1.508090576171875,-0.026763979345560074,0.01491326279938221,-0.047802332788705826
1696962065246104000,1.51810400390625,-0.021437814459204674,0.02982652559876442,0.053394805639982224
1696962065256117500,1.528117431640625,-0.025698747485876083,0.0053261648863554,-0.03928046673536301
1696962065266131000,1.538130859375,-0.028894444927573204,0.02023942768573761,0.0001331541279796511
1696962065276144400,1.548144287109375,-0.018242115154862404,0.02663082629442215,0.015046416781842709
1696962065286157800,1.55815771484375,-0.023568280041217804,-0.03515268862247467,-0.038215234875679016
1696962065296171300,1.568171142578125,-0.023568280041217804,0.0053261648863554,0.015046416781842709
1696962065306184700,1.578184814453125,-0.015046416781842709,-0.01171756349503994,-0.017975807189941406
1696962065316198100,1.5881982421875,-0.021437814459204674,-0.02450035884976387,-0.004127778112888336
1696962065326211600,1.598211669921875,-0.015046416781842709,-0.05539211630821228,-0.014780107885599136
1696962065336225000,1.60822509765625,-0.021437814459204674,0.02769605815410614,0.013981183059513569
1696962065346238500,1.618238525390625,-0.022503048181533813,-0.0106523297727108,-0.014780107885599136
1696962065356252000,1.628251953125,-0.019307348877191544,-0.0319569893181324,0.0033288532868027687
1696962065366265300,1.638265380859375,-0.027829213067889214,0.03408745676279068,0.025698747485876083
1696962065376278800,1.64827880859375,-0.021437814459204674,-0.0159784946590662,-0.040345702320337296
1696962065386292200,1.658292236328125,-0.021437814459204674,0,0.06404713541269302
1696962065396305700,1.6683056640625,-0.027829213067889214,-0.0021304660476744175,-0.035019535571336746
1696962065406319000,1.678319091796875,-0.016111649572849274,-0.01171756349503994,0.029959678649902344
1696962065416332500,1.68833251953125,-0.022503048181533813,-0.0053261648863554,0.03528584539890289
1696962065426346000,1.698345947265625,-0.025698747485876083,-0.01810896210372448,-0.033954303711652756
1696962065436359400,1.708359375,-0.018242115154862404,0,0.07576470077037811
1696962065446372900,1.718372802734375,-0.027829213067889214,0.0063913981430232525,-0.024367205798625946
1696962065456386300,1.72838623046875,-0.021437814459204674,-0.04154408723115921,0.041677240282297134
1696962065466399700,1.738399658203125,-0.027829213067889214,0.01917419396340847,0.018242115154862404
1696962065476413200,1.7484130859375,-0.027829213067889214,-0.007456631399691105,0.021437814459204674
1696962065486426600,1.758426513671875,-0.024633513763546944,-0.0021304660476744175,0.027829213067889214
1696962065496440000,1.768440185546875,-0.029959678649902344,-0.02663082629442215,0.012915950268507004
1696962065506453500,1.77845361328125,-0.026763979345560074,0.01917419396340847,0.008655018173158169
1696962065516467000,1.788467041015625,-0.027829213067889214,-0.009587096981704235,0.050199106335639954
1696962065526480400,1.79848046875,-0.033155377954244614,-0.00852186419069767,-0.060585130006074905
1696962065536493800,1.808493896484375,-0.022503048181533813,0.0031956990715116262,0.08641702681779861
1696962065546507300,1.81850732421875,-0.03209014609456062,-0.0031956990715116262,-0.07869409024715424
1696962065556520700,1.828520751953125,-0.023568280041217804,-0.0063913981430232525,0.051264338195323944
1696962065566534100,1.8385341796875,-0.026763979345560074,-0.01384802907705307,-0.015845341607928276
1696962065576547600,1.848547607421875,-0.028894444927573204,-0.0053261648863554,-0.047802332788705826
1696962065586561000,1.85856103515625,-0.023568280041217804,-0.0021304660476744175,0.06404713541269302
1696962065596574500,1.868574462890625,-0.03209014609456062,0.0053261648863554,-0.09573781490325928
1696962065606588000,1.878587890625,-0.022503048181533813,-0.0010652330238372087,0.06937330216169357
1696962065616601300,1.888601318359375,-0.019307348877191544,-0.0639139786362648,-0.059519894421100616
1696962065626614800,1.89861474609375,-0.031024912372231483,0.02236989326775074,-0.004127778112888336
1696962065636628200,1.908628173828125,-0.017176883295178413,-0.01491326279938221,0.040612008422613144
1696962065646641700,1.9186416015625,-0.027829213067889214,-0.03302222490310669,-0.0712374597787857
1696962065656655000,1.928655029296875,-0.026763979345560074,0.02982652559876442,0.053394805639982224
1696962065666668800,1.938668701171875,-0.019307348877191544,-0.004260932095348835,-0.010519175790250301
1696962065676682200,1.94868212890625,-0.029959678649902344,-0.01384802907705307,-0.023301972076296806
1696962065686695700,1.95869580078125,-0.028894444927573204,0.03621792420744896,0.029959678649902344
1696962065696709000,1.968709228515625,-0.025698747485876083,0.009587096981704235,-0.007323476951569319
1696962065706722600,1.97872265625,-0.029959678649902344,0.02556559257209301,0.00226362026296556
1696962065716736300,1.988736328125,-0.021437814459204674,-0.0010652330238372087,0.031024912372231483
1696962065726749700,1.998749755859375,-0.029959678649902344,0,-0.021171506494283676
1696962065736763100,2.00876318359375,-0.023568280041217804,0.01384802907705307,0.023568280041217804
1696962065746776600,2.018776611328125,-0.020372580736875534,-0.03728315606713295,0.022503048181533813
1696962065756790000,2.0287900390625,-0.027829213067889214,0.0063913981430232525,-0.010519175790250301
1696962065766803700,2.0388037109375,-0.019307348877191544,-0.03089175745844841,0.053394805639982224
1696962065776817200,2.048817138671875,-0.027829213067889214,-0.02876129187643528,-0.03288906812667847
1696962065786830600,2.05883056640625,-0.034220609813928604,0.05752258375287056,0.043807707726955414
1696962065796844000,2.068843994140625,-0.023568280041217804,-0.02023942768573761,0.033155377954244614
1696962065806857500,2.078857421875,-0.037416309118270874,-0.012782796286046505,-0.045671865344047546
1696962065816871200,2.08887109375,-0.03528584539890289,0.07243584841489792,0.0778951644897461
1696962065826884600,2.098884521484375,-0.03209014609456062,-0.007456631399691105,-0.024367205798625946
1696962065836898000,2.10889794921875,-0.03209014609456062,-0.01810896210372448,-0.006258244160562754
1696962065846911500,2.118911376953125,-0.03209014609456062,0.02343512699007988,0.040612008422613144
1696962065856925000,2.128925048828125,-0.031024912372231483,-0.01384802907705307,-0.037150003015995026
1696962065866938600,2.138938720703125,-0.027829213067889214,-0.02236989326775074,0.018242115154862404
1696962065876952000,2.1489521484375,-0.029959678649902344,0.004260932095348835,-0.017975807189941406
1696962065886965500,2.158965576171875,-0.031024912372231483,-0.0010652330238372087,-0.015845341607928276
1696962065896979000,2.16897900390625,-0.023568280041217804,-0.02450035884976387,-0.006258244160562754
1696962065906992400,2.178992431640625,-0.033155377954244614,0.0031956990715116262,-0.020106272771954536
1696962065917005800,2.189005859375,-0.027829213067889214,0.0010652330238372087,-0.019041040912270546
1696962065927019500,2.19901953125,-0.026763979345560074,-0.01171756349503994,0.004394086077809334
1696962065937033000,2.209032958984375,-0.034220609813928604,0.009587096981704235,-0.041410934180021286
1696962065947046400,2.21904638671875,-0.025698747485876083,-0.004260932095348835,-0.014780107885599136
1696962065957059800,2.229059814453125,-0.028894444927573204,-0.00852186419069767,0.013981183059513569
1696962065967073300,2.2390732421875,-0.027829213067889214,0.007456631399691105,-0.045671865344047546
1696962065977087000,2.2490869140625,-0.022503048181533813,-0.0106523297727108,0.027829213067889214
1696962065987100400,2.259100341796875,-0.031024912372231483,-0.00852186419069767,-0.026497671380639076
1696962065997113900,2.26911376953125,-0.025698747485876083,0.0106523297727108,0.005459319334477186
1696962066007127300,2.279127197265625,-0.028894444927573204,0.0010652330238372087,0.022503048181533813
1696962066017140700,2.289140625,-0.029959678649902344,-0.02236989326775074,-0.042476166039705276
1696962066027154400,2.299154541015625,-0.022503048181533813,0.007456631399691105,0.060851436108350754
1696962066037167900,2.30916796875,-0.026763979345560074,-0.02769605815410614,-0.040345702320337296
1696962066047181300,2.319181396484375,-0.021437814459204674,-0.03621792420744896,0.03848154470324516
1696962066057194800,2.32919482421875,-0.024633513763546944,-0.01917419396340847,-0.0030625448562204838
1696962066067208200,2.339208251953125,-0.025698747485876083,-0.0010652330238372087,0.034220609813928604
1696962066077222000,2.349221923828125,-0.020372580736875534,-0.06710968166589737,-0.011584409512579441
1696962066087235300,2.3592353515625,-0.033155377954244614,0.01704372838139534,0.033155377954244614
1696962066097248800,2.369248779296875,-0.027829213067889214,-0.0010652330238372087,0.006524552125483751
1696962066107262200,2.37926220703125,-0.025698747485876083,-0.03302222490310669,0.008655018173158169
1696962066117275600,2.389275634765625,-0.03528584539890289,0.0010652330238372087,0.017176883295178413
1696962066127289300,2.399289306640625,-0.026763979345560074,-0.0021304660476744175,0.0033288532868027687
1696962066137302800,2.409302734375,-0.033155377954244614,-0.00852186419069767,0.0011983871227130294
1696962066147316200,2.419316162109375,-0.033155377954244614,-0.0063913981430232525,0.012915950268507004
1696962066157329700,2.42932958984375,-0.028894444927573204,-0.007456631399691105,-0.022236740216612816
1696962066167343000,2.439343017578125,-0.029959678649902344,0.00852186419069767,0.037416309118270874
1696962066177356800,2.449356689453125,-0.027829213067889214,-0.03621792420744896,-0.05632419511675835
1696962066187370200,2.459370361328125,-0.028894444927573204,0.01810896210372448,0.044872939586639404
1696962066197383700,2.4693837890625,-0.028894444927573204,-0.0213046595454216,-0.045671865344047546
1696962066207397000,2.479397216796875,-0.026763979345560074,0.00852186419069767,-0.013714875094592571
1696962066217410600,2.48941064453125,-0.027829213067889214,-0.007456631399691105,0.025698747485876083
1696962066227424300,2.49942431640625,-0.025698747485876083,-0.01704372838139534,-0.06910699605941772
1696962066237437700,2.509437744140625,-0.021437814459204674,0.02450035884976387,0.037416309118270874
1696962066247451100,2.519451171875,-0.025698747485876083,-0.0106523297727108,-0.040345702320337296
1696962066257464600,2.529464599609375,-0.022503048181533813,-0.01704372838139534,-0.015845341607928276
1696962066267478000,2.53947802734375,-0.024633513763546944,0.03834838792681694,0.006524552125483751
1696962066277491500,2.549491455078125,-0.017176883295178413,-0.009587096981704235,-0.027562905102968216
1696962066287505200,2.559505126953125,-0.022503048181533813,-0.0010652330238372087,0.024633513763546944
1696962066297518600,2.5695185546875,-0.023568280041217804,0.007456631399691105,-0.050998032093048096
1696962066307532000,2.579531982421875,-0.010785484686493874,0.0053261648863554,0.040612008422613144
1696962066317545500,2.58954541015625,-0.021437814459204674,0.009587096981704235,-0.026497671380639076
1696962066327559000,2.599558837890625,-0.018242115154862404,-0.02450035884976387,0.019307348877191544
1696962066337572600,2.609572509765625,-0.015046416781842709,0.03408745676279068,-0.0030625448562204838
1696962066347586000,2.6195859375,-0.021437814459204674,0.02663082629442215,-0.012649642303586006
1696962066357599500,2.629599609375,-0.011850717477500439,0.0031956990715116262,0.043807707726955414
1696962066367613000,2.639613037109375,-0.015046416781842709,-0.0106523297727108,-0.035019535571336746
1696962066377626400,2.64962646484375,-0.015046416781842709,0.04473978653550148,0.041677240282297134
1696962066387640000,2.65964013671875,-0.006524552125483751,-0.02769605815410614,0.026763979345560074
1696962066397653500,2.669653564453125,-0.017176883295178413,0.0053261648863554,-0.03608476743102074
1696962066407667000,2.6796669921875,-0.005459319334477186,-0.0106523297727108,0.07896039634943008
1696962066417680400,2.689680419921875,-0.008655018173158169,0.004260932095348835,-0.041410934180021286
1696962066427693800,2.69969384765625,-0.010785484686493874,-0.02023942768573761,0.06298190355300903
1696962066437707500,2.70970751953125,-0.005459319334477186,-0.02556559257209301,-0.023301972076296806
1696962066447721000,2.719720947265625,-0.012915950268507004,0.02343512699007988,0.03954677656292915
1696962066457734400,2.729734375,-0.007589785382151604,-0.02450035884976387,-0.010519175790250301
1696962066467747800,2.739747802734375,-0.008655018173158169,-0.0063913981430232525,0.027829213067889214
1696962066477761300,2.74976123046875,-0.007589785382151604,-0.0021304660476744175,-0.022236740216612816
1696962066487775000,2.75977490234375,0.0009320789249613881,-0.04580501839518547,0.028894444927573204
1696962066497788400,2.769788330078125,-0.008655018173158169,-0.009587096981704235,-0.021171506494283676
1696962066507801900,2.7798017578125,-0.006524552125483751,0.02343512699007988,-0.006258244160562754
1696962066517815300,2.789815185546875,-0.004394086077809334,0,0.017176883295178413
1696962066527828700,2.799828857421875,-0.007589785382151604,-0.0053261648863554,-0.043541401624679565
1696962066537842400,2.809842529296875,-0.0001331541279796511,0.01810896210372448,0.029959678649902344
1696962066547856000,2.81985595703125,-0.00226362026296556,0,-0.043541401624679565
1696962066557869300,2.829869384765625,-0.0033288532868027687,0.0021304660476744175,-0.009453942999243736
1696962066567882800,2.8398828125,-0.00226362026296556,0.02556559257209301,0.0011983871227130294
1696962066577896200,2.849896240234375,-0.0011983871227130294,-0.01917419396340847,-0.03288906812667847
1696962066587909600,2.85990966796875,0.0009320789249613881,0.01491326279938221,-0.006258244160562754
1696962066597923300,2.86992333984375,0.0009320789249613881,-0.007456631399691105,0.011850717477500439
1696962066607936800,2.879936767578125,-0.00226362026296556,-0.007456631399691105,-0.060585130006074905
1696962066617950200,2.8899501953125,0.001997311832383275,0.02663082629442215,0.053394805639982224
1696962066627963600,2.899963623046875,-0.005459319334477186,0.004260932095348835,-0.050998032093048096
1696962066637977000,2.90997705078125,0.0030625448562204838,-0.0053261648863554,0.021437814459204674
1696962066647990800,2.91999072265625,-0.005459319334477186,0.02343512699007988,0.013981183059513569
1696962066658004200,2.930004150390625,-0.004394086077809334,0.02663082629442215,-0.035019535571336746
1696962066668017700,2.940017578125,0.0030625448562204838,-0.0063913981430232525,0.061916667968034744
1696962066678031000,2.950031005859375,-0.009720250964164734,0.01384802907705307,-0.027562905102968216
1696962066688044500,2.96004443359375,-0.0001331541279796511,0.02556559257209301,0.026763979345560074
1696962066698058200,2.970058349609375,-0.0033288532868027687,0.0053261648863554,0.04274247586727142
1696962066708071700,2.98007177734375,-0.010785484686493874,0.0063913981430232525,-0.040345702320337296
1696962066718085000,2.990085205078125,-0.004394086077809334,0.04154408723115921,0.0874822586774826
1696962066728098600,3.0000986328125,-0.008655018173158169,0.01171756349503994,-0.023301972076296806
1696962066738112000,3.010112060546875,-0.004394086077809334,-0.004260932095348835,0.050199106335639954
1696962066748125700,3.020125732421875,-0.006524552125483751,0.03728315606713295,0.018242115154862404
1696962066758139100,3.03013916015625,-0.009720250964164734,-0.0053261648863554,0.008655018173158169
1696962066768152600,3.040152587890625,-0.008655018173158169,0.03728315606713295,0.017176883295178413
1696962066778166000,3.050166015625,-0.012915950268507004,0.04580501839518547,0.057655736804008484
1696962066788179500,3.060179443359375,-0.007589785382151604,-0.00852186419069767,-0.041410934180021286
1696962066798193200,3.070193115234375,-0.009720250964164734,0.04900071769952774,0.07043853402137756
1696962066808206600,3.08020654296875,-0.008655018173158169,0.00852186419069767,-0.030758604407310486
1696962066818220000,3.090219970703125,-0.005459319334477186,0.0159784946590662,0.023568280041217804
1696962066828233500,3.1002333984375,-0.008655018173158169,0.012782796286046505,0.006524552125483751
1696962066838247000,3.110246826171875,-0.006524552125483751,0.012782796286046505,-0.035019535571336746
1696962066848260600,3.120260498046875,0.0009320789249613881,0.00852186419069767,0.07256899774074554
1696962066858274000,3.130274169921875,-0.008655018173158169,-0.0213046595454216,-0.10212921351194382
1696962066868287500,3.14028759765625,0.001997311832383275,0.01917419396340847,0.08109086751937866
1696962066878301000,3.150301025390625,-0.007589785382151604,0.004260932095348835,-0.07975932210683823
1696962066888314400,3.160314453125,-0.0011983871227130294,-0.01171756349503994,0.033155377954244614
1696962066898327800,3.170327880859375,-0.0011983871227130294,-0.004260932095348835,-0.041410934180021286
1696962066908341500,3.180341552734375,-0.006524552125483751,0.01384802907705307,0.005459319334477186
1696962066918355000,3.19035498046875,-0.0011983871227130294,0.009587096981704235,-0.016910573467612267
1696962066928368400,3.200368408203125,-0.006524552125483751,0.0159784946590662,-0.019041040912270546
1696962066938381800,3.2103818359375,-0.004394086077809334,0.01810896210372448,0.006524552125483751
1696962066948395300,3.220395263671875,-0.005459319334477186,0.02023942768573761,-0.012649642303586006
1696962066958409000,3.230408935546875,-0.011850717477500439,0.02982652559876442,-0.0009320789249613881
1696962066968422400,3.24042236328125,-0.0033288532868027687,0.01171756349503994,-0.001997311832383275
1696962066978435800,3.250435791015625,-0.008655018173158169,0.04367455467581749,0.013981183059513569
1696962066988449300,3.26044921875,-0.008655018173158169,0.012782796286046505,-0.004127778112888336
1696962066998462700,3.270462646484375,-0.0033288532868027687,0.01810896210372448,0.041677240282297134
1696962067008476400,3.280476318359375,-0.013981183059513569,0.02450035884976387,-0.013714875094592571
1696962067018489900,3.29048974609375,-0.0033288532868027687,0,0.036351077258586884
1696962067028503300,3.30050341796875,-0.010785484686493874,0.02982652559876442,0.024633513763546944
1696962067038516700,3.310516845703125,-0.010785484686493874,0.0021304660476744175,0.004394086077809334
1696962067048530200,3.3205302734375,0.0009320789249613881,-0.01917419396340847,0.041677240282297134
1696962067058543900,3.3305439453125,-0.011850717477500439,-0.0021304660476744175,0.0033288532868027687
1696962067068557300,3.340557373046875,-0.010785484686493874,0.01171756349503994,0.021437814459204674
1696962067078570800,3.35057080078125,-0.005459319334477186,0.0010652330238372087,0.024633513763546944
1696962067088584200,3.360584228515625,-0.011850717477500439,-0.0010652330238372087,-0.012649642303586006
1696962067098597600,3.37059765625,-0.006524552125483751,0.00852186419069767,0.024633513763546944
1696962067108611300,3.380611328125,-0.010785484686493874,0.0106523297727108,-0.013714875094592571
1696962067118624800,3.390624755859375,-0.008655018173158169,0.012782796286046505,-0.007323476951569319
1696962067128638200,3.40063818359375,-0.006524552125483751,-0.009587096981704235,0.011850717477500439
1696962067138651600,3.410651611328125,-0.012915950268507004,0.02769605815410614,-0.040345702320337296
1696962067148665000,3.4206650390625,-0.004394086077809334,0.007456631399691105,0.013981183059513569
1696962067158678800,3.4306787109375,-0.006524552125483751,-0.0010652330238372087,-0.040345702320337296
1696962067168692200,3.440692138671875,-0.006524552125483751,0.0021304660476744175,-0.025432437658309937
1696962067178705700,3.45070556640625,-0.005459319334477186,0.02876129187643528,-0.021171506494283676
1696962067188719000,3.460718994140625,-0.004394086077809334,0.0010652330238372087,-0.028628136962652206
1696962067198732500,3.470732666015625,-0.0011983871227130294,-0.0021304660476744175,-0.016910573467612267
1696962067208746000,3.48074609375,-0.011850717477500439,0.03408745676279068,-0.033954303711652756
1696962067218759700,3.490759765625,-0.00226362026296556,0.03089175745844841,-0.025432437658309937
1696962067228773000,3.500773193359375,-0.007589785382151604,0.02769605815410614,-0.013714875094592571
1696962067238786600,3.51078662109375,-0.008655018173158169,0.007456631399691105,-0.041410934180021286
1696962067248800000,3.520800048828125,-0.0001331541279796511,0.02663082629442215,0.015046416781842709
1696962067258813400,3.5308134765625,-0.010785484686493874,0.02769605815410614,-0.03288906812667847
1696962067268827100,3.5408271484375,-0.00226362026296556,-0.0063913981430232525,-0.001997311832383275
1696962067278840600,3.550840576171875,-0.004394086077809334,0.03515268862247467,0.006524552125483751
1696962067288854000,3.56085400390625,-0.006524552125483751,-0.004260932095348835,-0.027562905102968216
1696962067298867500,3.570867431640625,-0.0033288532868027687,0.0053261648863554,0.047003407031297684
1696962067308881000,3.580880859375,-0.009720250964164734,0.012782796286046505,-0.023301972076296806
1696962067318894600,3.59089453125,-0.006524552125483751,0.0031956990715116262,0.020372580736875534
1696962067328908000,3.600907958984375,-0.004394086077809334,0.01810896210372448,0.037416309118270874
1696962067338921500,3.61092138671875,-0.015046416781842709,0.0063913981430232525,-0.008388710208237171
1696962067348935000,3.620934814453125,-0.007589785382151604,0.007456631399691105,0.027829213067889214
1696962067358948400,3.6309482421875,-0.012915950268507004,0.0532616525888443,0.024633513763546944
1696962067368962000,3.640962158203125,-0.008655018173158169,-0.0063913981430232525,0.0033288532868027687
1696962067378975500,3.6509755859375,-0.010785484686493874,-0.009587096981704235,-0.005193010903894901
1696962067388989000,3.660989013671875,-0.009720250964164734,0.03089175745844841,0.03209014609456062
1696962067399002400,3.67100244140625,-0.006524552125483751,-0.02450035884976387,-0.028628136962652206
1696962067409015800,3.681015869140625,-0.011850717477500439,-0.0106523297727108,0.007589785382151604
1696962067419029500,3.691029541015625,-0.009720250964164734,0.0213046595454216,-0.006258244160562754
1696962067429043000,3.70104296875,-0.009720250964164734,0.009587096981704235,-0.028628136962652206
1696962067439056400,3.711056396484375,-0.009720250964164734,-0.0031956990715116262,0.0011983871227130294
1696962067449069800,3.72106982421875,-0.007589785382151604,0.00852186419069767,-0.027562905102968216
1696962067459083300,3.731083251953125,-0.004394086077809334,0.01171756349503994,-0.019041040912270546
1696962067469097000,3.741096923828125,-0.005459319334477186,-0.01704372838139534,-0.004127778112888336
1696962067479110400,3.7511103515625,-0.007589785382151604,0.01810896210372448,-0.050998032093048096
1696962067489123800,3.761123779296875,-0.0033288532868027687,-0.0053261648863554,0.013981183059513569
1696962067499137300,3.77113720703125,-0.0001331541279796511,-0.01810896210372448,-0.045671865344047546
1696962067509150700,3.781150634765625,-0.005459319334477186,-0.01384802907705307,0.018242115154862404
1696962067519164200,3.7911640625,-0.0011983871227130294,-0.02343512699007988,-0.07017222791910172
1696962067529177900,3.801177734375,0.0009320789249613881,0.01171756349503994,0.06298190355300903
1696962067539191300,3.81119140625,-0.006524552125483751,-0.04580501839518547,-0.07762885838747025
1696962067549204700,3.821204833984375,0.0009320789249613881,-0.0159784946590662,0.048068638890981674
1696962067559218200,3.83121826171875,-0.007589785382151604,0.02023942768573761,-0.024367205798625946
1696962067569231600,3.841231689453125,-0.005459319334477186,-0.01491326279938221,-0.025432437658309937
1696962067579245000,3.8512451171875,-0.00226362026296556,-0.0106523297727108,0.048068638890981674
1696962067589258500,3.861258544921875,-0.010785484686493874,0.01704372838139534,-0.057389430701732635
1696962067599272000,3.87127197265625,0.0009320789249613881,-0.007456631399691105,0.06511236727237701
1696962067609285400,3.881285400390625,-0.010785484686493874,-0.0159784946590662,-0.025432437658309937
1696962067619298800,3.891298828125,-0.010785484686493874,0.0106523297727108,-0.0030625448562204838
1696962067629312300,3.901312255859375,-0.005459319334477186,0.02769605815410614,0.054460037499666214
1696962067639325700,3.91132568359375,-0.012915950268507004,-0.03834838792681694,-0.037150003015995026
1696962067649339100,3.921339111328125,-0.006524552125483751,0.01491326279938221,0.017176883295178413
1696962067659352600,3.9313525390625,-0.006524552125483751,-0.0021304660476744175,0.058720968663692474
1696962067669366000,3.941365966796875,-0.010785484686493874,-0.02236989326775074,-0.08828118443489075
1696962067679379500,3.95137939453125,-0.00226362026296556,-0.004260932095348835,0.11091738939285278
1696962067689393000,3.961392822265625,-0.012915950268507004,-0.012782796286046505,-0.08082455396652222
1696962067699406300,3.97140625,-0.007589785382151604,0.0021304660476744175,0.051264338195323944
1696962067709419800,3.981419677734375,-0.010785484686493874,-0.0063913981430232525,-0.026497671380639076
1696962067719433200,3.99143310546875,-0.008655018173158169,-0.0106523297727108,-0.001997311832383275
1696962067729446700,4.00144677734375,-0.009720250964164734,0.004260932095348835,-0.004127778112888336
1696962067739460000,4.011460205078125,-0.010785484686493874,0.0010652330238372087,-0.025432437658309937
1696962067749473500,4.0214736328125,-0.00226362026296556,-0.02450035884976387,0.007589785382151604
1696962067759487000,4.031487060546875,-0.009720250964164734,0.02023942768573761,-0.027562905102968216
1696962067769500400,4.04150048828125,-0.009720250964164734,-0.00852186419069767,-0.017975807189941406
1696962067779513900,4.051513916015625,-0.0001331541279796511,-0.0106523297727108,-0.028628136962652206
1696962067789527300,4.06152734375,-0.004394086077809334,-0.00852186419069767,0.015046416781842709
1696962067799540700,4.071540771484375,-0.00226362026296556,-0.05006595328450203,-0.07762885838747025
1696962067809554200,4.08155419921875,0.001997311832383275,-0.02769605815410614,0.06511236727237701
1696962067819567600,4.091567626953125,-0.0011983871227130294,-0.04580501839518547,-0.0936073511838913
1696962067829581000,4.1015810546875,-0.0001331541279796511,-0.03302222490310669,0.025698747485876083
1696962067839594500,4.111594482421875,-0.006524552125483751,-0.01384802907705307,-0.012649642303586006
1696962067849608000,4.12160791015625,-0.0001331541279796511,-0.03089175745844841,-0.047802332788705826
1696962067859621400,4.131621337890625,-0.0011983871227130294,-0.0010652330238372087,0.036351077258586884
1696962067869634800,4.141634765625,-0.009720250964164734,0.00852186419069767,-0.058454662561416626
1696962067879648300,4.151648193359375,-0.006524552125483751,0.009587096981704235,0.019307348877191544
1696962067889661700,4.16166162109375,-0.009720250964164734,0.02450035884976387,-0.011584409512579441
1696962067899675100,4.171675048828125,-0.006524552125483751,0.02982652559876442,-0.006258244160562754
1696962067909688800,4.181688720703125,-0.009720250964164734,0.007456631399691105,0.018242115154862404
1696962067919702300,4.191702392578125,-0.011850717477500439,-0.0063913981430232525,-0.047802332788705826
1696962067929715700,4.2017158203125,-0.0001331541279796511,-0.0010652330238372087,0.07469946891069412
1696962067939729200,4.211729248046875,-0.010785484686493874,-0.05006595328450203,-0.061650361865758896
1696962067949742600,4.22174267578125,-0.0001331541279796511,-0.05006595328450203,0.051264338195323944
1696962067959756300,4.23175634765625,-0.004394086077809334,-0.03515268862247467,-0.004127778112888336
1696962067969769700,4.241769775390625,-0.006524552125483751,-0.04154408723115921,-0.028628136962652206
1696962067979783200,4.251783203125,-0.0011983871227130294,-0.03089175745844841,0.0778951644897461
1696962067989796600,4.261796630859375,-0.009720250964164734,-0.0532616525888443,-0.07336792349815369
1696962067999810000,4.27181005859375,-0.005459319334477186,-0.02450035884976387,0.034220609813928604
1696962068009823500,4.281823486328125,-0.011850717477500439,-0.0021304660476744175,0.010785484686493874
1696962068019837200,4.291837158203125,-0.015046416781842709,-0.0010652330238372087,-0.045671865344047546
1696962068029850600,4.3018505859375,-0.008655018173158169,-0.01491326279938221,0.024633513763546944
1696962068039864000,4.311864013671875,-0.017176883295178413,0.02343512699007988,-0.022236740216612816
1696962068049877500,4.32187744140625,-0.006524552125483751,0,-0.017975807189941406
1696962068059891000,4.331890869140625,-0.007589785382151604,-0.0159784946590662,0.00226362026296556
1696962068069904600,4.341904541015625,-0.010785484686493874,0.007456631399691105,-0.050998032093048096
1696962068079918000,4.35191796875,-0.004394086077809334,-0.0053261648863554,-0.005193010903894901
1696962068089931500,4.361931640625,-0.004394086077809334,-0.01810896210372448,-0.015845341607928276
1696962068099945000,4.371945068359375,-0.00226362026296556,-0.009587096981704235,-0.057389430701732635
1696962068109958400,4.38195849609375,0.001997311832383275,-0.02663082629442215,0.03954677656292915
1696962068119972000,4.39197216796875,-0.008655018173158169,-0.01171756349503994,-0.10212921351194382
1696962068129985500,4.401985595703125,0.001997311832383275,-0.007456631399691105,0.04913387447595596
1696962068139999000,4.4119990234375,-0.006524552125483751,-0.02343512699007988,-0.054193731397390366
1696962068150012400,4.422012451171875,-0.0033288532868027687,0.007456631399691105,-0.040345702320337296
1696962068160025900,4.43202587890625,-0.0033288532868027687,-0.0021304660476744175,0.048068638890981674
1696962068170039600,4.44203955078125,-0.004394086077809334,-0.012782796286046505,-0.10745538026094437
1696962068180053000,4.452052978515625,-0.0001331541279796511,0.0021304660476744175,0.08322133123874664
1696962068190066400,4.46206640625,-0.010785484686493874,-0.01171756349503994,-0.08082455396652222
1696962068200080000,4.472079833984375,-0.00226362026296556,0.004260932095348835,0.050199106335639954
1696962068210093300,4.48209326171875,-0.013981183059513569,0.0159784946590662,-0.014780107885599136
1696962068220107000,4.49210693359375,-0.013981183059513569,0.01810896210372448,0.008655018173158169
1696962068230120400,4.502120361328125,-0.007589785382151604,-0.01704372838139534,0.029959678649902344
1696962068240134000,4.5121337890625,-0.015046416781842709,0.01704372838139534,0.008655018173158169
1696962068250147300,4.522147216796875,-0.005459319334477186,-0.03941362351179123,0.019307348877191544
1696962068260160800,4.532160888671875,-0.011850717477500439,0.009587096981704235,0.03848154470324516
1696962068270174500,4.542174560546875,-0.015046416781842709,-0.0063913981430232525,0.009720250964164734
1696962068280188000,4.55218798828125,-0.010785484686493874,-0.0063913981430232525,0.017176883295178413
1696962068290201300,4.562201416015625,-0.015046416781842709,0.0021304660476744175,0.05659050494432449
1696962068300214800,4.57221484375,-0.013981183059513569,0.01384802907705307,-0.061650361865758896
1696962068310228200,4.582228271484375,-0.013981183059513569,0,0.1087869256734848
1696962068320241700,4.59224169921875,-0.016111649572849274,-0.0031956990715116262,-0.09893351793289185
1696962068330255400,4.60225537109375,-0.013981183059513569,0.03728315606713295,0.10133028775453568
1696962068340268800,4.612268798828125,-0.010785484686493874,-0.03515268862247467,-0.054193731397390366
1696962068350282200,4.6222822265625,-0.010785484686493874,-0.0010652330238372087,0.025698747485876083
1696962068360295700,4.632295654296875,-0.008655018173158169,-0.00852186419069767,-0.020106272771954536
1696962068370309000,4.64230908203125,-0.005459319334477186,-0.01704372838139534,0.013981183059513569
1696962068380322800,4.65232275390625,-0.005459319334477186,-0.02876129187643528,-0.022236740216612816
1696962068390336300,4.662336181640625,-0.010785484686493874,0.01384802907705307,0.018242115154862404
1696962068400349700,4.672349609375,-0.005459319334477186,0.01384802907705307,-0.005193010903894901
1696962068410363100,4.682363037109375,-0.009720250964164734,0.0031956990715116262,0.0011983871227130294
1696962068420376600,4.69237646484375,-0.007589785382151604,0.0053261648863554,0.007589785382151604
1696962068430390300,4.702390380859375,-0.008655018173158169,0.02556559257209301,0.017176883295178413
1696962068440403700,4.71240380859375,-0.011850717477500439,0.0010652330238372087,-0.007323476951569319
1696962068450417200,4.722417236328125,0.0009320789249613881,-0.0021304660476744175,0.04593817517161369
1696962068460430600,4.7324306640625,-0.009720250964164734,-0.0213046595454216,-0.017975807189941406
1696962068470444000,4.742444091796875,-0.010785484686493874,0.04580501839518547,0.04593817517161369
1696962068480457700,4.752457763671875,-0.004394086077809334,-0.0053261648863554,0.033155377954244614
1696962068490471200,4.76247119140625,-0.008655018173158169,-0.03302222490310669,-0.014780107885599136
1696962068500484600,4.772484619140625,-0.005459319334477186,0.01171756349503994,0.08322133123874664
1696962068510498000,4.782498046875,-0.010785484686493874,-0.00852186419069767,-0.004127778112888336
1696962068520511500,4.792511474609375,-0.007589785382151604,-0.03089175745844841,0.040612008422613144
1696962068530525200,4.802525146484375,-0.011850717477500439,0.01171756349503994,0.031024912372231483
1696962068540538600,4.81253857421875,-0.013981183059513569,-0.0021304660476744175,0.041677240282297134
1696962068550552000,4.822552001953125,-0.010785484686493874,-0.004260932095348835,0.006524552125483751
1696962068560565500,4.8325654296875,-0.016111649572849274,0.03302222490310669,0.0768299326300621
1696962068570579000,4.842578857421875,-0.013981183059513569,-0.01810896210372448,-0.015845341607928276
1696962068580592600,4.852592529296875,-0.011850717477500439,-0.00852186419069767,0.06404713541269302
1696962068590606000,4.862606201171875,-0.013981183059513569,-0.0021304660476744175,-0.009453942999243736
1696962068600619500,4.87261962890625,-0.012915950268507004,0.0021304660476744175,0.04593817517161369
1696962068610633000,4.882633056640625,-0.016111649572849274,0.03302222490310669,0.015046416781842709
1696962068620646400,4.892646484375,-0.018242115154862404,0.0053261648863554,-0.016910573467612267
1696962068630659800,4.902659912109375,-0.011850717477500439,0.01917419396340847,0.06830807030200958
1696962068640673500,4.912673583984375,-0.012915950268507004,0.0063913981430232525,-0.055258963257074356
1696962068650687000,4.92268701171875,-0.008655018173158169,0.02023942768573761,0.0555252730846405
1696962068660700400,4.932700439453125,-0.011850717477500439,-0.007456631399691105,-0.03928046673536301
1696962068670713900,4.9427138671875,-0.004394086077809334,0.01704372838139534,0.031024912372231483
1696962068680727300,4.952727294921875,-0.006524552125483751,-0.0213046595454216,-0.010519175790250301
1696962068690741000,4.962740966796875,-0.013981183059513569,0.04047885537147522,0.013981183059513569
1696962068700754400,4.97275439453125,0.001997311832383275,-0.02556559257209301,-0.016910573467612267
1696962068710767900,4.982767822265625,-0.005459319334477186,-0.0053261648863554,0.0555252730846405
1696962068720781300,4.99278125,-0.009720250964164734,0.02023942768573761,-0.061650361865758896
1696962068730794800,5.002794677734375,-0.0001331541279796511,-0.01704372838139534,0.09280842542648315
1696962068740808400,5.012808349609375,-0.007589785382151604,-0.02663082629442215,-0.06484606117010117
1696962068750822000,5.02282177734375,-0.0001331541279796511,0.0063913981430232525,0.08641702681779861
1696962068760835300,5.03283544921875,-0.009720250964164734,0.0063913981430232525,-0.031823836266994476
1696962068770848800,5.042848876953125,-0.009720250964164734,0.02769605815410614,0.03954677656292915
1696962068780862200,5.0528623046875,-0.009720250964164734,0.0159784946590662,0.013981183059513569
1696962068790876000,5.0628759765625,-0.015046416781842709,0.05539211630821228,0.013981183059513569
1696962068800889300,5.072889404296875,-0.009720250964164734,0.0159784946590662,0.03209014609456062
1696962068810902800,5.08290283203125,-0.018242115154862404,0.03941362351179123,-0.017975807189941406
1696962068820916200,5.092916259765625,-0.010785484686493874,0.04367455467581749,0.043807707726955414
1696962068830929700,5.1029296875,-0.007589785382151604,-0.009587096981704235,-0.019041040912270546
1696962068840943000,5.112943115234375,-0.019307348877191544,0.03302222490310669,0.021437814459204674
1696962068850956500,5.12295654296875,-0.009720250964164734,0.00852186419069767,-0.006258244160562754
1696962068860970000,5.132969970703125,-0.004394086077809334,-0.0426093190908432,-0.0030625448562204838
1696962068870983400,5.1429833984375,-0.007589785382151604,-0.02343512699007988,0.009720250964164734
1696962068880996900,5.152996826171875,-0.010785484686493874,-0.012782796286046505,-0.012649642303586006
1696962068891010300,5.16301025390625,-0.004394086077809334,-0.04154408723115921,0.007589785382151604
1696962068901023700,5.173023681640625,-0.0033288532868027687,-0.02556559257209301,-0.013714875094592571
1696962068911037200,5.183037109375,-0.011850717477500439,-0.012782796286046505,0.03209014609456062
1696962068921050600,5.193050537109375,-0.009720250964164734,-0.02450035884976387,-0.05632419511675835
1696962068931064000,5.20306396484375,-0.010785484686493874,0.01917419396340847,0.03848154470324516
1696962068941077500,5.213077392578125,-0.009720250964164734,-0.01704372838139534,-0.035019535571336746
1696962068951091000,5.223091064453125,-0.006524552125483751,-0.0106523297727108,0.004394086077809334
1696962068961104400,5.2331044921875,-0.008655018173158169,0.0213046595454216,-0.0030625448562204838
1696962068971117800,5.243117919921875,-0.006524552125483751,-0.01704372838139534,-0.016910573467612267
1696962068981131300,5.25313134765625,-0.005459319334477186,0.0063913981430232525,-0.011584409512579441
1696962068991144700,5.263144775390625,-0.008655018173158169,0.01810896210372448,0.011850717477500439
1696962069001158100,5.273158203125,-0.005459319334477186,-0.02982652559876442,-0.040345702320337296
1696962069011171600,5.283171630859375,-0.008655018173158169,0.06178351491689682,0.037416309118270874
1696962069021185000,5.29318505859375,-0.00226362026296556,-0.02343512699007988,-0.024367205798625946
1696962069031198500,5.303198486328125,-0.004394086077809334,0.01917419396340847,-0.001997311832383275
1696962069041212000,5.3132119140625,-0.011850717477500439,0.05219641700387001,0.037416309118270874
1696962069051225300,5.323225341796875,-0.0033288532868027687,-0.0063913981430232525,-0.03288906812667847
1696962069061238800,5.33323876953125,-0.009720250964164734,0.02663082629442215,0.05659050494432449
1696962069071252200,5.343252197265625,-0.017176883295178413,0.06071828305721283,-0.028628136962652206
1696962069081265700,5.353265625,-0.00226362026296556,0.02236989326775074,0.07043853402137756
1696962069091279000,5.363279052734375,-0.009720250964164734,-0.03941362351179123,-0.012649642303586006
1696962069101292500,5.37329248046875,-0.009720250964164734,0.03408745676279068,0.026763979345560074
1696962069111306000,5.383305908203125,-0.0001331541279796511,-0.0063913981430232525,0.09067796170711517
1696962069121319400,5.3933193359375,-0.021437814459204674,0,-0.06484606117010117
1696962069131332900,5.403332763671875,-0.00226362026296556,-0.02343512699007988,0.13435252010822296
1696962069141346300,5.41334619140625,-0.013981183059513569,0.0021304660476744175,-0.044606633484363556
1696962069151359700,5.42335986328125,-0.017176883295178413,-0.004260932095348835,0.058720968663692474
1696962069161373200,5.433373291015625,-0.0011983871227130294,-0.05113118514418602,0.03528584539890289
1696962069171386600,5.44338671875,-0.016111649572849274,0.0053261648863554,0.023568280041217804
1696962069181400000,5.453400146484375,-0.027829213067889214,0.08415340632200241,0.0033288532868027687
1696962069191413500,5.46341357421875,-0.010785484686493874,0.03728315606713295,0.10239552706480026
1696962069201427000,5.473427001953125,-0.017176883295178413,-0.02343512699007988,-0.0829550251364708
1696962069211440400,5.4834404296875,-0.018242115154862404,0.0639139786362648,0.10559122264385223
1696962069221454000,5.4934541015625,-0.019307348877191544,0.05432688444852829,-0.045671865344047546
1696962069231467500,5.503467529296875,-0.013981183059513569,0.01171756349503994,-0.001997311832383275
1696962069241481000,5.51348095703125,-0.0011983871227130294,-0.04047885537147522,-0.010519175790250301
1696962069251494400,5.523494384765625,-0.0033288532868027687,-0.03834838792681694,-0.050998032093048096
1696962069261507800,5.5335078125,-0.00226362026296556,-0.03834838792681694,-0.025432437658309937
1696962069271521500,5.543521484375,0.005193010903894901,-0.04580501839518547,-0.044606633484363556
1696962069281535000,5.553534912109375,-0.0001331541279796511,0,-0.013714875094592571
1696962069291548400,5.56354833984375,0.001997311832383275,-0.06924014538526535,-0.052063263952732086
1696962069301561900,5.573561767578125,-0.00226362026296556,0.0319569893181324,-0.07549838721752167
1696962069311575300,5.5835751953125,-0.004394086077809334,0.01491326279938221,-0.044606633484363556
1696962069321589000,5.593589111328125,-0.006524552125483751,0.004260932095348835,-0.06271559745073318
1696962069331602400,5.6036025390625,-0.0033288532868027687,0.012782796286046505,-0.006258244160562754
1696962069341615900,5.613615966796875,-0.007589785382151604,0.02663082629442215,-0.059519894421100616
1696962069351629300,5.62362939453125,-0.00226362026296556,-0.02023942768573761,-0.019041040912270546
1696962069361642800,5.633642822265625,-0.005459319334477186,0,-0.045671865344047546
1696962069371656200,5.64365625,-0.008655018173158169,0,-0.027562905102968216
1696962069381670000,5.653669921875,-0.007589785382151604,-0.02876129187643528,-0.041410934180021286
1696962069391683300,5.663683349609375,-0.0001331541279796511,-0.03515268862247467,0.029959678649902344
1696962069401696800,5.67369677734375,-0.009720250964164734,-0.0159784946590662,-0.045671865344047546
1696962069411710200,5.683710205078125,-0.021437814459204674,0.0106523297727108,-0.008388710208237171
1696962069421723600,5.6937236328125,-0.0033288532868027687,-0.0021304660476744175,0.03209014609456062
1696962069431737300,5.7037373046875,-0.005459319334477186,-0.06817491352558136,-0.04673709720373154
1696962069441750800,5.713750732421875,-0.023568280041217804,0.04687025398015976,-0.009453942999243736
1696962069451764200,5.72376416015625,-0.010785484686493874,-0.0159784946590662,0.043807707726955414
1696962069461777700,5.733777587890625,-0.009720250964164734,-0.0159784946590662,-0.057389430701732635
1696962069471791000,5.743791015625,-0.022503048181533813,0.0319569893181324,0.022503048181533813
1696962069481804800,5.7538046875,-0.013981183059513569,-0.012782796286046505,-0.025432437658309937
1696962069491818200,5.763818359375,-0.004394086077809334,-0.02343512699007988,0.00226362026296556
1696962069501831700,5.773831787109375,-0.017176883295178413,-0.0063913981430232525,-0.038215234875679016
1696962069511845000,5.78384521484375,-0.013981183059513569,0.01917419396340847,0.0001331541279796511
1696962069521858600,5.793858642578125,-0.0001331541279796511,-0.03834838792681694,0.024633513763546944
1696962069531872300,5.803872314453125,-0.013981183059513569,-0.004260932095348835,-0.08188978582620621
1696962069541885700,5.8138857421875,-0.005459319334477186,-0.04473978653550148,0.029959678649902344
1696962069551899100,5.823899169921875,0.0009320789249613881,-0.03408745676279068,-0.029693370684981346
1696962069561912600,5.83391259765625,-0.0011983871227130294,-0.007456631399691105,-0.023301972076296806
1696962069571926000,5.843926025390625,-0.007589785382151604,-0.06604444980621338,-0.055258963257074356
1696962069581939700,5.853939697265625,-0.0011983871227130294,0.02236989326775074,0.013981183059513569
1696962069591953200,5.863953125,-0.008655018173158169,0.06497921794652939,-0.054193731397390366
1696962069601966600,5.873966552734375,-0.009720250964164734,0.007456631399691105,-0.05312849581241608
1696962069611980000,5.88397998046875,-0.010785484686493874,0.04154408723115921,0.011850717477500439
1696962069621993500,5.893993408203125,-0.019307348877191544,0.08947957307100296,-0.08082455396652222
1696962069632007200,5.904007080078125,-0.007589785382151604,0.05965305119752884,0.051264338195323944
1696962069642020600,5.9140205078125,-0.010785484686493874,-0.03834838792681694,-0.060585130006074905
1696962069652034000,5.924033935546875,-0.013981183059513569,0.03621792420744896,0.06298190355300903
1696962069662047500,5.934047607421875,-0.006524552125483751,-0.04580501839518547,-0.030758604407310486
1696962069672061000,5.94406103515625,-0.010785484686493874,-0.04367455467581749,0.013981183059513569
1696962069682074400,5.954074462890625,-0.008655018173158169,-0.0213046595454216,0.053394805639982224
1696962069692088000,5.964088134765625,-0.013981183059513569,-0.0213046595454216,-0.011584409512579441
1696962069702101500,5.9741015625,-0.015046416781842709,-0.01171756349503994,0.028894444927573204
1696962069712115000,5.984114990234375,-0.016111649572849274,-0.0021304660476744175,0.025698747485876083
1696962069722128400,5.99412841796875,-0.012915950268507004,-0.01917419396340847,0.017176883295178413
1696962069732141800,6.004141845703125,-0.018242115154862404,-0.01384802907705307,0.016111649572849274
1696962069742155500,6.014155517578125,-0.015046416781842709,-0.02556559257209301,0.0011983871227130294
1696962069752169000,6.0241689453125,-0.016111649572849274,0.01917419396340847,0.07150376588106155
1696962069762182400,6.034182373046875,-0.016111649572849274,-0.012782796286046505,-0.009453942999243736
1696962069772195800,6.04419580078125,-0.013981183059513569,-0.02450035884976387,0.028894444927573204
1696962069782209300,6.054209228515625,-0.004394086077809334,-0.03408745676279068,0.061916667968034744
1696962069792223000,6.064222900390625,-0.008655018173158169,-0.04047885537147522,-0.010519175790250301
1696962069802236400,6.074236328125,-0.011850717477500439,-0.004260932095348835,0.043807707726955414
1696962069812249900,6.084249755859375,-0.006524552125483751,-0.0319569893181324,0.037416309118270874
1696962069822263300,6.09426318359375,0.0009320789249613881,-0.02663082629442215,0.044872939586639404
1696962069832276700,6.10427685546875,-0.007589785382151604,-0.03621792420744896,-0.014780107885599136
1696962069842290200,6.114290283203125,-0.0033288532868027687,-0.01704372838139534,0.053394805639982224
1696962069852303600,6.1243037109375,0.0030625448562204838,-0.02769605815410614,0.023568280041217804
1696962069862317000,6.134317138671875,-0.004394086077809334,-0.007456631399691105,-0.011584409512579441
1696962069872330500,6.14433056640625,-0.006524552125483751,0.00852186419069767,0.05232957378029823
1696962069882344000,6.154343994140625,-0.005459319334477186,0.02236989326775074,-0.005193010903894901
1696962069892357400,6.164357421875,-0.0011983871227130294,0.02876129187643528,0.028894444927573204
1696962069902370800,6.174370849609375,-0.009720250964164734,-0.012782796286046505,-0.008388710208237171
1696962069912384300,6.18438427734375,-0.015046416781842709,0.04473978653550148,0.009720250964164734
1696962069922397700,6.194397705078125,-0.010785484686493874,0.05965305119752884,0.015046416781842709
1696962069932411100,6.2044111328125,-0.0033288532868027687,-0.03728315606713295,-0.012649642303586006
1696962069942424600,6.214424560546875,-0.016111649572849274,-0.0213046595454216,-0.008388710208237171
1696962069952438000,6.22443798828125,-0.013981183059513569,0.02663082629442215,0.009720250964164734
1696962069962451500,6.234451416015625,-0.0011983871227130294,-0.05539211630821228,-0.025432437658309937
1696962069972465000,6.24446484375,-0.012915950268507004,-0.06710968166589737,-0.013714875094592571
1696962069982478300,6.254478271484375,-0.012915950268507004,-0.0159784946590662,0.022503048181533813
1696962069992491800,6.26449169921875,-0.017176883295178413,-0.007456631399691105,-0.037150003015995026
1696962070002505200,6.274505126953125,-0.024633513763546944,0.0053261648863554,0.0001331541279796511
1696962070012518700,6.2845185546875,-0.025698747485876083,0.02663082629442215,0.009720250964164734
1696962070022532000,6.294531982421875,-0.018242115154862404,-0.02556559257209301,-0.026497671380639076
1696962070032545500,6.304545654296875,-0.03209014609456062,0.0319569893181324,-0.020106272771954536
1696962070042559000,6.31455908203125,-0.020372580736875534,0.0010652330238372087,0.053394805639982224
1696962070052572400,6.324572509765625,-0.027829213067889214,-0.02450035884976387,-0.08721595257520676
1696962070062585900,6.3345859375,-0.020372580736875534,-0.0053261648863554,0.057655736804008484
1696962070072599300,6.344599365234375,-0.028894444927573204,-0.0319569893181324,-0.07762885838747025
1696962070082612700,6.35461279296875,-0.019307348877191544,-0.02556559257209301,0.043807707726955414
1696962070092626200,6.364626220703125,-0.015046416781842709,-0.06284874677658081,-0.011584409512579441
1696962070102639600,6.3746396484375,-0.027829213067889214,-0.0319569893181324,-0.05632419511675835
1696962070112653000,6.384653076171875,-0.023568280041217804,-0.0031956990715116262,0.067242830991745
1696962070122666500,6.39466650390625,-0.017176883295178413,-0.0639139786362648,-0.042476166039705276
1696962070132679700,6.4046796875,-0.027829213067889214,0.01491326279938221,-0.023301972076296806
1696962070142693000,6.414693115234375,-0.029959678649902344,-0.01171756349503994,0.051264338195323944
1696962070152706600,6.42470654296875,-0.022503048181533813,-0.02450035884976387,-0.055258963257074356
1696962070162720000,6.434719970703125,-0.023568280041217804,-0.0063913981430232525,0.043807707726955414
1696962070172733400,6.4447333984375,-0.029959678649902344,-0.0213046595454216,-0.057389430701732635
1696962070182747000,6.454746826171875,-0.022503048181533813,-0.0319569893181324,0.051264338195323944
1696962070192760600,6.464760498046875,-0.028894444927573204,-0.007456631399691105,-0.06378082931041718
1696962070202774000,6.47477392578125,-0.03528584539890289,0.02236989326775074,0.006524552125483751
1696962070212787500,6.484787353515625,-0.028894444927573204,-0.0426093190908432,-0.010519175790250301
1696962070222801000,6.49480078125,-0.027829213067889214,0.0063913981430232525,-0.0030625448562204838
1696962070232814300,6.504814453125,-0.033155377954244614,-0.0319569893181324,-0.052063263952732086
1696962070242828000,6.514828125,-0.031024912372231483,-0.0021304660476744175,0.040612008422613144
1696962070252841500,6.524841552734375,-0.027829213067889214,-0.03515268862247467,-0.030758604407310486
1696962070262855000,6.53485498046875,-0.033155377954244614,-0.007456631399691105,-0.020106272771954536
1696962070272868400,6.544868408203125,-0.034220609813928604,0.00852186419069767,0.020372580736875534
1696962070282881800,6.5548818359375,-0.029959678649902344,-0.05219641700387001,-0.030758604407310486
1696962070292895500,6.5648955078125,-0.037416309118270874,0.05432688444852829,-0.001997311832383275
1696962070302909000,6.574908935546875,-0.034220609813928604,-0.0106523297727108,-0.001997311832383275
1696962070312922400,6.58492236328125,-0.027829213067889214,-0.04687025398015976,-0.037150003015995026
1696962070322935800,6.594935791015625,-0.033155377954244614,0.01810896210372448,0.043807707726955414
1696962070332949200,6.60494921875,-0.033155377954244614,-0.01491326279938221,-0.08508548885583878
1696962070342963000,6.614962890625,-0.029959678649902344,-0.02450035884976387,0.05978620424866676
1696962070352976400,6.624976318359375,-0.024633513763546944,-0.03941362351179123,-0.03928046673536301
1696962070362989800,6.63498974609375,-0.026763979345560074,-0.01704372838139534,0.007589785382151604
1696962070373003300,6.645003173828125,-0.029959678649902344,-0.04580501839518547,-0.006258244160562754
1696962070383016700,6.6550166015625,-0.019307348877191544,-0.02343512699007988,0.015046416781842709
1696962070393030400,6.665030517578125,-0.024633513763546944,-0.012782796286046505,-0.0009320789249613881
1696962070403043800,6.6750439453125,-0.03528584539890289,-0.03089175745844841,-0.015845341607928276
1696962070413057300,6.685057373046875,-0.019307348877191544,-0.0021304660476744175,0.060851436108350754
1696962070423070700,6.69507080078125,-0.021437814459204674,-0.03408745676279068,-0.033954303711652756
1696962070433084200,6.705084228515625,-0.031024912372231483,-0.0063913981430232525,0.033155377954244614
1696962070443097600,6.71509765625,-0.025698747485876083,-0.02236989326775074,0.016111649572849274
1696962070453111300,6.725111328125,-0.018242115154862404,-0.0031956990715116262,0.018242115154862404
1696962070463124700,6.735124755859375,-0.028894444927573204,-0.01384802907705307,0.017176883295178413
1696962070473138200,6.74513818359375,-0.03209014609456062,-0.0106523297727108,0.018242115154862404
1696962070483151600,6.755151611328125,-0.026763979345560074,0.0063913981430232525,0.019307348877191544
1696962070493165000,6.7651650390625,-0.024633513763546944,0.0159784946590662,0.04913387447595596
1696962070503178800,6.7751787109375,-0.03528584539890289,-0.04580501839518547,-0.03608476743102074
1696962070513192200,6.785192138671875,-0.027829213067889214,0.007456631399691105,0.09493889659643173
1696962070523205600,6.79520556640625,-0.027829213067889214,-0.01171756349503994,-0.04673709720373154
1696962070533219000,6.805218994140625,-0.033155377954244614,0.012782796286046505,0.047003407031297684
1696962070543232500,6.815232421875,-0.026763979345560074,-0.06497921794652939,0.022503048181533813
1696962070553246200,6.82524609375,-0.03528584539890289,0.02982652559876442,-0.017975807189941406
1696962070563259600,6.835259765625,-0.031024912372231483,0.009587096981704235,0.04274247586727142
1696962070573273000,6.845273193359375,-0.03209014609456062,-0.0532616525888443,-0.023301972076296806
1696962070583286500,6.85528662109375,-0.029959678649902344,0.0021304660476744175,0.041677240282297134
1696962070593300000,6.865300048828125,-0.03209014609456062,-0.00852186419069767,-0.029693370684981346
1696962070603313700,6.875313720703125,-0.036351077258586884,0.00852186419069767,0.019307348877191544
1696962070613327000,6.8853271484375,-0.026763979345560074,-0.04580501839518547,0.053394805639982224
1696962070623340500,6.895340576171875,-0.036351077258586884,0.01171756349503994,-0.0925421193242073
1696962070633354000,6.90535400390625,-0.028894444927573204,-0.007456631399691105,0.10985215753316879
1696962070643367400,6.915367431640625,-0.034220609813928604,-0.01810896210372448,-0.08082455396652222
1696962070653381000,6.925381103515625,-0.028894444927573204,0.0010652330238372087,0.066177599132061
1696962070663394600,6.93539453125,-0.031024912372231483,-0.02450035884976387,-0.06591129302978516
1696962070673408000,6.945407958984375,-0.024633513763546944,0.01704372838139534,0.047003407031297684
1696962070683421400,6.95542138671875,-0.027829213067889214,-0.0213046595454216,0.004394086077809334
1696962070693435000,6.965434814453125,-0.036351077258586884,0.01491326279938221,-0.06910699605941772
1696962070703448600,6.975448486328125,-0.021437814459204674,0,0.10772168636322021
1696962070713462000,6.9854619140625,-0.024633513763546944,-0.0319569893181324,-0.07762885838747025
1696962070723475500,6.995475341796875,-0.025698747485876083,-0.0053261648863554,0.044872939586639404
1696962070733489000,7.005489013671875,-0.028894444927573204,-0.01810896210372448,-0.027562905102968216
1696962070743502300,7.01550244140625,-0.019307348877191544,0.00852186419069767,0.060851436108350754
1696962070753515800,7.025515869140625,-0.024633513763546944,-0.06710968166589737,-0.033954303711652756
1696962070763529500,7.035529541015625,-0.033155377954244614,0.01491326279938221,0.012915950268507004
1696962070773543000,7.04554296875,-0.021437814459204674,-0.0021304660476744175,0.0555252730846405
1696962070783556400,7.055556396484375,-0.028894444927573204,-0.05965305119752884,-0.045671865344047546
1696962070793569800,7.06556982421875,-0.033155377954244614,0.02982652559876442,0.03528584539890289
1696962070803583200,7.075583251953125,-0.025698747485876083,-0.02236989326775074,0.024633513763546944
1696962070813597000,7.085596923828125,-0.027829213067889214,-0.03941362351179123,0.0001331541279796511
1696962070823610400,7.0956103515625,-0.03209014609456062,0,0.016111649572849274
1696962070833623800,7.105623779296875,-0.029959678649902344,-0.03728315606713295,0.018242115154862404
1696962070843637200,7.11563720703125,-0.022503048181533813,-0.03621792420744896,0.010785484686493874
1696962070853650700,7.125650634765625,-0.029959678649902344,-0.02023942768573761,0.017176883295178413
1696962070863664400,7.135664306640625,-0.034220609813928604,-0.04687025398015976,-0.010519175790250301
1696962070873677800,7.145677734375,-0.024633513763546944,0.0106523297727108,0.047003407031297684
1696962070883691300,7.155691162109375,-0.03209014609456062,-0.05432688444852829,-0.022236740216612816
1696962070893704700,7.16570458984375,-0.034220609813928604,-0.004260932095348835,0.00226362026296556
1696962070903718100,7.17571826171875,-0.027829213067889214,-0.02663082629442215,0.040612008422613144
1696962070913731800,7.18573193359375,-0.03528584539890289,-0.0010652330238372087,-0.09041165560483932
1696962070923745300,7.195745361328125,-0.026763979345560074,-0.03089175745844841,0.08322133123874664
1696962070933758700,7.2057587890625,-0.036351077258586884,0.0021304660476744175,-0.10212921351194382
1696962070943772200,7.215772216796875,-0.028894444927573204,0.02876129187643528,0.0778951644897461
1696962070953785600,7.22578564453125,-0.029959678649902344,-0.04047885537147522,-0.10745538026094437
1696962070963799300,7.23579931640625,-0.03209014609456062,0.05965305119752884,0.05659050494432449
1696962070973812700,7.245812744140625,-0.024633513763546944,-0.04047885537147522,-0.048867564648389816
1696962070983826200,7.255826171875,-0.031024912372231483,0.02876129187643528,-0.035019535571336746
1696962070993839600,7.265839599609375,-0.027829213067889214,0.01917419396340847,0.03848154470324516
1696962071003853000,7.27585302734375,-0.023568280041217804,-0.01810896210372448,-0.07549838721752167
1696962071013866800,7.28586669921875,-0.023568280041217804,0.01384802907705307,0.058720968663692474
1696962071023880200,7.295880126953125,-0.033155377954244614,0,-0.09893351793289185
1696962071033893600,7.3058935546875,-0.017176883295178413,0.01171756349503994,0.08854749798774719
1696962071043907000,7.315906982421875,-0.013981183059513569,-0.0426093190908432,-0.07549838721752167
1696962071053920500,7.32592041015625,-0.040612008422613144,0.07882724702358246,0.006524552125483751
1696962071063934000,7.335933837890625,-0.019307348877191544,-0.04793548583984375,0.07256899774074554
1696962071073947600,7.34594775390625,-0.03209014609456062,0.0106523297727108,-0.1031944528222084
1696962071083961000,7.355961181640625,-0.028894444927573204,-0.0021304660476744175,0.10985215753316879
1696962071093974500,7.365974609375,-0.029959678649902344,-0.0106523297727108,-0.08828118443489075
1696962071103988000,7.375988037109375,-0.023568280041217804,-0.0106523297727108,0.10452599078416824
1696962071114001400,7.38600146484375,-0.033155377954244614,-0.01384802907705307,-0.07336792349815369
1696962071124015000,7.39601513671875,-0.033155377954244614,-0.0106523297727108,0.048068638890981674
1696962071134028500,7.406028564453125,-0.023568280041217804,-0.02343512699007988,0.013981183059513569
1696962071144042000,7.4160419921875,-0.03209014609456062,-0.03408745676279068,-0.03928046673536301
1696962071154055400,7.426055419921875,-0.033155377954244614,0.009587096981704235,0.037416309118270874
1696962071164068900,7.43606884765625,-0.027829213067889214,-0.04154408723115921,0.00226362026296556
1696962071174082600,7.44608251953125,-0.03209014609456062,-0.00852186419069767,-0.03288906812667847
1696962071184096000,7.456095947265625,-0.033155377954244614,-0.02769605815410614,0.03954677656292915
1696962071194109400,7.466109375,-0.034220609813928604,0.0031956990715116262,-0.06910699605941772
1696962071204123000,7.476122802734375,-0.029959678649902344,0.02023942768573761,0.08109086751937866
1696962071214136300,7.48613623046875,-0.041677240282297134,-0.02023942768573761,-0.11597724258899689
1696962071224150000,7.49614990234375,-0.034220609813928604,0.05006595328450203,0.08002562820911407
1696962071234163500,7.50616357421875,-0.028894444927573204,-0.02023942768573761,-0.045671865344047546
1696962071244177000,7.516177001953125,-0.03848154470324516,0.04154408723115921,-0.037150003015995026
1696962071254190300,7.5261904296875,-0.03528584539890289,0.007456631399691105,0.04274247586727142
1696962071264203800,7.536203857421875,-0.027829213067889214,0.0319569893181324,-0.06804175674915314
1696962071274217500,7.546217529296875,-0.024633513763546944,-0.00852186419069767,0.067242830991745
1696962071284231000,7.55623095703125,-0.033155377954244614,-0.01704372838139534,-0.09680305421352386
1696962071294244400,7.566244384765625,-0.019307348877191544,0.01704372838139534,0.10239552706480026
1696962071304257800,7.5762578125,-0.020372580736875534,-0.02450035884976387,-0.06591129302978516
1696962071314271200,7.586271240234375,-0.027829213067889214,-0.02236989326775074,0.018242115154862404
1696962071324285000,7.596284912109375,-0.024633513763546944,0.03302222490310669,0.03209014609456062
1696962071334298400,7.60629833984375,-0.019307348877191544,-0.02236989326775074,-0.007323476951569319
1696962071344311800,7.616311767578125,-0.034220609813928604,0.02982652559876442,-0.012649642303586006
1696962071354325200,7.6263251953125,-0.025698747485876083,0.02769605815410614,0.057655736804008484
1696962071364338700,7.636338623046875,-0.022503048181533813,0.009587096981704235,-0.050998032093048096
1696962071374352100,7.64635205078125,-0.024633513763546944,0.02023942768573761,0.048068638890981674
1696962071384365800,7.65636572265625,-0.031024912372231483,0.004260932095348835,-0.045671865344047546
1696962071394379300,7.666379150390625,-0.017176883295178413,0.02663082629442215,0.05232957378029823
1696962071404392700,7.676392822265625,-0.024633513763546944,-0.01171756349503994,-0.044606633484363556
1696962071414406100,7.68640625,-0.023568280041217804,-0.012782796286046505,0.013981183059513569
1696962071424419600,7.696419677734375,-0.019307348877191544,-0.0010652330238372087,0.018242115154862404
1696962071434433300,7.706433349609375,-0.022503048181533813,0.02556559257209301,-0.033954303711652756
1696962071444446700,7.71644677734375,-0.024633513763546944,-0.01704372838139534,0.025698747485876083
1696962071454460200,7.726460205078125,-0.017176883295178413,-0.02343512699007988,-0.013714875094592571
1696962071464473600,7.7364736328125,-0.019307348877191544,0.03089175745844841,0.007589785382151604
1696962071474487000,7.746487060546875,-0.021437814459204674,-0.02982652559876442,-0.006258244160562754
1696962071484500700,7.756500732421875,-0.020372580736875534,-0.01491326279938221,-0.024367205798625946
1696962071494514200,7.76651416015625,-0.011850717477500439,0.009587096981704235,0.058720968663692474
1696962071504527600,7.776527587890625,-0.023568280041217804,-0.03728315606713295,-0.09893351793289185
1696962071514541000,7.786541015625,-0.020372580736875534,0.02450035884976387,0.08428656309843063
1696962071524554500,7.796554443359375,-0.016111649572849274,0.0063913981430232525,-0.060585130006074905
1696962071534568200,7.806568115234375,-0.018242115154862404,0.02236989326775074,0.018242115154862404
1696962071544581600,7.81658154296875,-0.018242115154862404,-0.01384802907705307,-0.005193010903894901
1696962071554595000,7.826594970703125,-0.013981183059513569,0.04367455467581749,-0.010519175790250301
1696962071564608500,7.8366083984375,-0.011850717477500439,-0.0031956990715116262,0.028894444927573204
1696962071574622000,7.8466220703125,-0.021437814459204674,0.0063913981430232525,-0.06910699605941772
1696962071584635600,7.8566357421875,-0.008655018173158169,0.04047885537147522,0.09280842542648315
1696962071594649000,7.866649169921875,-0.010785484686493874,-0.01384802907705307,-0.06804175674915314
1696962071604662500,7.87666259765625,-0.023568280041217804,0.04473978653550148,0.005459319334477186
1696962071614676000,7.886676025390625,-0.008655018173158169,0.02023942768573761,0.047003407031297684
1696962071624689400,7.896689453125,-0.007589785382151604,0.0063913981430232525,-0.052063263952732086
1696962071634702800,7.906702880859375,-0.018242115154862404,0.01491326279938221,0.013981183059513569
1696962071644716300,7.91671630859375,-0.012915950268507004,0.0213046595454216,-0.006258244160562754
1696962071654729700,7.926729736328125,-0.007589785382151604,0.00852186419069767,0.0033288532868027687
1696962071664743200,7.9367431640625,-0.015046416781842709,0.01704372838139534,-0.021171506494283676
1696962071674756600,7.946756591796875,-0.010785484686493874,-0.004260932095348835,-0.007323476951569319
1696962071684770000,7.95677001953125,-0.006524552125483751,0.01384802907705307,0.017176883295178413
1696962071694783500,7.966783447265625,-0.012915950268507004,-0.0213046595454216,-0.054193731397390366
1696962071704797000,7.976796875,-0.009720250964164734,-0.004260932095348835,0.010785484686493874
1696962071714810400,7.986810302734375,-0.0033288532868027687,-0.02663082629442215,0.004394086077809334
1696962071724823800,7.99682373046875,-0.013981183059513569,0,-0.041410934180021286
1696962071734837200,8.006837158203124,-0.008655018173158169,-0.0031956990715116262,0.021437814459204674
1696962071744850700,8.0168505859375,-0.008655018173158169,-0.01917419396340847,-0.014780107885599136
1696962071754864000,8.026864013671876,-0.006524552125483751,0.0213046595454216,-0.013714875094592571
1696962071764877600,8.036877685546875,-0.010785484686493874,-0.02876129187643528,-0.008388710208237171
1696962071774891000,8.04689111328125,-0.009720250964164734,-0.01917419396340847,-0.011584409512579441
1696962071784904400,8.056904541015625,-0.005459319334477186,0.03302222490310669,0.017176883295178413
1696962071794918000,8.06691796875,-0.007589785382151604,-0.04473978653550148,-0.024367205798625946
1696962071804931300,8.076931396484374,-0.010785484686493874,-0.0063913981430232525,-0.029693370684981346
1696962071814944800,8.08694482421875,0.001997311832383275,0.012782796286046505,0.07256899774074554
1696962071824958200,8.096958251953126,-0.011850717477500439,-0.012782796286046505,-0.12236864119768143
1696962071834971600,8.1069716796875,-0.004394086077809334,0.0053261648863554,0.09387365728616714
1696962071844985000,8.116985107421876,0.004127778112888336,-0.02023942768573761,-0.04673709720373154
1696962071854998500,8.12699853515625,-0.00226362026296556,-0.009587096981704235,-0.012649642303586006
1696962071865012000,8.137011962890625,-0.0011983871227130294,-0.009587096981704235,0.012915950268507004
1696962071875025400,8.147025390625,0.011584409512579441,-0.05858781561255455,0.0033288532868027687
1696962071885038800,8.157038818359375,-0.0033288532868027687,0.0021304660476744175,-0.03928046673536301
1696962071895052300,8.16705224609375,-0.00226362026296556,0.0053261648863554,0.029959678649902344
1696962071905065700,8.177065673828125,-0.0001331541279796511,-0.01384802907705307,-0.021171506494283676
1696962071915079200,8.1870791015625,0.004127778112888336,0.012782796286046505,0.024633513763546944
1696962071925092600,8.197092529296874,-0.010785484686493874,-0.01384802907705307,-0.054193731397390366
1696962071935106000,8.20710595703125,0.001997311832383275,0.02663082629442215,0.048068638890981674
1696962071945119500,8.217119384765626,-0.0011983871227130294,-0.01384802907705307,-0.014780107885599136
1696962071955133000,8.2271328125,-0.009720250964164734,0.02343512699007988,-0.04673709720373154
1696962071965146400,8.237146484375,-0.0001331541279796511,-0.0053261648863554,0.07150376588106155
1696962071975159800,8.247159912109375,-0.0011983871227130294,0.0053261648863554,-0.061650361865758896
1696962071985173500,8.257173583984375,-0.009720250964164734,0.03941362351179123,0.004394086077809334
1696962071995187000,8.26718701171875,0.0030625448562204838,-0.05006595328450203,0.028894444927573204
1696962072005200400,8.277200439453125,-0.006524552125483751,0.03834838792681694,-0.052063263952732086
1696962072015213800,8.2872138671875,-0.007589785382151604,0.05006595328450203,0.050199106335639954
1696962072025227300,8.297227294921875,-0.005459319334477186,-0.03941362351179123,-0.054193731397390366
1696962072035241000,8.307240966796876,-0.00226362026296556,0.02556559257209301,0.050199106335639954
1696962072045254400,8.31725439453125,-0.004394086077809334,-0.0010652330238372087,-0.04673709720373154
1696962072055267800,8.327267822265625,-0.004394086077809334,-0.03089175745844841,0.018242115154862404
1696962072065281300,8.33728125,0.0009320789249613881,-0.03408745676279068,0.012915950268507004
1696962072075294700,8.347294677734375,-0.006524552125483751,-0.007456631399691105,-0.037150003015995026
1696962072085308400,8.357308349609376,0.001997311832383275,-0.04687025398015976,0.011850717477500439
1696962072095321900,8.36732177734375,0.004127778112888336,-0.04900071769952774,0.015046416781842709
1696962072105335300,8.377335205078126,-0.006524552125483751,0.0021304660476744175,-0.019041040912270546
1696962072115348700,8.3873486328125,-0.005459319334477186,0.004260932095348835,-0.006258244160562754
1696962072125362200,8.397362060546875,0.006258244160562754,-0.00852186419069767,0.06511236727237701
1696962072135376000,8.4073759765625,-0.004394086077809334,-0.01384802907705307,-0.08615072071552277
1696962072145389300,8.417389404296875,-0.006524552125483751,0.04154408723115921,0.07150376588106155
1696962072155402800,8.42740283203125,0.0030625448562204838,0.0159784946590662,-0.014780107885599136
1696962072165416200,8.437416259765625,-0.00226362026296556,0.004260932095348835,-0.0030625448562204838
1696962072175429600,8.4474296875,-0.010785484686493874,0.0213046595454216,0.019307348877191544
1696962072185443000,8.457443115234375,0.0030625448562204838,0.0063913981430232525,-0.014780107885599136
1696962072195457000,8.46745703125,0.001997311832383275,0.00852186419069767,0.03528584539890289
1696962072205470700,8.477470703125,-0.008655018173158169,-0.0063913981430232525,-0.05312849581241608
1696962072215484400,8.487484375,0.0009320789249613881,0.04047885537147522,0.048068638890981674
1696962072225497900,8.497497802734374,0.005193010903894901,-0.02982652559876442,-0.017975807189941406
1696962072235511300,8.50751123046875,-0.006524552125483751,-0.0159784946590662,-0.035019535571336746
1696962072245524700,8.517524658203126,0.0030625448562204838,-0.0031956990715116262,0.033155377954244614
1696962072255538200,8.5275380859375,0.0030625448562204838,-0.0319569893181324,-0.029693370684981346
1696962072265551600,8.537551513671875,-0.0033288532868027687,-0.02023942768573761,-0.03288906812667847
1696962072275565000,8.54756494140625,0.0030625448562204838,-0.04687025398015976,0.036351077258586884
1696962072285578500,8.55757861328125,-0.00226362026296556,-0.02663082629442215,-0.06804175674915314
1696962072295592000,8.567592041015626,-0.004394086077809334,0.00852186419069767,0.017176883295178413
1696962072305605400,8.57760546875,-0.0011983871227130294,-0.0639139786362648,-0.023301972076296806
1696962072315618800,8.587618896484376,-0.0011983871227130294,-0.01917419396340847,-0.038215234875679016
1696962072325632300,8.59763232421875,-0.004394086077809334,0.004260932095348835,0.006524552125483751
1696962072335645700,8.607645751953125,0.0009320789249613881,-0.08095771074295044,-0.07336792349815369
1696962072345659100,8.6176591796875,-0.00226362026296556,0.0053261648863554,0.028894444927573204
1696962072355672600,8.627672607421875,-0.004394086077809334,-0.03941362351179123,-0.07549838721752167
1696962072365686000,8.63768603515625,-0.0001331541279796511,-0.02663082629442215,0.00226362026296556
1696962072375699500,8.647699462890625,0.0009320789249613881,-0.01171756349503994,-0.016910573467612267
1696962072385713000,8.657712890625,-0.011850717477500439,0.0213046595454216,-0.06484606117010117
1696962072395726300,8.667726318359374,-0.0001331541279796511,-0.0010652330238372087,0.03954677656292915
1696962072405739800,8.67773974609375,0.001997311832383275,0.01810896210372448,-0.031823836266994476
1696962072415753200,8.687753173828124,-0.0033288532868027687,-0.02023942768573761,-0.030758604407310486
1696962072425766700,8.6977666015625,-0.0001331541279796511,0.0213046595454216,-0.005193010903894901
1696962072435780000,8.707780029296876,0.010519175790250301,-0.004260932095348835,0.028894444927573204
1696962072445793500,8.71779345703125,-0.0001331541279796511,-0.05965305119752884,-0.08615072071552277
1696962072455807000,8.727806884765625,0.006258244160562754,-0.01384802907705307,0.060851436108350754
1696962072465820400,8.7378203125,0.014780107885599136,-0.06071828305721283,-0.029693370684981346
1696962072475833900,8.747833740234375,-0.0001331541279796511,-0.05858781561255455,-0.048867564648389816
1696962072485847300,8.757847412109374,0.010519175790250301,-0.04793548583984375,0.05232957378029823
1696962072495860700,8.76786083984375,0.006258244160562754,-0.03089175745844841,-0.055258963257074356
1696962072505874200,8.777874267578126,-0.005459319334477186,-0.02663082629442215,-0.005193010903894901
1696962072515887600,8.7878876953125,-0.0001331541279796511,0.0106523297727108,0.009720250964164734
1696962072525901000,8.797901123046875,0.0030625448562204838,-0.0010652330238372087,0.0033288532868027687
1696962072535914500,8.80791455078125,-0.007589785382151604,0.012782796286046505,-0.027562905102968216
1696962072545928000,8.817927978515625,-0.0011983871227130294,-0.02343512699007988,0.036351077258586884
1696962072555941400,8.82794140625,0.005193010903894901,0.004260932095348835,-0.019041040912270546
1696962072565954800,8.837954833984375,-0.005459319334477186,0.00852186419069767,0.024633513763546944
1696962072575968300,8.84796826171875,-0.0001331541279796511,-0.04154408723115921,0.0001331541279796511
1696962072585981700,8.857981689453124,0.005193010903894901,-0.0213046595454216,0.057655736804008484
1696962072595995100,8.8679951171875,-0.009720250964164734,0.0159784946590662,-0.058454662561416626
1696962072606008600,8.878008544921874,0.008388710208237171,-0.04900071769952774,0.10133028775453568
1696962072616022000,8.88802197265625,0.008388710208237171,-0.06071828305721283,-0.038215234875679016
1696962072626035500,8.898035400390626,-0.010785484686493874,0.0426093190908432,0.03209014609456062
1696962072636049200,8.908049072265625,0.005193010903894901,-0.05113118514418602,0.027829213067889214
1696962072646062600,8.9180625,0.005193010903894901,-0.05752258375287056,0.006524552125483751
1696962072656076000,8.928075927734374,-0.006524552125483751,0.01384802907705307,-0.010519175790250301
1696962072666089500,8.93808935546875,-0.0001331541279796511,-0.0031956990715116262,0.040612008422613144
1696962072676103000,8.94810302734375,-0.0001331541279796511,-0.004260932095348835,0.0011983871227130294
1696962072686116400,8.958116455078125,-0.005459319334477186,0.0213046595454216,-0.004127778112888336
1696962072696130000,8.968130126953126,0.004127778112888336,0.0031956990715116262,0.041677240282297134
1696962072706143500,8.9781435546875,0.0030625448562204838,-0.03515268862247467,-0.0030625448562204838
1696962072716157000,8.988156982421875,-0.007589785382151604,0.0426093190908432,0.005459319334477186
1696962072726170400,8.99817041015625,0.011584409512579441,-0.05539211630821228,0.066177599132061
1696962072736183800,9.008183837890625,0.0030625448562204838,0.0031956990715116262,-0.013714875094592571
1696962072746197500,9.018197509765624,-0.007589785382151604,0.02236989326775074,0.05659050494432449
1696962072756211000,9.0282109375,0.005193010903894901,-0.04367455467581749,0.008655018173158169
1696962072766224400,9.038224365234376,0.005193010903894901,0.0159784946590662,0.061916667968034744
1696962072776237800,9.04823779296875,-0.013981183059513569,0.009587096981704235,-0.031823836266994476
1696962072786251300,9.058251220703125,0.005193010903894901,-0.0063913981430232525,0.057655736804008484
1696962072796265000,9.068264892578124,0.0030625448562204838,0.03089175745844841,0.053394805639982224
1696962072806278400,9.0782783203125,-0.016111649572849274,0.0106523297727108,-0.07443315535783768
1696962072816291800,9.088291748046874,0.009453942999243736,-0.02982652559876442,0.16843996942043304
1696962072826305300,9.09830517578125,-0.009720250964164734,0.02556559257209301,-0.09999874979257584
1696962072836318700,9.108318603515626,-0.00226362026296556,-0.03089175745844841,0.12156971544027328
1696962072846332400,9.11833251953125,0.010519175790250301,-0.07776200771331787,0.03954677656292915
1696962072856345900,9.128345947265625,-0.006524552125483751,0.0106523297727108,-0.008388710208237171
1696962072866359300,9.138359375,-0.0033288532868027687,-0.02982652559876442,0.10665645450353622
1696962072876372700,9.148372802734375,0.006258244160562754,-0.06604444980621338,0.03848154470324516
1696962072886386200,9.15838623046875,-0.009720250964164734,0.0106523297727108,0.015046416781842709
1696962072896400000,9.16839990234375,-0.0011983871227130294,-0.02450035884976387,0.0991998240351677
1696962072906413300,9.178413330078126,-0.0033288532868027687,-0.0213046595454216,0.016111649572849274
1696962072916426800,9.1884267578125,-0.013981183059513569,0.05645735189318657,0.041677240282297134
1696962072926440200,9.198440185546875,0.0009320789249613881,-0.03621792420744896,0.07469946891069412
1696962072936453600,9.20845361328125,-0.008655018173158169,0.02343512699007988,-0.024367205798625946
1696962072946467300,9.21846728515625,-0.015046416781842709,0.07243584841489792,0.09067796170711517
1696962072956480800,9.228480712890626,-0.0001331541279796511,-0.03834838792681694,-0.001997311832383275
1696962072966494200,9.238494140625,-0.007589785382151604,0.05113118514418602,0.024633513763546944
1696962072976507600,9.248507568359376,-0.005459319334477186,0.0319569893181324,0.026763979345560074
1696962072986521000,9.25852099609375,0.005193010903894901,-0.0063913981430232525,0.016111649572849274
1696962072996534500,9.268534423828125,-0.0011983871227130294,0.004260932095348835,0.008655018173158169
1696962073006548200,9.27854833984375,0.0009320789249613881,-0.0010652330238372087,0.0011983871227130294
1696962073016561700,9.288561767578125,0.014780107885599136,-0.02450035884976387,0.06830807030200958
1696962073026575000,9.2985751953125,-0.005459319334477186,0.0213046595454216,-0.0925421193242073
1696962073036588500,9.308588623046875,0.011584409512579441,-0.0159784946590662,0.1311568170785904
1696962073046602000,9.31860205078125,0.007323476951569319,-0.04473978653550148,-0.1031944528222084
1696962073056615700,9.32861572265625,-0.0033288532868027687,0.05858781561255455,0.08322133123874664
1696962073066629000,9.338629150390625,0.005193010903894901,-0.04154408723115921,-0.029693370684981346
1696962073076642600,9.348642578125,0.001997311832383275,0.007456631399691105,-0.012649642303586006
1696962073086656000,9.358656005859375,-0.005459319334477186,0.06924014538526535,0.034220609813928604
1696962073096669400,9.36866943359375,-0.0001331541279796511,-0.007456631399691105,-0.045671865344047546
1696962073106683100,9.37868310546875,-0.004394086077809334,0.02982652559876442,0.0011983871227130294
1696962073116696600,9.388696533203126,-0.0001331541279796511,0.0031956990715116262,-0.009453942999243736
1696962073126710000,9.3987099609375,0.001997311832383275,-0.0021304660476744175,-0.027562905102968216
1696962073136723500,9.408723388671875,-0.005459319334477186,0.02769605815410614,0.0033288532868027687
1696962073146737000,9.41873681640625,-0.0011983871227130294,-0.0010652330238372087,-0.045671865344047546
1696962073156750600,9.42875048828125,0.009453942999243736,-0.00852186419069767,0.019307348877191544
1696962073166764000,9.438763916015626,-0.007589785382151604,-0.0031956990715116262,-0.038215234875679016
1696962073176777500,9.448777587890625,-0.0011983871227130294,0.009587096981704235,-0.008388710208237171
1696962073186791000,9.458791015625,0.004127778112888336,-0.01491326279938221,0.00226362026296556
1696962073196804400,9.468804443359375,-0.009720250964164734,0.02023942768573761,-0.054193731397390366
1696962073206817800,9.47881787109375,0.001997311832383275,0.02876129187643528,0.029959678649902344
1696962073216831200,9.488831298828124,-0.004394086077809334,-0.01171756349503994,-0.05312849581241608
1696962073226844700,9.4988447265625,-0.007589785382151604,0.05113118514418602,-0.022236740216612816
1696962073236858000,9.508858154296876,0.001997311832383275,0.0010652330238372087,0.010785484686493874
1696962073246871600,9.51887158203125,-0.010785484686493874,0.04473978653550148,-0.06697652488946915
1696962073256885000,9.528885009765625,-0.008655018173158169,0.02556559257209301,0.0033288532868027687
1696962073266898400,9.5388984375,0.007323476951569319,0.0159784946590662,-0.022236740216612816
1696962073276911900,9.548911865234375,-0.0033288532868027687,0.007456631399691105,-0.035019535571336746
1696962073286925300,9.55892529296875,0.001997311832383275,-0.0053261648863554,-0.024367205798625946
1696962073296938800,9.568938720703125,0.004127778112888336,0.01704372838139534,0.018242115154862404
1696962073306952200,9.5789521484375,-0.005459319334477186,0.012782796286046505,-0.09147688746452332
1696962073316965600,9.588965576171875,0.006258244160562754,-0.0010652330238372087,0.07469946891069412
1696962073326979000,9.59897900390625,-0.00226362026296556,0.007456631399691105,-0.09041165560483932
1696962073336992500,9.608992431640624,-0.0033288532868027687,0.0319569893181324,0.011850717477500439
1696962073347006000,9.619005859375,0.004127778112888336,0.004260932095348835,0.00226362026296556
1696962073357019400,9.629019287109376,-0.008655018173158169,0.04900071769952774,-0.038215234875679016
1696962073367032800,9.63903271484375,-0.0011983871227130294,0.02450035884976387,-0.019041040912270546
1696962073377046300,9.64904638671875,0.009453942999243736,-0.02769605815410614,0.054460037499666214
1696962073387059700,9.659059814453125,-0.011850717477500439,0.01384802907705307,-0.13089050352573395
1696962073397073200,9.6690732421875,0.0030625448562204838,0.01704372838139534,0.10772168636322021
1696962073407086600,9.679086669921874,0.004127778112888336,-0.04047885537147522,-0.07656362652778625
1696962073417100000,9.68910009765625,-0.007589785382151604,-0.007456631399691105,-0.005193010903894901
1696962073427113500,9.699113525390626,0.006258244160562754,-0.0106523297727108,0.020372580736875534
1696962073437127000,9.709126953125,-0.0001331541279796511,-0.0213046595454216,-0.020106272771954536
1696962073447140000,9.71914013671875,-0.004394086077809334,0.0106523297727108,-0.03928046673536301
1696962073457153500,9.729153564453124,-0.0001331541279796511,0.01810896210372448,0.07043853402137756
1696962073467167000,9.7391669921875,-0.005459319334477186,-0.0159784946590662,-0.07975932210683823
1696962073477180400,9.749180419921874,-0.00226362026296556,0.004260932095348835,0.051264338195323944
1696962073487193900,9.75919384765625,-0.005459319334477186,0.03728315606713295,-0.022236740216612816
1696962073497207300,9.769207275390626,-0.007589785382151604,0.007456631399691105,-0.005193010903894901
1696962073507220700,9.779220703125,-0.0011983871227130294,0.012782796286046505,0.026763979345560074
1696962073517234200,9.789234130859375,-0.006524552125483751,0.007456631399691105,-0.037150003015995026
1696962073527247600,9.79924755859375,0.001997311832383275,-0.0053261648863554,0.033155377954244614
1696962073537261000,9.809260986328125,-0.0011983871227130294,-0.0063913981430232525,-0.017975807189941406
1696962073547274500,9.8192744140625,-0.0033288532868027687,0.04473978653550148,0.026763979345560074
1696962073557288000,9.829287841796875,0.0030625448562204838,-0.009587096981704235,-0.015845341607928276
1696962073567301400,9.83930126953125,0.0009320789249613881,-0.02556559257209301,0.03954677656292915
1696962073577314800,9.849314697265624,-0.012915950268507004,0.08947957307100296,-0.027562905102968216
1696962073587328300,9.859328369140625,0.007323476951569319,0,0.06830807030200958
1696962073597341700,9.869341796875,-0.00226362026296556,0,-0.031823836266994476
1696962073607355100,9.879355224609375,-0.006524552125483751,0.03408745676279068,0.040612008422613144
1696962073617368600,9.88936865234375,0.0009320789249613881,0.02876129187643528,0.010785484686493874
1696962073627382000,9.899382080078125,-0.0033288532868027687,0.02450035884976387,0.023568280041217804
1696962073637395500,9.9093955078125,-0.005459319334477186,0.012782796286046505,-0.0009320789249613881
1696962073647409000,9.919408935546874,-0.00226362026296556,0.01810896210372448,0.05232957378029823
1696962073657422300,9.92942236328125,-0.004394086077809334,0.01491326279938221,-0.050998032093048096
1696962073667435800,9.939435791015624,0.008388710208237171,-0.009587096981704235,0.10559122264385223
1696962073677449500,9.949449462890625,-0.006524552125483751,-0.0106523297727108,-0.06804175674915314
1696962073687463000,9.959462890625,-0.0011983871227130294,0.03302222490310669,0.06404713541269302
1696962073697476400,9.969476318359375,0.004127778112888336,-0.004260932095348835,-0.009453942999243736
1696962073707489800,9.97948974609375,-0.007589785382151604,0.01491326279938221,0.005459319334477186
1696962073717503200,9.989503173828124,0.0009320789249613881,-0.02343512699007988,0.007589785382151604
1696962073727517000,9.999516845703125,0.0030625448562204838,0.0106523297727108,-0.007323476951569319
1696962073737530400,10.0095302734375,-0.00226362026296556,0.0106523297727108,0.005459319334477186
1696962073747543800,10.019543701171875,-0.0001331541279796511,-0.0319569893181324,-0.009453942999243736
1696962073757557200,10.02955712890625,-0.006524552125483751,0.03515268862247467,0.010785484686493874
1696962073767570700,10.03957080078125,-0.0001331541279796511,-0.01171756349503994,-0.048867564648389816
1696962073777584400,10.04958447265625,0.0030625448562204838,0.00852186419069767,0.05659050494432449
1696962073787597800,10.059597900390624,-0.011850717477500439,0,-0.07975932210683823
1696962073797611300,10.069611328125,-0.0001331541279796511,0.04687025398015976,0.03528584539890289
1696962073807624700,10.079624755859374,0.001997311832383275,-0.007456631399691105,-0.011584409512579441
1696962073817638100,10.08963818359375,-0.012915950268507004,0.0426093190908432,-0.03928046673536301
1696962073827651800,10.09965185546875,0.0009320789249613881,0.01491326279938221,0.03954677656292915
1696962073837665300,10.109665283203125,-0.0001331541279796511,0.009587096981704235,-0.041410934180021286
1696962073847678700,10.1196787109375,-0.011850717477500439,0.04154408723115921,-0.006258244160562754
1696962073857692200,10.129692138671874,-0.0011983871227130294,0.0426093190908432,0.048068638890981674
1696962073867705600,10.13970556640625,-0.005459319334477186,0.01384802907705307,-0.044606633484363556
1696962073877719300,10.14971923828125,0.001997311832383275,0.01704372838139534,0.007589785382151604
1696962073887732700,10.159732666015625,0.0009320789249613881,0.01171756349503994,0.07043853402137756
1696962073897746200,10.16974609375,-0.006524552125483751,-0.0063913981430232525,-0.09786828607320786
1696962073907759600,10.179759521484375,0.006258244160562754,0.02023942768573761,0.11730878800153732
1696962073917773000,10.18977294921875,-0.0011983871227130294,-0.03408745676279068,-0.0723026916384697
1696962073927786800,10.199786865234374,0.0030625448562204838,-0.0426093190908432,0.023568280041217804
1696962073937800200,10.20980029296875,0.0009320789249613881,0.03621792420744896,0.040612008422613144
1696962073947813600,10.219813720703126,-0.0011983871227130294,-0.03302222490310669,-0.044606633484363556
1696962073957827000,10.2298271484375,-0.0011983871227130294,-0.00852186419069767,0.031024912372231483
1696962073967840500,10.239840576171876,0.001997311832383275,0.0010652330238372087,0.027829213067889214
1696962073977854000,10.24985400390625,-0.005459319334477186,-0.004260932095348835,-0.048867564648389816
1696962073987867600,10.25986767578125,0.001997311832383275,-0.0031956990715116262,0.07469946891069412
1696962073997881000,10.269881103515624,-0.008655018173158169,0.01810896210372448,-0.04673709720373154
1696962074007894500,10.27989453125,-0.0033288532868027687,-0.0063913981430232525,0.023568280041217804
1696962074017908000,10.289907958984376,-0.0001331541279796511,0.01171756349503994,0.023568280041217804
1696962074027921400,10.29992138671875,-0.008655018173158169,-0.009587096981704235,-0.013714875094592571
1696962074037935000,10.30993505859375,0.0030625448562204838,0,0.00226362026296556
1696962074047948500,10.319948486328125,-0.006524552125483751,-0.0010652330238372087,0.041677240282297134
1696962074057962000,10.3299619140625,-0.008655018173158169,0,-0.06271559745073318
1696962074067975400,10.339975341796874,-0.0011983871227130294,0.05006595328450203,0.08322133123874664
1696962074077988900,10.34998876953125,-0.008655018173158169,0.0053261648863554,-0.061650361865758896
1696962074088002600,10.36000244140625,-0.0011983871227130294,0.0031956990715116262,0.03528584539890289
1696962074098016000,10.37001611328125,-0.00226362026296556,0.02769605815410614,0.024633513763546944
1696962074108029400,10.380029541015626,-0.009720250964164734,0.03728315606713295,-0.052063263952732086
1696962074118043000,10.39004296875,0.004127778112888336,-0.00852186419069767,0.060851436108350754
1696962074128056300,10.400056396484375,-0.012915950268507004,0.04793548583984375,-0.035019535571336746
1696962074138069800,10.41006982421875,-0.005459319334477186,0.03302222490310669,0.012915950268507004
1696962074148083200,10.420083251953125,0.005193010903894901,0.0010652330238372087,0.037416309118270874
1696962074158096600,10.4300966796875,-0.010785484686493874,0.03728315606713295,-0.06697652488946915
1696962074168110000,10.440110107421875,-0.0011983871227130294,0.01491326279938221,0.08109086751937866
1696962074178123500,10.45012353515625,-0.00226362026296556,0.02023942768573761,-0.06591129302978516
1696962074188137000,10.460136962890624,-0.0033288532868027687,0.02982652559876442,0.053394805639982224
1696962074198150400,10.470150390625,0.0009320789249613881,-0.01810896210372448,-0.040345702320337296
1696962074208163800,10.480163818359374,-0.007589785382151604,0.04687025398015976,0.033155377954244614
1696962074218177300,10.49017724609375,-0.0033288532868027687,0.0021304660476744175,-0.047802332788705826
1696962074228190700,10.500190673828126,0.004127778112888336,0.00852186419069767,0.041677240282297134
1696962074238204200,10.5102041015625,-0.007589785382151604,0.0106523297727108,-0.011584409512579441
1696962074248217600,10.520217529296875,0.0030625448562204838,-0.0159784946590662,-0.024367205798625946
1696962074258231000,10.53023095703125,0.0009320789249613881,0.007456631399691105,0.05978620424866676
1696962074268244500,10.540244384765625,-0.0033288532868027687,-0.03515268862247467,-0.09147688746452332
1696962074278258000,10.5502578125,0.005193010903894901,0,0.10239552706480026
1696962074288271400,10.560271240234375,-0.0011983871227130294,-0.03408745676279068,-0.060585130006074905
1696962074298284800,10.570284912109376,-0.0001331541279796511,-0.01491326279938221,0.020372580736875534
1696962074308298200,10.58029833984375,0.004127778112888336,-0.02236989326775074,0.054460037499666214
1696962074318311700,10.590311767578125,-0.004394086077809334,-0.03515268862247467,-0.08615072071552277
1696962074328325000,10.6003251953125,-0.00226362026296556,0.007456631399691105,0.08002562820911407
1696962074338338600,10.610338623046875,-0.004394086077809334,-0.0021304660476744175,-0.033954303711652756
1696962074348352000,10.62035205078125,-0.0011983871227130294,-0.0106523297727108,-0.013714875094592571
1696962074358365400,10.630365478515625,-0.00226362026296556,-0.0010652330238372087,0.03954677656292915
1696962074368379000,10.64037890625,-0.009720250964164734,0.0319569893181324,-0.052063263952732086
1696962074378392300,10.650392333984374,-0.00226362026296556,0.03089175745844841,0.03954677656292915
1696962074388405800,10.66040576171875,-0.007589785382151604,0.02556559257209301,-0.035019535571336746
1696962074398419200,10.670419189453124,-0.011850717477500439,0.06924014538526535,0.012915950268507004
1696962074408432600,10.6804326171875,-0.0011983871227130294,0.02769605815410614,0.0033288532868027687
1696962074418446000,10.690446044921876,-0.011850717477500439,0.0213046595454216,-0.014780107885599136
1696962074428459500,10.70045947265625,-0.00226362026296556,0.03515268862247467,-0.010519175790250301
1696962074438473000,10.710472900390625,0.001997311832383275,0.02450035884976387,0.03209014609456062
1696962074448486400,10.720486328125,-0.00226362026296556,-0.03515268862247467,-0.044606633484363556
1696962074458499800,10.730499755859375,0.008388710208237171,0.0010652330238372087,0.05232957378029823
1696962074468513300,10.74051318359375,-0.006524552125483751,0.01810896210372448,-0.03608476743102074
1696962074478526700,10.750526611328125,0.004127778112888336,-0.03089175745844841,0.017176883295178413
1696962074488540200,10.7605400390625,0.001997311832383275,-0.009587096981704235,0.020372580736875534
1696962074498553600,10.7705537109375,-0.008655018173158169,0.03515268862247467,-0.033954303711652756
1696962074508567000,10.780567138671875,0.004127778112888336,-0.007456631399691105,0.06830807030200958
1696962074518580500,10.79058056640625,-0.004394086077809334,0.0063913981430232525,-0.04993279650807381
1696962074528594000,10.800593994140625,-0.007589785382151604,0.05006595328450203,0.043807707726955414
1696962074538607400,10.810607421875,0.0030625448562204838,-0.0106523297727108,-0.006258244160562754
1696962074548620800,10.820620849609375,-0.004394086077809334,0.0053261648863554,0.025698747485876083
1696962074558634200,10.83063427734375,-0.0001331541279796511,-0.007456631399691105,-0.004127778112888336
1696962074568647700,10.840647705078124,-0.0001331541279796511,-0.0063913981430232525,0.031024912372231483
1696962074578661000,10.8506611328125,-0.004394086077809334,-0.0063913981430232525,-0.017975807189941406
1696962074588674600,10.860674560546874,0.006258244160562754,-0.04687025398015976,0.027829213067889214
1696962074598688000,10.87068798828125,-0.007589785382151604,0,-0.0030625448562204838
1696962074608701400,10.880701416015626,-0.0033288532868027687,-0.01704372838139534,0.015046416781842709
1696962074618715000,10.89071484375,-0.00226362026296556,-0.0031956990715116262,-0.004127778112888336
1696962074628728300,10.900728271484375,-0.0033288532868027687,-0.01491326279938221,0.007589785382151604
1696962074638741800,10.91074169921875,-0.005459319334477186,0.004260932095348835,-0.011584409512579441
1696962074648755200,10.920755126953125,-0.006524552125483751,-0.0053261648863554,0.015046416781842709
1696962074658768600,10.9307685546875,-0.010785484686493874,0.03089175745844841,-0.029693370684981346
1696962074668782000,10.940781982421875,-0.008655018173158169,0.02450035884976387,0.051264338195323944
1696962074678795500,10.95079541015625,-0.018242115154862404,0.01810896210372448,-0.060585130006074905
1696962074688809000,10.96080908203125,-0.007589785382151604,0.02769605815410614,0.0555252730846405
1696962074698822400,10.970822509765625,-0.016111649572849274,0.0053261648863554,-0.03288906812667847
1696962074708836000,10.980836181640624,-0.011850717477500439,0.01491326279938221,0.015046416781842709
1696962074718849500,10.990849609375,-0.004394086077809334,-0.03089175745844841,0.034220609813928604
1696962074728863000,11.000863037109376,-0.017176883295178413,-0.0063913981430232525,-0.027562905102968216
1696962074738876400,11.01087646484375,-0.007589785382151604,0.004260932095348835,0.050199106335639954
1696962074748889900,11.020889892578126,-0.008655018173158169,-0.04900071769952774,-0.010519175790250301
1696962074758903600,11.030903564453125,-0.020372580736875534,0.02769605815410614,0.005459319334477186
1696962074768917000,11.0409169921875,-0.010785484686493874,-0.02556559257209301,0.04593817517161369
1696962074778930400,11.050930419921874,-0.020372580736875534,0.01917419396340847,-0.022236740216612816
1696962074788944000,11.06094384765625,-0.020372580736875534,0.012782796286046505,0.027829213067889214
1696962074798957300,11.070957275390626,-0.013981183059513569,0.007456631399691105,0.013981183059513569
1696962074808971000,11.080970947265625,-0.016111649572849274,-0.03834838792681694,-0.008388710208237171
1696962074818984400,11.090984375,-0.015046416781842709,-0.03941362351179123,-0.0030625448562204838
1696962074828998000,11.100997802734375,-0.016111649572849274,-0.0031956990715116262,0.058720968663692474
1696962074839011300,11.11101123046875,-0.018242115154862404,-0.06284874677658081,-0.06910699605941772
1696962074849024800,11.121024658203124,-0.015046416781842709,-0.02023942768573761,0.0555252730846405
1696962074859038500,11.13103857421875,-0.019307348877191544,-0.02769605815410614,-0.021171506494283676
1696962074869052000,11.141052001953126,-0.018242115154862404,-0.04687025398015976,-0.027562905102968216
1696962074879065300,11.1510654296875,-0.023568280041217804,0.0031956990715116262,0.044872939586639404
1696962074889078800,11.161078857421876,-0.027829213067889214,0.0010652330238372087,-0.060585130006074905
1696962074899092200,11.17109228515625,-0.021437814459204674,0.007456631399691105,0.036351077258586884
1696962074909106000,11.18110595703125,-0.031024912372231483,0.02769605815410614,-0.028628136962652206
1696962074919119400,11.191119384765624,-0.028894444927573204,0.02343512699007988,-0.001997311832383275
1696962074929132800,11.2011328125,-0.023568280041217804,-0.0159784946590662,-0.015845341607928276
1696962074939146200,11.211146240234376,-0.03848154470324516,0.07776200771331787,0.010785484686493874
1696962074949159700,11.22115966796875,-0.025698747485876083,-0.0010652330238372087,-0.012649642303586006
1696962074959173000,11.231173095703125,-0.023568280041217804,-0.03089175745844841,-0.007323476951569319
1696962074969186800,11.241186767578125,-0.033155377954244614,0.02876129187643528,-0.012649642303586006
1696962074979200300,11.2512001953125,-0.017176883295178413,-0.03941362351179123,0.03528584539890289
1696962074989213700,11.261213623046874,-0.03209014609456062,-0.007456631399691105,-0.03608476743102074
1696962074999227100,11.27122705078125,-0.024633513763546944,-0.0159784946590662,0.03848154470324516
1696962075009240600,11.281240478515626,-0.025698747485876083,-0.02236989326775074,-0.006258244160562754
1696962075019254300,11.291254150390625,-0.026763979345560074,-0.0031956990715116262,-0.009453942999243736
1696962075029267700,11.301267822265626,-0.024633513763546944,-0.02343512699007988,0.025698747485876083
1696962075039281200,11.31128125,-0.033155377954244614,0.0031956990715116262,-0.022236740216612816
1696962075049294600,11.321294677734375,-0.027829213067889214,0.0159784946590662,0.018242115154862404
1696962075059308000,11.33130810546875,-0.03209014609456062,0.007456631399691105,-0.001997311832383275
1696962075069321700,11.34132177734375,-0.03528584539890289,0.02663082629442215,-0.017975807189941406
1696962075079335200,11.351335205078126,-0.022503048181533813,-0.03089175745844841,0.004394086077809334
1696962075089348600,11.3613486328125,-0.03209014609456062,-0.0063913981430232525,-0.021171506494283676
1696962075099362000,11.371362060546875,-0.024633513763546944,-0.01917419396340847,0.006524552125483751
1696962075109375500,11.38137548828125,-0.024633513763546944,-0.05965305119752884,-0.007323476951569319
1696962075119389000,11.391388916015625,-0.027829213067889214,-0.0159784946590662,-0.023301972076296806
1696962075129402400,11.40140234375,-0.019307348877191544,-0.05645735189318657,0.037416309118270874
1696962075139415800,11.411415771484375,-0.029959678649902344,-0.03302222490310669,-0.03288906812667847
1696962075149429200,11.42142919921875,-0.027829213067889214,-0.01704372838139534,0.016111649572849274
1696962075159442700,11.431442626953125,-0.022503048181533813,-0.03834838792681694,0.033155377954244614
1696962075169456000,11.4414560546875,-0.03528584539890289,-0.012782796286046505,-0.041410934180021286
1696962075179469600,11.451469482421874,-0.022503048181533813,-0.01491326279938221,0.06511236727237701
1696962075189483000,11.46148291015625,-0.033155377954244614,-0.02023942768573761,-0.025432437658309937
1696962075199496400,11.471496337890626,-0.037416309118270874,0.0319569893181324,0.015046416781842709
1696962075209510000,11.481510009765625,-0.03209014609456062,0.02236989326775074,0.025698747485876083
1696962075219523300,11.4915234375,-0.03528584539890289,-0.0031956990715116262,-0.007323476951569319
1696962075229536800,11.501536865234375,-0.03209014609456062,0.02876129187643528,-0.0009320789249613881
1696962075239550200,11.51155029296875,-0.036351077258586884,0.02982652559876442,0.024633513763546944
1696962075249563600,11.521563720703124,-0.031024912372231483,-0.007456631399691105,-0.029693370684981346
1696962075259577000,11.5315771484375,-0.034220609813928604,0.03834838792681694,0.023568280041217804
1696962075269590500,11.541590576171876,-0.031024912372231483,-0.02556559257209301,0.00226362026296556
1696962075279604000,11.55160400390625,-0.026763979345560074,-0.02876129187643528,-0.042476166039705276
1696962075289617400,11.561617431640625,-0.022503048181533813,0.0053261648863554,0.0555252730846405
1696962075299630800,11.571630859375,-0.029959678649902344,-0.03834838792681694,-0.08082455396652222
1696962075309644300,11.581644287109375,-0.019307348877191544,-0.0319569893181324,0.061916667968034744
1696962075319657700,11.59165771484375,-0.033155377954244614,-0.02343512699007988,-0.04993279650807381
1696962075329671200,11.601671142578125,-0.025698747485876083,0.0010652330238372087,-0.015845341607928276
1696962075339684600,11.6116845703125,-0.021437814459204674,-0.04047885537147522,0.051264338195323944
1696962075349698000,11.621697998046875,-0.03209014609456062,-0.03089175745844841,-0.12130340933799744
1696962075359711500,11.63171142578125,-0.017176883295178413,-0.01810896210372448,0.11837401986122131
1696962075369725000,11.641724853515624,-0.033155377954244614,-0.02663082629442215,-0.0936073511838913
1696962075379738400,11.65173828125,-0.024633513763546944,-0.03515268862247467,0.034220609813928604
1696962075389751800,11.661751708984376,-0.022503048181533813,-0.03408745676279068,0.016111649572849274
1696962075399765200,11.67176513671875,-0.037416309118270874,-0.0106523297727108,-0.06804175674915314
1696962075409778700,11.68177880859375,-0.017176883295178413,-0.03515268862247467,0.0991998240351677
1696962075419792100,11.691792236328125,-0.033155377954244614,-0.0426093190908432,-0.0712374597787857
1696962075429805600,11.7018056640625,-0.023568280041217804,-0.02023942768573761,0.044872939586639404
1696962075439819000,11.711819091796874,-0.025698747485876083,-0.03941362351179123,0.034220609813928604
1696962075449832400,11.72183251953125,-0.033155377954244614,-0.0031956990715116262,-0.042476166039705276
1696962075459846000,11.731845947265626,-0.027829213067889214,-0.02023942768573761,0.07150376588106155
1696962075469859300,11.741859375,-0.04274247586727142,0.04047885537147522,-0.021171506494283676
1696962075479872800,11.751872802734376,-0.031024912372231483,0.007456631399691105,0.031024912372231483
1696962075489886200,11.76188623046875,-0.029959678649902344,-0.012782796286046505,0.011850717477500439
1696962075499899600,11.771899658203125,-0.03954677656292915,0.03834838792681694,-0.007323476951569319
1696962075509913000,11.7819130859375,-0.031024912372231483,-0.0063913981430232525,0.015046416781842709
1696962075519926500,11.791926513671875,-0.033155377954244614,0.0106523297727108,0.020372580736875534
1696962075529940000,11.80193994140625,-0.027829213067889214,-0.02236989326775074,-0.029693370684981346
1696962075539953400,11.811953369140625,-0.029959678649902344,0.00852186419069767,0.04593817517161369
1696962075549966800,11.821966796875,-0.03209014609456062,-0.0010652330238372087,-0.027562905102968216
1696962075559980300,11.831980224609374,-0.026763979345560074,-0.02236989326775074,-0.022236740216612816
1696962075569993700,11.84199365234375,-0.027829213067889214,-0.009587096981704235,0.043807707726955414
1696962075580007200,11.852007080078126,-0.031024912372231483,0.0031956990715116262,-0.06591129302978516
1696962075590020600,11.8620205078125,-0.027829213067889214,0,0.041677240282297134
1696962075600034000,11.872033935546876,-0.027829213067889214,-0.01491326279938221,-0.03608476743102074
1696962075610047500,11.882047607421875,-0.027829213067889214,-0.012782796286046505,-0.017975807189941406
1696962075620061000,11.89206103515625,-0.029959678649902344,0.01810896210372448,0.021437814459204674
1696962075630074400,11.902074462890624,-0.018242115154862404,-0.06710968166589737,-0.029693370684981346
1696962075640087800,11.912087890625,-0.026763979345560074,-0.04154408723115921,0.004394086077809334
1696962075650101200,11.922101318359376,-0.020372580736875534,-0.04900071769952774,0.00226362026296556
1696962075660114700,11.93211474609375,-0.019307348877191544,-0.07243584841489792,0.007589785382151604
1696962075670128000,11.942128173828126,-0.027829213067889214,-0.02450035884976387,-0.006258244160562754
1696962075680141600,11.9521416015625,-0.022503048181533813,-0.04154408723115921,0.018242115154862404
1696962075690155000,11.962155029296875,-0.025698747485876083,-0.0106523297727108,0.019307348877191544
1696962075700168400,11.97216845703125,-0.027829213067889214,-0.03302222490310669,-0.014780107885599136
1696962075710182000,11.982181884765625,-0.029959678649902344,0.0031956990715116262,0.033155377954244614
1696962075720195300,11.9921953125,-0.03209014609456062,-0.0053261648863554,0.017176883295178413
1696962075730208800,12.002208740234375,-0.03209014609456062,0.0106523297727108,-0.022236740216612816
1696962075740222500,12.012222412109375,-0.034220609813928604,0.01704372838139534,0.08109086751937866
1696962075750236000,12.02223583984375,-0.031024912372231483,-0.02236989326775074,-0.06910699605941772
1696962075760249300,12.032249267578125,-0.031024912372231483,0.05113118514418602,0.07896039634943008
1696962075770262800,12.0422626953125,-0.027829213067889214,-0.04367455467581749,-0.029693370684981346
1696962075780276200,12.052276123046875,-0.029959678649902344,0.01704372838139534,0.013981183059513569
