time,seconds_elapsed,z,y,x
1696958164522398700,0.206398681640625,7.048194408416748,-0.2805406451225281,0.41421759128570557
1696958164532414000,0.2164140625,1.773303508758545,-0.21397453546524048,0.07181459665298462
1696958164542431500,0.226431396484375,2.3086628913879395,0.4096980690956116,-0.5584689974784851
1696958164552450800,0.236450927734375,2.9467129707336426,-0.5150503516197205,0.4455453157424927
1696958164562471400,0.246471435546875,0.8937067985534668,0.7414346933364868,0.2491014003753662
1696958164572493600,0.25649365234375,4.557747840881348,0.5504457354545593,-0.34880930185317993
1696958164582516200,0.26651611328125,-0.2488384246826172,-0.6501264572143555,-0.20001396536827087
1696958164592539400,0.276539306640625,4.8733134269714355,-0.15710723400115967,0.4173490107059479
1696958164602562300,0.286562255859375,-0.5129213333129883,0.022621870040893555,-0.7387952208518982
1696958164612575500,0.296575439453125,0.1121983528137207,0.4493585228919983,-0.08411601185798645
1696958164622588700,0.306588623046875,4.3956298828125,0.16970223188400269,0.6742238998413086
1696958164632602000,0.31660205078125,0.3387470245361328,-0.2572440505027771,-0.4113650619983673
1696958164642615300,0.326615234375,1.3122930526733398,0.08872854709625244,0.04026705026626587
1696958164652628700,0.336628662109375,2.775273323059082,-0.18547183275222778,-0.6378706097602844
1696958164662642000,0.346641845703125,-0.9337186813354492,-0.28607499599456787,-0.43644124269485474
1696958164672655000,0.356655029296875,0.7806549072265625,-0.21914511919021606,-0.06622424721717834
1696958164682668500,0.36666845703125,3.292506217956543,0.338966965675354,0.017859339714050293
1696958164692681700,0.376681640625,-0.45487260818481445,-0.6565468311309814,-0.26369616389274597
1696958164702695000,0.38669482421875,1.0609397888183594,0.11148613691329956,0.2008587121963501
1696958164712708400,0.396708251953125,1.8268604278564453,0.07027262449264526,0.26908811926841736
1696958164722721500,0.406721435546875,0.5192146301269531,-0.8232452273368835,-0.7264360189437866
1696958164732735000,0.41673486328125,0.3535881042480469,-0.3684665262699127,-1.1605249643325806
1696958164742748200,0.426748046875,1.7749147415161133,-0.3461456000804901,-0.028998225927352905
1696958164752761300,0.43676123046875,2.5872554779052734,0.3303256034851074,0.19780156016349792
1696958164762774800,0.44677490234375,2.3092527389526367,-0.4912642240524292,-0.5952679514884949
1696958164772788000,0.4567880859375,-0.7719650268554688,-0.4263859689235687,0.4847745895385742
1696958164782801200,0.46680126953125,4.955986976623535,-0.9129489660263062,0.5980844497680664
1696958164792814600,0.476814697265625,-1.0923099517822266,0.31585758924484253,-0.18675442039966583
1696958164802827800,0.486827880859375,2.5868539810180664,-0.1786487102508545,-0.30243349075317383
1696958164812841200,0.49684130859375,1.4321231842041016,-0.0377347469329834,0.46189746260643005
1696958164822854400,0.5068544921875,2.4362659454345703,-0.34841135144233704,-0.18379922211170197
1696958164832867600,0.51686767578125,-1.19795560836792,-0.04355323314666748,0.06552764773368835
1696958164842881000,0.526881103515625,2.5469493865966797,-0.38436147570610046,0.4779784679412842
1696958164852894200,0.536894287109375,1.228445053100586,-0.2922230064868927,0.1071898341178894
1696958164862907600,0.54690771484375,0.0766000747680664,-0.2637406885623932,-0.4856545329093933
1696958164872920800,0.5569208984375,1.577742576599121,-0.3149966895580292,-0.0683298408985138
1696958164882934000,0.56693408203125,-0.6589336395263672,-0.5057940483093262,0.0028602182865142822
1696958164892947500,0.576947509765625,1.9142990112304688,0.14327961206436157,0.05546799302101135
1696958164902960600,0.586960693359375,-1.403989315032959,-0.6921062469482422,-0.6604982614517212
1696958164912973800,0.596973876953125,0.9753580093383789,-0.16705277562141418,-0.2603117823600769
1696958164922987300,0.6069873046875,0.2236614227294922,-0.8726550936698914,-0.6727988719940186
1696958164933000400,0.61700048828125,-2.0345940589904785,0.007666110992431641,-0.578521728515625
1696958164943014000,0.627013916015625,2.965451240539551,-0.07252472639083862,-0.10486914217472076
1696958164953027000,0.637027099609375,-1.2216739654541016,-0.660452127456665,-0.5645170211791992
1696958164963040300,0.647040283203125,-1.7673649787902832,-0.3300512433052063,0.22903546690940857
1696958164973053700,0.6570537109375,3.4283266067504883,-0.5334295630455017,0.11536699533462524
1696958164983067000,0.66706689453125,-0.23221874237060547,-0.8140954971313477,0.028026849031448364
1696958164993080000,0.677080078125,-1.9031667709350586,0.06809574365615845,0.41386091709136963
1696958165003093500,0.687093505859375,4.234704971313477,0.015960097312927246,0.3606143593788147
1696958165013107000,0.69710693359375,-1.6905193328857422,-0.5946060419082642,-0.2287910282611847
1696958165023120100,0.7071201171875,0.14162349700927734,-0.84332275390625,-0.11837774515151978
1696958165033133600,0.717133544921875,1.8211708068847656,-1.1116724014282227,0.06408149003982544
1696958165043146800,0.727146728515625,0.22202587127685547,0.314810574054718,0.2750610411167145
1696958165053160200,0.73716015625,0.5153427124023438,-1.092337727546692,-0.16256970167160034
1696958165063173600,0.747173583984375,-0.8225746154785156,-0.11312606930732727,0.6333379149436951
1696958165073186800,0.757186767578125,3.5337162017822266,-1.1870403289794922,0.9802732467651367
1696958165083200300,0.7672001953125,-1.3842277526855469,0.010141551494598389,0.07674521207809448
1696958165093213400,0.77721337890625,1.6703519821166992,-1.3822704553604126,0.03063371777534485
1696958165103227000,0.787226806640625,-0.24702835083007812,-0.8218474388122559,0.0563184916973114
1696958165113240000,0.797239990234375,2.1969594955444336,-0.6647398471832275,0.32417210936546326
1696958165123253500,0.80725341796875,-0.18150997161865234,-1.201385736465454,-0.7661476135253906
1696958165133267000,0.817266845703125,-0.15537643432617188,-0.5147402286529541,0.25769898295402527
1696958165143280000,0.827280029296875,3.4036664962768555,-1.2738698720932007,0.5178850889205933
1696958165153293600,0.83729345703125,-2.520750045776367,0.13899758458137512,-0.1762254387140274
1696958165163306800,0.847306640625,2.8058643341064453,-1.262626051902771,-0.39755985140800476
1696958165173320200,0.8573203125,-0.11946868896484375,-0.34562814235687256,-0.33578014373779297
1696958165183333600,0.867333740234375,0.3310699462890625,-1.4163001775741577,-0.7988293170928955
1696958165193346800,0.877346923828125,-0.5809478759765625,0.004161268472671509,0.22777536511421204
1696958165203360300,0.8873603515625,3.271068572998047,-0.3684961795806885,0.5260859727859497
1696958165213373400,0.89737353515625,-1.112523078918457,-0.9735771417617798,-0.21100535988807678
1696958165223387000,0.907386962890625,-0.5876560211181641,-0.7481720447540283,0.19658362865447998
1696958165233400000,0.917400146484375,2.7314414978027344,-1.1626863479614258,0.20125162601470947
1696958165243413500,0.92741357421875,-2.3180460929870605,-1.0928268432617188,-0.4274108409881592
1696958165253427000,0.937427001953125,2.7076339721679688,-0.753722071647644,-0.7763563394546509
1696958165263440100,0.947440185546875,-0.5670862197875977,-1.2709242105484009,0.8287486433982849
1696958165273453600,0.95745361328125,2.6207094192504883,-0.18434633314609528,0.5487751960754395
1696958165283466800,0.967466796875,0.33129119873046875,-1.056527853012085,0.009843826293945312
1696958165293480200,0.977480224609375,-1.907588005065918,-0.6347817182540894,-0.08502161502838135
1696958165303493600,0.98749365234375,4.768035888671875,-1.90067458152771,-0.12088041007518768
1696958165313506800,0.9975068359375,-4.886826515197754,0.0009623616933822632,-0.341100811958313
1696958165323520300,1.007520263671875,4.798382759094238,-1.1738752126693726,-0.29471415281295776
1696958165333533400,1.017533447265625,-2.1149868965148926,-0.7843565940856934,-0.18117183446884155
1696958165343547000,1.027546875,2.4997339248657227,-1.5132094621658325,0.11697942018508911
1696958165353560000,1.03756005859375,-1.6928033828735352,-0.11597572267055511,0.27702510356903076
1696958165363573500,1.047573486328125,2.595648765563965,-0.6936795711517334,0.8719786405563354
1696958165373587000,1.0575869140625,-0.3613090515136719,-1.2117886543273926,0.07059675455093384
1696958165383600000,1.06760009765625,-1.2344427108764648,-1.0971269607543945,-0.00061759352684021
1696958165393613600,1.077613525390625,1.879129409790039,-0.4153284430503845,1.2311772108078003
1696958165403626800,1.087626708984375,2.082522392272949,-0.6658465266227722,0.4759831726551056
1696958165413640200,1.09764013671875,-0.9311914443969727,-0.29837682843208313,-0.6885709166526794
1696958165423653600,1.107653564453125,-2.0076498985290527,-1.2434346675872803,0.6780221462249756
1696958165433666800,1.117666748046875,2.997208595275879,-0.30779892206192017,0.16827040910720825
1696958165443680300,1.12768017578125,-2.364203929901123,-1.478423833847046,0.09636035561561584
1696958165453693400,1.137693359375,0.5338687896728516,-0.6001147031784058,0.05082538723945618
1696958165463707000,1.147706787109375,1.2971019744873047,-0.8642808198928833,-0.3285274803638458
1696958165473720000,1.157719970703125,-1.2251567840576172,0.05148223415017128,-0.02388748526573181
1696958165483733500,1.1677333984375,1.7285528182983398,-0.6023927927017212,-0.3449283242225647
1696958165493747000,1.177746826171875,-2.6300711631774902,-0.44156914949417114,0.06526222825050354
1696958165503760100,1.187760009765625,3.612110137939453,-1.3302044868469238,-0.15203125774860382
1696958165513773600,1.197773681640625,-2.7627615928649902,-0.17132879793643951,-0.3691651225090027
1696958165523786800,1.207786865234375,2.9496965408325195,-0.506005048751831,-0.20555691421031952
1696958165533800200,1.21780029296875,0.9432592391967773,0.32847079634666443,0.6739808320999146
1696958165543813600,1.227813720703125,0.03760814666748047,-1.3856382369995117,0.24506065249443054
1696958165553826800,1.237826904296875,-0.7179422378540039,-0.4513736963272095,0.05941063165664673
1696958165563840300,1.24784033203125,2.9401302337646484,-0.8828139305114746,0.2658085823059082
1696958165573853400,1.257853515625,0.8246240615844727,-0.5460068583488464,-0.045295268297195435
1696958165583867000,1.267866943359375,-3.238232135772705,0.7790133953094482,0.33917808532714844
1696958165593880000,1.277880126953125,5.775683403015137,-1.1103688478469849,-0.405404657125473
1696958165603893500,1.2878935546875,-3.1801905632019043,-2.3882246017456055,-1.179598331451416
1696958165613907000,1.297906982421875,-1.000809669494629,-0.08307555317878723,0.1380443274974823
1696958165623920000,1.307920166015625,3.592036247253418,1.16652250289917,0.8249289393424988
1696958165633933600,1.31793359375,-0.10109424591064453,-1.6844549179077148,-0.014269024133682251
1696958165643946800,1.32794677734375,-0.30945873260498047,-1.5536015033721924,-1.013236165046692
1696958165653960200,1.337960205078125,-1.7463788986206055,0.0705575942993164,0.3603990077972412
1696958165663973600,1.3479736328125,3.571173667907715,0.4455457329750061,1.0150598287582397
1696958165673986800,1.35798681640625,-0.03645038604736328,-0.5851218104362488,-0.19249227643013
1696958165684000300,1.368000244140625,-1.984635353088379,-1.566664218902588,-0.31685400009155273
1696958165694013400,1.378013427734375,2.5513038635253906,-0.2374328374862671,0.775077223777771
1696958165704027000,1.38802685546875,1.1144723892211914,0.21093355119228363,-0.12308862805366516
1696958165714040000,1.3980400390625,-1.9125962257385254,-0.7024773359298706,0.4308861792087555
1696958165724053500,1.408053466796875,1.4725265502929688,-0.9955642223358154,-0.4572545289993286
1696958165734067000,1.41806689453125,-1.1250944137573242,-0.8711814284324646,0.41272062063217163
1696958165744080100,1.428080078125,1.9977531433105469,0.995591402053833,-0.18323208391666412
1696958165754093600,1.438093505859375,0.014036178588867188,-1.4760855436325073,-0.26851019263267517
1696958165764106800,1.448106689453125,-1.6929821968078613,-0.6318344473838806,0.054288625717163086
1696958165774120200,1.4581201171875,2.3378477096557617,-0.3873048424720764,0.19571512937545776
1696958165784133600,1.468133544921875,-2.520547389984131,-0.02709387242794037,-0.19628724455833435
1696958165794146800,1.478146728515625,2.1872243881225586,-1.3536542654037476,-0.07605957984924316
1696958165804160300,1.48816015625,-1.1152219772338867,-0.538414716720581,0.43853887915611267
1696958165814173700,1.498173583984375,0.3722038269042969,-0.10271052271127701,-0.698259711265564
1696958165824187000,1.508186767578125,0.8737878799438477,0.22821953892707825,0.574102520942688
1696958165834200300,1.518200439453125,-0.545292854309082,-1.1024198532104492,-0.4781933128833771
1696958165844213800,1.5282138671875,-0.6840286254882812,-0.5639737844467163,0.3319430649280548
1696958165854227200,1.538227294921875,0.7670631408691406,0.10143297910690308,-0.30028074979782104
1696958165864240600,1.54824072265625,-0.7512521743774414,-0.376365065574646,-0.0999746024608612
1696958165874253800,1.55825390625,3.5788002014160156,-0.8284943103790283,0.26046526432037354
1696958165884267300,1.568267333984375,-3.4972596168518066,-0.802055835723877,-0.04317513108253479
1696958165894280700,1.57828076171875,0.9187726974487305,0.202439546585083,0.6377975344657898
1696958165904294100,1.588294189453125,2.6631546020507812,-0.5124731063842773,-0.3895370066165924
1696958165914307600,1.5983076171875,-1.8277997970581055,-1.224907398223877,-0.2079101800918579
1696958165924320800,1.60832080078125,0.601963996887207,-0.7109531164169312,0.007528185844421387
1696958165934334200,1.618334228515625,0.8358383178710938,-0.3821355104446411,0.27105093002319336
1696958165944347600,1.62834765625,0.9396142959594727,-0.1714695245027542,-0.48886120319366455
1696958165954361000,1.638361083984375,-0.5895118713378906,-1.4686205387115479,-0.7156097888946533
1696958165964374300,1.648374267578125,-0.05244636535644531,0.10210029780864716,-0.07186263799667358
1696958165974387700,1.6583876953125,3.0846261978149414,-1.0361011028289795,-0.19019511342048645
1696958165984401200,1.668401123046875,-2.171318531036377,-0.5294402241706848,-0.7959320545196533
1696958165994414600,1.67841455078125,1.1132450103759766,-0.949446439743042,0.2543531358242035
1696958166004428000,1.688427978515625,0.5729846954345703,0.41727834939956665,0.8592956066131592
1696958166014441200,1.698441162109375,2.1165151596069336,-1.0584222078323364,0.1280362904071808
1696958166024454700,1.70845458984375,-1.134272575378418,0.13808795809745789,-0.3912734091281891
1696958166034468000,1.718468017578125,1.6868314743041992,-1.2770888805389404,1.0827769041061401
1696958166044481500,1.7284814453125,-0.06659603118896484,0.20566126704216003,0.4629145562648773
1696958166054495000,1.738494873046875,0.6430730819702148,-0.9252670407295227,-0.6761214733123779
1696958166064508200,1.748508056640625,-1.113173484802246,-0.4426867365837097,-0.0062739551067352295
1696958166074521600,1.758521484375,2.2125930786132812,-1.1030187606811523,0.9564265012741089
1696958166084535000,1.76853515625,-0.4678955078125,-0.2020346075296402,-0.37067753076553345
1696958166094548500,1.778548583984375,-0.39835453033447266,-0.3679444193840027,-1.1055328845977783
1696958166104562000,1.78856201171875,0.0755624771118164,-1.2395074367523193,0.7362481951713562
1696958166114575000,1.7985751953125,0.5084705352783203,-0.6068819761276245,-0.043003469705581665
1696958166124588500,1.808588623046875,-0.18987560272216797,0.10479192435741425,-0.46763941645622253
1696958166134602000,1.81860205078125,0.7019624710083008,-1.5028574466705322,-0.6511300802230835
1696958166144615400,1.828615478515625,-0.3117942810058594,-0.3523431420326233,0.38769668340682983
1696958166154628600,1.838628662109375,1.5381860733032227,-1.5157126188278198,-0.24926868081092834
1696958166164642000,1.84864208984375,-2.3623008728027344,0.5496617555618286,-0.40074464678764343
1696958166174655500,1.858655517578125,2.9866676330566406,-1.3778736591339111,0.695652425289154
1696958166184668700,1.868668701171875,-1.3321704864501953,-0.2274603247642517,0.13264989852905273
1696958166194682000,1.87868212890625,-0.42421817779541016,-1.482304573059082,-1.0367941856384277
1696958166204695300,1.8886953125,0.5931358337402344,1.220280408859253,0.218735933303833
1696958166214708700,1.898708740234375,1.7091989517211914,-2.167525291442871,-0.4587176442146301
1696958166224722200,1.90872216796875,-1.9544367790222168,-0.1601591408252716,0.08501219749450684
1696958166234735400,1.9187353515625,1.6013031005859375,-0.8570488691329956,-0.09541895985603333
1696958166244748800,1.928748779296875,-0.7947731018066406,0.3749364912509918,0.33822086453437805
1696958166254762000,1.938761962890625,3.9838123321533203,-1.862513542175293,-0.21013320982456207
1696958166264775400,1.948775390625,-3.175806999206543,-0.07274368405342102,-0.08010557293891907
1696958166274788600,1.95878857421875,1.6685943603515625,-0.6111854314804077,-0.48987001180648804
1696958166284802000,1.968802001953125,0.39180850982666016,0.07438220083713531,0.7233067154884338
1696958166294815500,1.9788154296875,2.167191505432129,-1.7399449348449707,-1.255143642425537
1696958166304828700,1.98882861328125,-2.7434582710266113,-0.284719318151474,-0.4888556897640228
1696958166314842000,1.998842041015625,2.6138839721679688,-0.49054214358329773,0.798132598400116
1696958166324855300,2.008855224609375,-0.5124015808105469,-0.2120172083377838,0.47542592883110046
1696958166334868700,2.01886865234375,-0.7002677917480469,-0.9435991048812866,-0.6678396463394165
1696958166344882200,2.028882080078125,-0.034099578857421875,-0.8531316518783569,0.4264848232269287
1696958166354895400,2.038895263671875,0.7143001556396484,0.13793647289276123,0.45397451519966125
1696958166364908800,2.04890869140625,0.3339815139770508,-0.6568213701248169,0.3278379440307617
1696958166374922000,2.058921875,-1.1931219100952148,-0.15814712643623352,-0.15089108049869537
1696958166384935400,2.068935302734375,0.16671085357666016,-0.9393622875213623,0.5439114570617676
1696958166394948600,2.078948486328125,0.28000640869140625,-0.035579293966293335,0.09336155652999878
1696958166404962000,2.088962158203125,0.03540611267089844,-0.5367186069488525,-0.43951618671417236
1696958166414975500,2.0989755859375,-1.3137702941894531,-0.12459191679954529,0.35845017433166504
1696958166424988700,2.10898876953125,1.8532867431640625,-0.14764288067817688,0.6185959577560425
1696958166435002000,2.119002197265625,0.09889507293701172,-1.289333462715149,-0.33928772807121277
1696958166445015300,2.129015380859375,-2.146800994873047,0.06688454747200012,-0.3590365946292877
1696958166455028700,2.13902880859375,2.988687515258789,0.506125271320343,0.5138866901397705
1696958166465042200,2.149042236328125,0.12285614013671875,-0.9784964323043823,0.13731396198272705
1696958166475055400,2.159055419921875,-0.3306713104248047,-0.7053938508033752,-0.29088014364242554
1696958166485068800,2.16906884765625,0.3527679443359375,-0.10220608115196228,0.013168513774871826
1696958166495082000,2.17908203125,1.4046087265014648,-0.0030812323093414307,0.37230706214904785
1696958166505095400,2.189095458984375,0.5872621536254883,-0.9856473207473755,-0.49193239212036133
1696958166515108600,2.199108642578125,-1.022343635559082,-0.5305562019348145,0.5664327144622803
1696958166525122000,2.2091220703125,1.8053197860717773,0.1321631371974945,0.515369176864624
1696958166535135500,2.219135498046875,1.1335325241088867,-0.5887889266014099,-0.7056930661201477
1696958166545148700,2.229148681640625,-2.68612003326416,-0.565472424030304,-0.1804979145526886
1696958166555162000,2.239162109375,3.6922168731689453,-0.24101725220680237,-0.5947619080543518
1696958166565175300,2.24917529296875,-3.105893135070801,-0.7757211923599243,0.8094507455825806
1696958166575188700,2.259188720703125,3.31301212310791,-0.3819850981235504,-0.7323374152183533
1696958166585202200,2.2692021484375,-1.5573787689208984,-0.20780104398727417,-0.6572957634925842
1696958166595215400,2.27921533203125,-0.8197803497314453,-0.2806914448738098,0.9862397909164429
1696958166605228800,2.289228759765625,1.987558364868164,-1.1785917282104492,-0.2795405685901642
1696958166615242200,2.2992421875,-2.1514058113098145,0.1292421966791153,-0.575904369354248
1696958166625255400,2.30925537109375,1.0395221710205078,-0.9758094549179077,-0.39368560910224915
1696958166635268900,2.319268798828125,-1.6931085586547852,0.3535865843296051,0.8025574684143066
1696958166645282300,2.3292822265625,3.4128427505493164,-1.079668641090393,-0.807520866394043
1696958166655295700,2.339295654296875,-3.671048164367676,-0.35988104343414307,-0.719551682472229
1696958166665309200,2.34930908203125,0.5194721221923828,-0.14391323924064636,1.2175159454345703
1696958166675322400,2.359322265625,1.9761219024658203,-0.1674347221851349,0.2672578990459442
1696958166685335800,2.369335693359375,-1.8149356842041016,-0.6772650480270386,-0.4944751262664795
1696958166695349200,2.379349365234375,0.36822032928466797,-0.49663421511650085,0.3976241946220398
1696958166705362700,2.38936279296875,-1.4983339309692383,0.6095277070999146,1.6217087507247925
1696958166715376000,2.399376220703125,1.8994684219360352,-0.1997184157371521,0.7705869674682617
1696958166725389300,2.409389404296875,-2.6169209480285645,0.001174837350845337,0.21065998077392578
1696958166735402800,2.41940283203125,1.0343132019042969,-0.5107494592666626,0.7836926579475403
1696958166745416200,2.429416259765625,0.6908359527587891,-0.44646528363227844,0.8417348265647888
1696958166755429600,2.4394296875,-0.4380073547363281,-0.7297650575637817,-0.3792901039123535
1696958166765442800,2.44944287109375,-1.280684471130371,-1.2053800821304321,-1.212538242340088
1696958166775456300,2.459456298828125,0.5426368713378906,-0.5787791013717651,-0.31197768449783325
1696958166785469700,2.4694697265625,1.5754356384277344,-0.7767738699913025,-0.4506339728832245
1696958166795483100,2.479483154296875,-2.080535888671875,-0.8598793745040894,0.2930457592010498
1696958166805496600,2.48949658203125,2.3795528411865234,-0.8755034804344177,0.4966006875038147
1696958166815509800,2.499509765625,-0.22583675384521484,0.23334521055221558,0.29861241579055786
1696958166825523200,2.509523193359375,0.605443000793457,-1.0595252513885498,-0.5883461833000183
1696958166835536600,2.51953662109375,0.35480213165283203,-0.25849172472953796,0.27825212478637695
1696958166845550000,2.529550048828125,1.8468046188354492,-0.5967392325401306,-0.0693667083978653
1696958166855563500,2.5395634765625,-0.9999418258666992,-0.23374322056770325,-0.05860172212123871
1696958166865576700,2.54957666015625,1.0323419570922852,-1.194106101989746,0.38807913661003113
1696958166875590100,2.559590087890625,-1.692042350769043,-0.3965960144996643,0.8209191560745239
1696958166885603600,2.569603515625,1.6551513671875,0.039554983377456665,0.6506026983261108
1696958166895617000,2.579616943359375,-0.18453311920166016,-0.28600412607192993,0.013639599084854126
1696958166905630200,2.589630126953125,-0.9468154907226562,-0.317367821931839,0.9701441526412964
1696958166915643600,2.5996435546875,1.9147157669067383,-0.10163912177085876,0.8780418634414673
1696958166925657000,2.609656982421875,-1.6862211227416992,-0.8019858598709106,-0.12240469455718994
1696958166935670500,2.61967041015625,-0.2432270050048828,-0.4737229645252228,-0.13837234675884247
1696958166945684000,2.62968408203125,-0.9056167602539062,-0.6255042552947998,0.3639070987701416
1696958166955697200,2.639697265625,0.014173507690429688,-0.2300214171409607,-0.4105888605117798
1696958166965710600,2.649710693359375,0.31951427459716797,-0.7030145525932312,-0.3533727526664734
1696958166975724000,2.65972412109375,0.14675235748291016,-2.2683162689208984,-0.4878637194633484
1696958166985737500,2.669737548828125,0.7000141143798828,-3.446721076965332,0.25073105096817017
1696958166995751000,2.6797509765625,1.9906377792358398,-0.7916858196258545,-1.6326217651367188
1696958167005764000,2.68976416015625,-0.9949569702148438,-1.8372917175292969,-2.108701229095459
1696958167015777500,2.699777587890625,2.6223220825195312,-1.0297036170959473,-1.244643211364746
1696958167025791000,2.709791015625,3.9674367904663086,-1.6946256160736084,0.2025488168001175
1696958167035804400,2.719804443359375,-3.082165241241455,-1.3564471006393433,-0.682134747505188
1696958167045817900,2.72981787109375,3.5112991333007812,-0.2666741609573364,-0.6440180540084839
1696958167055831000,2.7398310546875,2.7724218368530273,0.7449626326560974,-0.4927487373352051
1696958167065844500,2.749844482421875,2.3419265747070312,-0.543825089931488,-1.0465867519378662
1696958167075858000,2.75985791015625,-1.0270929336547852,-1.4230902194976807,-1.4328408241271973
1696958167085871400,2.769871337890625,0.9910783767700195,-0.12132036685943604,0.9013022184371948
1696958167095884500,2.779884521484375,5.015337944030762,-0.07133013010025024,0.5137330293655396
1696958167105898000,2.78989794921875,-2.177889347076416,-0.1129525899887085,-1.0009374618530273
1696958167115911400,2.799911376953125,-1.1910266876220703,0.3797931969165802,-0.2611826956272125
1696958167125924900,2.8099248046875,0.43576622009277344,-0.2324460744857788,-0.06508173048496246
1696958167135938300,2.819938232421875,-1.3465547561645508,0.1128632128238678,-1.3456534147262573
1696958167145951500,2.829951416015625,2.071160316467285,0.05536404252052307,-1.5451834201812744
1696958167155965000,2.83996484375,-1.2923173904418945,0.9629018306732178,0.10160902142524719
1696958167165978400,2.849978271484375,2.7697486877441406,0.5665820240974426,-0.4814388155937195
1696958167175991800,2.85999169921875,-3.0980210304260254,0.6087996363639832,-1.1311665773391724
1696958167186005200,2.870005126953125,-1.6827507019042969,0.21292820572853088,0.24477240443229675
1696958167196018400,2.880018310546875,0.26105403900146484,1.032777190208435,0.5065639019012451
1696958167206032000,2.890031982421875,0.5227174758911133,1.237032413482666,-0.6751365065574646
1696958167216045300,2.90004541015625,-0.8302335739135742,0.4269244968891144,0.09974256157875061
1696958167226058800,2.910058837890625,0.6051225662231445,0.7916522026062012,0.3182951509952545
1696958167236072000,2.920072021484375,0.7220535278320312,1.4532005786895752,0.8945039510726929
1696958167246085400,2.93008544921875,0.003536224365234375,0.7630341053009033,0.04819902777671814
1696958167256098800,2.940098876953125,-0.8272609710693359,0.6539810299873352,0.4966491758823395
1696958167266112300,2.9501123046875,-0.08897781372070312,0.8977400064468384,0.7354706525802612
1696958167276125700,2.960125732421875,0.8134565353393555,1.0561758279800415,0.8123196959495544
1696958167286139000,2.970138916015625,0.5526752471923828,0.9623019099235535,-0.18048332631587982
1696958167296152300,2.98015234375,-1.3876047134399414,0.982917308807373,0.612383246421814
1696958167306165800,2.990165771484375,0.660618782043457,1.3310003280639648,0.8420012593269348
1696958167316179200,3.00017919921875,-0.39715576171875,0.30289939045906067,0.28778892755508423
1696958167326192600,3.010192626953125,-1.126211166381836,1.317530632019043,-0.19345279037952423
1696958167336205800,3.020205810546875,0.9640121459960938,0.47370725870132446,0.6745080351829529
1696958167346219300,3.03021923828125,-0.26636505126953125,1.1233443021774292,0.5264438390731812
1696958167356232700,3.040232666015625,-0.5426979064941406,0.7621059417724609,-0.6309897303581238
1696958167366246100,3.05024609375,-1.3618059158325195,0.8502197265625,0.4331953823566437
1696958167376259300,3.06025927734375,1.1923456192016602,0.7950543761253357,0.6843279004096985
1696958167386272800,3.070272705078125,-1.3566398620605469,0.5817217826843262,-0.31114447116851807
1696958167396286200,3.0802861328125,-0.24909687042236328,1.0590888261795044,-0.23618309199810028
1696958167406299600,3.090299560546875,-0.12386894226074219,0.7068111300468445,0.6079505085945129
1696958167416313000,3.10031298828125,0.7692508697509766,0.581988513469696,0.0018532872200012207
1696958167426326300,3.110326171875,-1.582498550415039,0.8461794853210449,-0.3693539500236511
1696958167436339700,3.120339599609375,0.3664264678955078,1.2869786024093628,0.5805121660232544
1696958167446353200,3.130353271484375,1.4681053161621094,1.2326931953430176,0.484698086977005
1696958167456366600,3.14036669921875,-0.39436817169189453,0.39003777503967285,-0.1996409296989441
1696958167466380000,3.150380126953125,-1.2763490676879883,1.172256350517273,-0.07754740118980408
1696958167476393200,3.160393310546875,1.301666259765625,0.6176413297653198,0.8194819092750549
1696958167486406700,3.17040673828125,-0.020816802978515625,0.8181787729263306,0.02334773540496826
1696958167496420000,3.180420166015625,-0.28824520111083984,0.7232952117919922,-0.13348378241062164
1696958167506433500,3.19043359375,-0.25859737396240234,0.8826504945755005,0.33772751688957214
1696958167516446700,3.20044677734375,1.5995674133300781,0.5521931648254395,0.3756497800350189
1696958167526460200,3.210460205078125,-1.2279796600341797,0.939380407333374,0.12134188413619995
1696958167536473600,3.2204736328125,0.9821329116821289,0.9542135000228882,0.24752944707870483
1696958167546487000,3.230487060546875,-0.3058595657348633,1.2904983758926392,0.9365018606185913
1696958167556500500,3.24050048828125,1.4140071868896484,0.566468358039856,0.8152723908424377
1696958167566513700,3.250513671875,-1.8288488388061523,0.5775492787361145,-0.08747798204421997
1696958167576527000,3.260527099609375,0.6505069732666016,0.44459331035614014,0.09068289399147034
1696958167586540500,3.27054052734375,0.3424491882324219,1.2755929231643677,0.504664421081543
1696958167596554000,3.280553955078125,0.19785785675048828,0.6607961654663086,-0.17162124812602997
1696958167606567400,3.2905673828125,-2.4203572273254395,1.449743390083313,-1.1761319637298584
1696958167616580600,3.30058056640625,1.006861686706543,1.7066214084625244,0.21456164121627808
1696958167626594000,3.310593994140625,1.7580156326293945,0.5950389504432678,-0.12204031646251678
1696958167636607500,3.320607421875,-2.598419666290283,1.025640606880188,-0.227530837059021
1696958167646621000,3.330620849609375,0.8484334945678711,1.1266788244247437,0.33582115173339844
1696958167656634400,3.34063427734375,0.32024478912353516,1.8481905460357666,0.37964725494384766
1696958167666647600,3.3506474609375,-0.11069679260253906,0.6608029007911682,-0.17387238144874573
1696958167676661000,3.360660888671875,-1.6961803436279297,1.158488154411316,-0.36145710945129395
1696958167686674400,3.37067431640625,1.3371429443359375,1.4849525690078735,0.490534245967865
1696958167696687900,3.38068798828125,0.5303926467895508,1.0975440740585327,0.18253478407859802
1696958167706701000,3.390701171875,-1.042769432067871,1.1767067909240723,-0.29585325717926025
1696958167716714500,3.400714599609375,1.2481575012207031,1.1282087564468384,0.2617982029914856
1696958167726728000,3.41072802734375,-0.6855440139770508,1.2893905639648438,0.13806045055389404
1696958167736741400,3.420741455078125,-0.16780757904052734,1.1373757123947144,-0.4534848630428314
1696958167746754800,3.4307548828125,-0.649907112121582,0.4728696048259735,-0.03666043281555176
1696958167756768000,3.44076806640625,1.2960214614868164,1.3788073062896729,0.7108537554740906
1696958167766781400,3.450781494140625,1.076737403869629,0.776091992855072,-0.28311505913734436
1696958167776795000,3.460794921875,-3.5789999961853027,0.6870331764221191,-0.045506179332733154
1696958167786808300,3.470808349609375,3.4054059982299805,0.8846954703330994,0.8013348579406738
1696958167796821800,3.48082177734375,-1.3769683837890625,1.1109750270843506,0.4327233135700226
1696958167806835000,3.4908349609375,-1.2728404998779297,0.8315387964248657,-0.4140157699584961
1696958167816848400,3.500848388671875,1.8594388961791992,0.929224967956543,0.5456916093826294
1696958167826861800,3.51086181640625,0.2582826614379883,0.6659097671508789,0.42946091294288635
1696958167836875300,3.520875244140625,-1.930598258972168,0.9458689093589783,0.10382696986198425
1696958167846888400,3.530888427734375,0.41550350189208984,1.1939553022384644,0.054739177227020264
1696958167856902000,3.54090185546875,1.269099235534668,1.3053863048553467,0.05242590606212616
1696958167866915300,3.550915283203125,-3.0006065368652344,0.24639275670051575,-0.0764668732881546
1696958167876928800,3.5609287109375,1.617767333984375,-0.4165029227733612,-0.5171703696250916
1696958167886942200,3.570942138671875,-0.0685567855834961,-0.2513846158981323,-0.4036160111427307
1696958167896955400,3.580955322265625,-1.1576032638549805,1.9906848669052124,-2.315058946609497
1696958167906968800,3.59096875,-0.318267822265625,1.4168399572372437,-2.0406627655029297
1696958167916982300,3.600982177734375,2.6973533630371094,1.7156614065170288,-0.6051068902015686
1696958167926995700,3.61099560546875,-2.030203342437744,0.7442604899406433,-0.893652617931366
1696958167937009200,3.621009033203125,-1.3935565948486328,0.8110452890396118,-0.8608068227767944
1696958167947022300,3.631022216796875,2.016843795776367,1.7361801862716675,-0.6711371541023254
1696958167957035800,3.641035888671875,-0.5396785736083984,1.5312950611114502,-0.9146765470504761
1696958167967049200,3.65104931640625,0.10224342346191406,0.6902406811714172,-0.7612106800079346
1696958167977062700,3.661062744140625,1.9414453506469727,1.0806843042373657,-0.5545982122421265
1696958167987075800,3.671075927734375,-1.3506460189819336,0.9533867239952087,-0.32801151275634766
1696958167997089300,3.68108935546875,0.15820789337158203,0.6215359568595886,-0.4350188970565796
1696958168007102700,3.691102783203125,0.6166114807128906,1.169143557548523,0.06645792722702026
1696958168017116200,3.7011162109375,1.083247184753418,0.5450684428215027,-0.2484436333179474
1696958168027129600,3.711129638671875,-0.6683225631713867,0.5598268508911133,-0.8161906599998474
1696958168037142800,3.721142822265625,2.27679443359375,0.850924551486969,-0.47619080543518066
1696958168047156200,3.73115625,-2.0722427368164062,0.14720459282398224,-0.29000499844551086
1696958168057169700,3.741169677734375,-1.043863296508789,0.35734283924102783,-0.0022400319576263428
1696958168067183000,3.75118310546875,2.442188262939453,1.222895622253418,0.1734943389892578
1696958168077195500,3.761195556640625,-1.4724931716918945,0.8624094724655151,0.05471467971801758
1696958168087209000,3.771208984375,0.06540584564208984,0.5005190372467041,-0.34032443165779114
1696958168097222400,3.781222412109375,1.546645164489746,1.287117838859558,0.43513211607933044
1696958168107235800,3.79123583984375,-1.9785137176513672,0.5111541152000427,0.33226335048675537
1696958168117249300,3.801249267578125,-0.1908245086669922,0.6217089891433716,0.023411154747009277
1696958168127262500,3.811262451171875,1.9075202941894531,0.9868494272232056,0.7022392153739929
1696958168137276000,3.82127587890625,-1.5709161758422852,0.6255356669425964,0.686018705368042
1696958168147289300,3.831289306640625,0.8558864593505859,0.9734386801719666,0.6542731523513794
1696958168157302800,3.841302734375,1.709031105041504,1.0729835033416748,0.8190292119979858
1696958168167316000,3.85131591796875,-2.3376150131225586,0.9645652174949646,0.6674771308898926
1696958168177329400,3.861329345703125,0.6168041229248047,0.5561946630477905,0.598707914352417
1696958168187342800,3.8713427734375,2.206195831298828,1.3233729600906372,0.39291051030158997
1696958168197356300,3.881356201171875,-3.1271185874938965,1.0319944620132446,0.46592846512794495
1696958168207369700,3.89136962890625,1.3822240829467773,0.5272354483604431,0.6345406770706177
1696958168217383000,3.9013828125,0.5948553085327148,1.3705339431762695,0.4997009336948395
1696958168227396400,3.911396240234375,-2.564997673034668,0.8505854606628418,0.4314846694469452
1696958168237409800,3.921409912109375,0.882014274597168,0.9948755502700806,0.2962518632411957
1696958168247423200,3.93142333984375,0.7028141021728516,1.1532315015792847,0.37775006890296936
1696958168257436700,3.941436767578125,-2.868278980255127,1.0550633668899536,0.552721381187439
1696958168267449900,3.951449951171875,2.2948150634765625,0.4480612576007843,0.015687912702560425
1696958168277463300,3.96146337890625,-1.1707286834716797,1.710615873336792,0.27595946192741394
1696958168287476700,3.971476806640625,-1.5258941650390625,0.8543416261672974,0.2949729263782501
1696958168297490200,3.981490234375,0.09296607971191406,1.1481822729110718,0.6491750478744507
1696958168307503600,3.991503662109375,1.7364959716796875,1.2056764364242554,0.056300461292266846
1696958168317516800,4.001516845703125,-3.0227622985839844,0.6164199113845825,-0.5111435651779175
1696958168327530200,4.0115302734375,1.4340763092041016,0.8373607397079468,0.629136323928833
1696958168337543700,4.021543701171875,1.979771614074707,1.2763973474502563,-0.08086064457893372
1696958168347557000,4.03155712890625,-4.309141635894775,0.8643056154251099,-0.3661380708217621
1696958168357570300,4.0415703125,3.323843002319336,-0.06861941516399384,-0.08513060212135315
1696958168367583700,4.051583740234375,0.5389747619628906,1.6812989711761475,0.05625811219215393
1696958168377597200,4.06159716796875,-0.652252197265625,0.7497026920318604,-0.6858465671539307
1696958168387610600,4.071610595703125,0.8354959487915039,0.2261931300163269,-0.16497904062271118
1696958168397624000,4.0816240234375,1.4501667022705078,1.098936915397644,0.04724445939064026
1696958168407637200,4.09163720703125,-2.3624229431152344,1.254781723022461,-1.0767289400100708
1696958168417650700,4.101650634765625,0.5684127807617188,0.006787274032831192,0.31185343861579895
1696958168427664100,4.1116640625,2.9563989639282227,1.1417020559310913,-0.30416104197502136
1696958168437677600,4.121677490234375,-2.9529953002929688,0.8759141564369202,-0.45726120471954346
1696958168447691000,4.13169091796875,2.1440277099609375,0.6110666394233704,0.10728392004966736
1696958168457704200,4.1417041015625,0.12178421020507812,0.6930387616157532,-0.5296118855476379
1696958168467717600,4.151717529296875,-3.37654972076416,1.167481780052185,-0.09808558225631714
1696958168477731000,4.16173095703125,4.689157485961914,0.7666590213775635,0.014579087495803833
1696958168487744500,4.17174462890625,-2.061058521270752,0.5842889547348022,-0.5699313879013062
1696958168497757700,4.1817578125,-1.0902986526489258,1.206852674484253,-0.030263274908065796
1696958168507771100,4.191771240234375,1.9611873626708984,0.6138356328010559,-0.2058473825454712
1696958168517784600,4.20178466796875,-1.317220687866211,1.0840147733688354,-0.38943174481391907
1696958168527798000,4.211798095703125,-0.8788328170776367,1.079196810722351,0.15570998191833496
1696958168537811500,4.2218115234375,0.6763820648193359,1.005433201789856,0.06359878182411194
1696958168547824600,4.23182470703125,-0.5151252746582031,0.7631998658180237,-0.14590856432914734
1696958168557838000,4.241838134765625,-1.0203056335449219,1.0691726207733154,-0.03833305835723877
1696958168567851500,4.2518515625,0.42066192626953125,0.8006330728530884,-0.05599549412727356
1696958168577865000,4.261864990234375,-0.06766319274902344,1.1699731349945068,0.11160770058631897
1696958168587878400,4.27187841796875,-1.1091785430908203,0.4185502231121063,-0.05459111928939819
1696958168597891600,4.2818916015625,0.03095531463623047,0.8308476805686951,-0.29256582260131836
1696958168607905000,4.291905029296875,-0.29376792907714844,1.5341967344284058,0.1876080334186554
1696958168617918500,4.30191845703125,-0.2928810119628906,0.691983163356781,-0.12734389305114746
1696958168627932000,4.311931884765625,-0.4259614944458008,0.6664969325065613,-0.11746108531951904
1696958168637945000,4.321945068359375,0.03431892395019531,1.6886547803878784,-0.13723281025886536
1696958168647958500,4.33195849609375,-1.7194385528564453,0.7515990138053894,-0.04630282521247864
1696958168657972000,4.341971923828125,0.34950828552246094,0.3742775321006775,-0.1165173351764679
1696958168667985400,4.3519853515625,0.5782680511474609,0.9759570956230164,-0.4657166302204132
1696958168677998800,4.361998779296875,-3.12166690826416,1.6463061571121216,0.05561777949333191
1696958168688012000,4.372011962890625,1.6556339263916016,0.925258457660675,-0.027730971574783325
1696958168698025500,4.382025390625,-1.2682008743286133,1.2877554893493652,-0.19097794592380524
1696958168708039000,4.392038818359375,-2.5501670837402344,1.4148715734481812,-0.40056806802749634
1696958168718052400,4.40205224609375,0.08474159240722656,1.2664055824279785,-0.6168969869613647
1696958168728065800,4.412065673828125,-0.9807205200195312,0.9356337785720825,-0.539405345916748
1696958168738079000,4.422078857421875,0.7281808853149414,0.27916762232780457,-0.11573365330696106
1696958168748092400,4.432092529296875,2.059864044189453,0.6536344885826111,-0.018713921308517456
1696958168758105900,4.44210595703125,-0.27239418029785156,-0.15969745814800262,-0.33459824323654175
1696958168768119300,4.452119384765625,-1.9345579147338867,0.5063437819480896,0.005131512880325317
1696958168778132500,4.462132568359375,3.8193788528442383,0.7104296684265137,0.43055641651153564
1696958168788146000,4.47214599609375,-0.10411262512207031,1.2554030418395996,0.10856139659881592
1696958168798159400,4.482159423828125,-0.13251209259033203,1.0863142013549805,0.4614156186580658
1696958168808172800,4.4921728515625,-0.7298440933227539,1.9532955884933472,0.14121997356414795
1696958168818186200,4.502186279296875,-4.321519374847412,1.4455769062042236,0.9423806071281433
1696958168828199400,4.512199462890625,-1.82606840133667,2.719200372695923,-0.38978004455566406
1696958168838212900,4.522212890625,-0.6987056732177734,1.4655355215072632,-1.1530301570892334
1696958168848226300,4.532226318359375,-2.4459190368652344,1.389501929283142,-1.072124719619751
1696958168858239700,4.54223974609375,-1.8994808197021484,0.049361005425453186,0.7113600969314575
1696958168868253200,4.552253173828125,-1.6367368698120117,1.534358263015747,0.6105723977088928
1696958168878266400,4.562266357421875,0.15963459014892578,1.4910227060317993,1.3129185438156128
1696958168888279800,4.57227978515625,0.6942653656005859,0.9094713926315308,0.21004831790924072
1696958168898293200,4.582293212890625,-1.3287954330444336,1.6065731048583984,0.8941785097122192
1696958168908306700,4.592306640625,1.7616167068481445,0.8524531722068787,0.2640262246131897
1696958168918320000,4.602320068359375,-3.1653027534484863,-0.6623302698135376,0.2956770658493042
1696958168928333300,4.612333251953125,3.934889793395996,0.764493465423584,1.5139111280441284
1696958168938346800,4.6223466796875,3.7765493392944336,-0.4230233132839203,0.7764468789100647
1696958168948360200,4.632360107421875,-1.4322090148925781,-0.1563311517238617,0.9769037961959839
1696958168958373600,4.64237353515625,5.380976676940918,-0.44855526089668274,0.812272310256958
1696958168968386800,4.65238671875,-3.4878592491149902,1.6448769569396973,0.8948214054107666
1696958168978400300,4.662400146484375,3.56491756439209,1.4042824506759644,0.5253287553787231
1696958168988413700,4.67241357421875,1.8636741638183594,1.0872737169265747,0.4875454306602478
1696958168998427100,4.68242724609375,1.1615142822265625,0.7537361979484558,0.7026269435882568
1696958169008440600,4.692440673828125,-0.2660064697265625,1.2829971313476562,0.21871834993362427
1696958169018453800,4.702453857421875,2.2434654235839844,1.1485075950622559,0.48546406626701355
1696958169028467200,4.71246728515625,2.892366409301758,0.9183114171028137,0.41661083698272705
1696958169038480600,4.722480712890625,-0.6850042343139648,0.30241531133651733,-0.36257582902908325
1696958169048494000,4.732494140625,0.9604663848876953,-0.1473742425441742,0.107272207736969
1696958169058507500,4.742507568359375,0.6568632125854492,-0.7651984691619873,-0.30628642439842224
1696958169068520700,4.752520751953125,-0.7214899063110352,0.9924997091293335,-0.7319986820220947
1696958169078534100,4.7625341796875,2.749917984008789,1.913941502571106,0.7692586183547974
1696958169088547600,4.772547607421875,0.7355031967163086,1.535409927368164,-0.18107928335666656
1696958169098561000,4.78256103515625,-4.01206636428833,2.2661526203155518,-0.9687423706054688
1696958169108574200,4.79257421875,1.5318412780761719,0.10911957174539566,-0.9137518405914307
1696958169118587600,4.802587646484375,-1.248518943786621,0.3873246908187866,0.21449625492095947
1696958169128601000,4.81260107421875,1.2251338958740234,-0.15259301662445068,-0.14362624287605286
1696958169138614500,4.822614501953125,0.3231229782104492,0.3585525453090668,-1.0201845169067383
1696958169148628000,4.8326279296875,0.1886453628540039,0.9551975727081299,0.6037814617156982
1696958169158641200,4.84264111328125,0.3406696319580078,2.09763765335083,-0.6913503408432007
1696958169168654600,4.852654541015625,-0.8408708572387695,1.1095809936523438,-0.5770829916000366
1696958169178668000,4.86266796875,1.1921539306640625,0.3321100175380707,-0.23672983050346375
1696958169188681500,4.872681396484375,-1.1718244552612305,-0.5061383247375488,0.8676262497901917
1696958169198695000,4.88269482421875,1.9417667388916016,-0.44169777631759644,-0.30182045698165894
1696958169208708000,4.8927080078125,2.27584171295166,1.0644582509994507,-0.10519464313983917
1696958169218721500,4.902721435546875,0.783869743347168,0.638323187828064,-0.31435152888298035
1696958169228735000,4.91273486328125,-0.12165164947509766,0.28913629055023193,0.04511544108390808
1696958169238748400,4.92274853515625,3.094731330871582,0.16481825709342957,0.1697050929069519
1696958169248761600,4.93276171875,-1.7925214767456055,0.028784316033124924,-0.07035303115844727
1696958169258775000,4.942775146484375,0.4626283645629883,-0.5067941546440125,-0.14846542477607727
1696958169268788500,4.95278857421875,3.558065414428711,1.1018564701080322,-0.31584855914115906
1696958169278802000,4.962802001953125,-3.4089293479919434,1.097205400466919,-0.0800565779209137
1696958169288815400,4.9728154296875,0.5133428573608398,-0.18033529818058014,-0.5782793164253235
1696958169298828500,4.98282861328125,1.2241401672363281,1.3738774061203003,0.5063323974609375
1696958169308842000,4.992842041015625,0.3609285354614258,1.2044469118118286,0.177703857421875
1696958169318855400,5.00285546875,-1.47052001953125,-0.01710682176053524,-0.7341389656066895
1696958169328868900,5.012868896484375,0.024163246154785156,1.74828040599823,-0.09586438536643982
1696958169338882300,5.02288232421875,-1.8252716064453125,0.6075261235237122,0.14497584104537964
1696958169348895500,5.0328955078125,-1.0466012954711914,1.0819032192230225,0.3004646897315979
1696958169358909000,5.042908935546875,2.573533058166504,1.1340454816818237,0.6921303272247314
1696958169368922400,5.05292236328125,-2.388796329498291,2.130770206451416,-0.49664080142974854
1696958169378935800,5.062935791015625,0.9909563064575195,0.4812335968017578,-0.030667394399642944
1696958169388949000,5.072948974609375,-0.2542085647583008,0.2138882279396057,0.6531407237052917
1696958169398962400,5.08296240234375,-2.6670475006103516,0.03366241976618767,1.0607506036758423
1696958169408976000,5.092975830078125,0.4264373779296875,0.22226126492023468,0.3695642352104187
1696958169418989300,5.1029892578125,3.2494163513183594,0.8798356652259827,-0.49391740560531616
1696958169429002800,5.113002685546875,1.5159826278686523,1.0278022289276123,-0.551152229309082
1696958169439016000,5.123015869140625,-2.531054973602295,-0.07646629214286804,-0.7798430919647217
1696958169449029400,5.133029296875,0.24213504791259766,-0.4754873216152191,-0.2072911113500595
1696958169459042800,5.143042724609375,-1.0535812377929688,0.9254791736602783,0.07072488963603973
1696958169469056300,5.15305615234375,2.0170164108276367,-0.35751044750213623,-0.5354186296463013
1696958169479069700,5.163069580078125,1.2903327941894531,1.0896748304367065,-0.11279486864805222
1696958169489083000,5.173082763671875,1.0338869094848633,-0.04182230308651924,-0.2968261241912842
1696958169499096300,5.183096435546875,-4.144449710845947,-0.3701243996620178,-0.2479524314403534
1696958169509109800,5.19310986328125,1.7105731964111328,0.29338011145591736,-0.44689619541168213
1696958169519123200,5.203123291015625,0.15800952911376953,1.1814968585968018,-0.03376312553882599
1696958169529136400,5.213136474609375,-1.8303570747375488,0.9167687892913818,-1.0456972122192383
1696958169539149800,5.22314990234375,-0.5067539215087891,1.147060513496399,-0.8720782995223999
1696958169549163300,5.233163330078125,-1.5135955810546875,0.8334634900093079,-1.1188641786575317
1696958169559176700,5.2431767578125,-3.3878273963928223,0.8828156590461731,-1.465055227279663
1696958169569190100,5.253190185546875,1.744013786315918,-0.020621560513973236,-1.2875162363052368
1696958169579203300,5.263203369140625,-1.4379634857177734,0.33369794487953186,-0.5432932376861572
1696958169589216800,5.273216796875,-0.2010059356689453,0.2654825747013092,-0.11228890717029572
1696958169599230200,5.283230224609375,-0.1428842544555664,0.4307342767715454,-0.015310734510421753
1696958169609243600,5.29324365234375,1.4108924865722656,-0.05258918181061745,-0.1864052712917328
1696958169619257000,5.303257080078125,-0.7906227111816406,1.3125652074813843,0.8409887552261353
1696958169629270300,5.313270263671875,1.9880876541137695,0.5409868955612183,0.9534704089164734
1696958169639283700,5.32328369140625,0.36777400970458984,1.166872501373291,-0.1974092423915863
1696958169649297200,5.333297119140625,-1.6210212707519531,1.8409961462020874,-0.4029463529586792
1696958169659310800,5.343310791015625,-0.766331672668457,0.46893835067749023,-0.7534918785095215
1696958169669324000,5.353323974609375,-2.5849223136901855,1.3102844953536987,0.38255375623703003
1696958169679337500,5.36333740234375,1.1158256530761719,0.4624520540237427,-0.21889247000217438
1696958169689350700,5.3733505859375,-1.3528776168823242,0.2220827341079712,-0.3613888621330261
1696958169699363800,5.38336376953125,1.4178848266601562,0.7021989822387695,0.09309032559394836
1696958169709377000,5.393376953125,-2.604494571685791,1.3490270376205444,0.3444632589817047
1696958169719390200,5.40339013671875,0.8191556930541992,0.7724577188491821,1.4362237453460693
1696958169729403400,5.4134033203125,2.1551198959350586,-0.631621778011322,0.7495678663253784
1696958169739416800,5.423416748046875,-3.016101360321045,0.6160293817520142,1.4102908372879028
1696958169749430000,5.433429931640625,4.327038764953613,1.50600004196167,1.7441312074661255
1696958169759443200,5.443443115234375,-0.25731754302978516,1.4148930311203003,0.751174807548523
1696958169769456600,5.45345654296875,-1.193441390991211,-0.2663182020187378,-0.27088913321495056
1696958169779469800,5.4634697265625,-0.56915283203125,-0.16362668573856354,0.37228459119796753
1696958169789483300,5.473483154296875,0.17793750762939453,-0.1372121423482895,-0.14101719856262207
1696958169799496700,5.48349658203125,0.4739561080932617,-0.8274691700935364,-0.2977439761161804
1696958169809510100,5.49351025390625,0.13384342193603516,-1.7869864702224731,1.087977409362793
1696958169819523600,5.503523681640625,3.6559839248657227,2.3993470668792725,1.4929746389389038
1696958169829537000,5.513537109375,0.7413501739501953,1.3820741176605225,0.0327337384223938
1696958169839550500,5.523550537109375,-0.5889263153076172,0.017127886414527893,0.4166783392429352
1696958169849564000,5.53356396484375,3.3650741577148438,0.21713702380657196,0.9229941964149475
1696958169859577300,5.543577392578125,-1.0015716552734375,-0.14763537049293518,-0.15444572269916534
1696958169869590800,5.5535908203125,1.0942726135253906,0.16504120826721191,0.6025180220603943
1696958169879604200,5.563604248046875,4.68082332611084,0.2775338590145111,0.767918586730957
1696958169889617700,5.57361767578125,-2.718869209289551,0.5432500839233398,0.03845340013504028
1696958169899631000,5.583631103515625,2.267423629760742,0.2440158724784851,-0.2221646010875702
1696958169909644500,5.59364453125,0.7328157424926758,1.0663398504257202,0.40134191513061523
1696958169919658000,5.603657958984375,-0.43979358673095703,0.46175527572631836,0.235211580991745
1696958169929671400,5.61367138671875,0.45972347259521484,1.2818288803100586,0.19319552183151245
1696958169939684900,5.623684814453125,0.3870859146118164,1.7055834531784058,0.5725290775299072
1696958169949698300,5.6336982421875,-1.1861143112182617,0.8403499126434326,-0.1694275438785553
1696958169959711700,5.643711669921875,-2.7650928497314453,0.40647581219673157,-0.19725438952445984
1696958169969725200,5.65372509765625,2.8428144454956055,0.43812474608421326,0.21511781215667725
1696958169979738600,5.663738525390625,-2.875068187713623,0.6260713338851929,0.14322549104690552
1696958169989752000,5.673751953125,0.9598026275634766,1.1953420639038086,0.05880060791969299
1696958169999765500,5.683765625,-1.0258474349975586,0.9565578699111938,0.1332147717475891
1696958170009779000,5.693779052734375,-1.486811637878418,2.999624490737915,0.9249932765960693
1696958170019792400,5.70379248046875,-0.21701622009277344,2.1032752990722656,0.28034353256225586
1696958170029805800,5.713805908203125,-0.5417919158935547,0.6219978332519531,-0.2724400758743286
1696958170039819300,5.7238193359375,-0.3685264587402344,-0.5539621710777283,0.8257814049720764
1696958170049832400,5.73383251953125,-2.04531192779541,0.3187952935695648,1.0473099946975708
1696958170059846000,5.743845947265625,2.1934633255004883,1.4148989915847778,0.4592428505420685
1696958170069859300,5.753859375,-1.3676700592041016,0.4669366180896759,0.6485157012939453
1696958170079872800,5.763872802734375,-1.19268798828125,1.3261147737503052,1.0225512981414795
1696958170089886000,5.773885986328125,0.42511749267578125,1.3575111627578735,0.5092843770980835
1696958170099899400,5.7838994140625,-0.9860239028930664,0.5748741626739502,0.31253716349601746
1696958170109912600,5.79391259765625,-2.5323524475097656,-0.3459540009498596,0.13625814020633698
1696958170119926000,5.803926025390625,3.2131757736206055,1.3458590507507324,-0.02914540469646454
1696958170129939200,5.813939208984375,-0.6563043594360352,-0.33000946044921875,-2.0555171966552734
1696958170139952600,5.82395263671875,0.27205944061279297,-6.497200012207031,0.5554096102714539
1696958170149966000,5.833966064453125,-2.4190821647644043,2.475590944290161,-0.8762705326080322
1696958170159980000,5.84397998046875,2.0071401596069336,1.030799150466919,-3.1624767780303955
1696958170169993000,5.853992919921875,-2.6284704208374023,-0.3098642826080322,-0.8603095412254333
1696958170180006100,5.864006103515625,9.530673027038574,-3.419194459915161,-0.6551356315612793
1696958170190019000,5.87401904296875,-2.99900484085083,-1.114951491355896,-2.1946027278900146
1696958170200032300,5.8840322265625,-2.7481932640075684,-0.9458637237548828,-1.1629040241241455
1696958170210045200,5.894045166015625,9.086905479431152,0.33149227499961853,-2.4531681537628174
1696958170220058400,5.904058349609375,-4.660189151763916,1.284170150756836,-1.3821423053741455
1696958170230071600,5.914071533203125,3.231435775756836,1.0442614555358887,-0.7208803296089172
1696958170240084700,5.924084716796875,6.3828535079956055,-0.24222946166992188,-1.689200520515442
1696958170250098000,5.934097900390625,-5.80462646484375,-0.4204241931438446,0.0616941899061203
1696958170260111400,5.944111328125,6.013546943664551,0.48761558532714844,-0.9896716475486755
1696958170270124800,5.954124755859375,-0.23251724243164062,2.310481548309326,-1.3800396919250488
1696958170280138200,5.96413818359375,-2.573622703552246,0.6210020184516907,-1.1946499347686768
1696958170290151700,5.974151611328125,1.0267906188964844,-1.066200852394104,-0.9761388301849365
1696958170300165000,5.9841650390625,-1.345656394958496,1.4316970109939575,-0.5319411754608154
1696958170310178800,5.9941787109375,0.12984943389892578,0.37157171964645386,-0.4583861231803894
1696958170320192500,6.004192626953125,1.0808916091918945,0.6015964150428772,-0.35665327310562134
1696958170330206200,6.014206298828125,-2.624950408935547,0.2304563820362091,-0.05861636996269226
1696958170340219600,6.0242197265625,-0.2239971160888672,0.8965897560119629,-0.19310666620731354
1696958170350233300,6.0342333984375,0.4653606414794922,1.8278123140335083,0.1691630780696869
1696958170360247000,6.0442470703125,-1.2940664291381836,0.9999575018882751,0.9842695593833923
1696958170370260700,6.0542607421875,-0.033580780029296875,0.9799299240112305,0.6291686296463013
1696958170380274000,6.06427392578125,-1.763167381286621,1.3403077125549316,0.3995077610015869
1696958170390287400,6.074287353515625,2.0361452102661133,1.5793683528900146,0.9817180037498474
1696958170400300800,6.08430078125,-1.7486534118652344,1.4472291469573975,0.027839258313179016
1696958170410314200,6.094314208984375,0.4017972946166992,2.686997890472412,0.9395444393157959
1696958170420327400,6.104327392578125,-0.9941387176513672,1.764812707901001,1.4470802545547485
1696958170430340900,6.1143408203125,-0.4610576629638672,1.2855252027511597,1.7573310136795044
1696958170440354000,6.12435400390625,-0.6125106811523438,1.926292896270752,0.8886713981628418
1696958170450367500,6.134367431640625,0.1346883773803711,2.6602249145507812,0.6602710485458374
1696958170460380700,6.144380615234375,-0.21415996551513672,2.2606208324432373,0.3522484302520752
1696958170470394000,6.15439404296875,-2.564704418182373,2.203916072845459,0.08452308177947998
1696958170480407600,6.164407470703125,-0.9859170913696289,1.3091719150543213,0.18616798520088196
1696958170490420700,6.174420654296875,-0.6915054321289062,2.5763144493103027,0.5161619186401367
1696958170500434200,6.18443408203125,-0.899815559387207,2.008366107940674,0.563444972038269
1696958170510447400,6.194447265625,-0.9164094924926758,1.8447034358978271,-0.7100906372070312
1696958170520460800,6.204460693359375,-0.660771369934082,1.4129070043563843,-1.7427477836608887
1696958170530474200,6.21447412109375,-1.0982322692871094,1.6819099187850952,-0.4643552899360657
1696958170540487400,6.2244873046875,-0.15366077423095703,1.488443374633789,0.3367100954055786
1696958170550500900,6.2345009765625,-0.7981605529785156,1.8583234548568726,0.17265728116035461
1696958170560514000,6.24451416015625,0.8432550430297852,2.8262224197387695,-0.1127743050456047
1696958170570527500,6.254527587890625,-0.620880126953125,2.163006544113159,-0.7207107543945312
1696958170580540700,6.264540771484375,-1.068650245666504,1.2903907299041748,0.09493152797222137
1696958170590554000,6.27455419921875,2.68096923828125,1.884376049041748,-0.6459284424781799
1696958170600567600,6.284567626953125,-4.297994613647461,1.3317413330078125,0.07030035555362701
1696958170610580700,6.294580810546875,3.717304229736328,1.9963113069534302,0.2843658924102783
1696958170620594200,6.30459423828125,-3.2111129760742188,1.8385796546936035,-0.47811365127563477
1696958170630607400,6.314607421875,-1.0291070938110352,2.6016435623168945,-0.5389944314956665
1696958170640620800,6.324620849609375,0.8330936431884766,1.0990400314331055,-0.5420730113983154
1696958170650634200,6.33463427734375,-2.5906729698181152,0.7539284229278564,0.3682931959629059
1696958170660647400,6.3446474609375,0.3743267059326172,1.3872652053833008,0.20702339708805084
1696958170670660900,6.354660888671875,-1.9299736022949219,2.2099032402038574,-0.00611625611782074
1696958170680674000,6.364674072265625,2.906468391418457,2.394774913787842,0.3183990716934204
1696958170690687500,6.3746875,-1.8699307441711426,0.9224615693092346,0.5953662395477295
1696958170700700700,6.38470068359375,2.846395492553711,1.6514081954956055,0.5769885778427124
1696958170710714000,6.394714111328125,-1.3848342895507812,2.418736219406128,0.8846516609191895
1696958170720727600,6.4047275390625,1.8340883255004883,1.0599937438964844,0.46007826924324036
1696958170730741000,6.414740966796875,0.25753307342529297,1.3893245458602905,-0.590596616268158
1696958170740754400,6.42475439453125,-1.1389789581298828,1.2680997848510742,0.6964923143386841
1696958170750767600,6.434767578125,3.752470016479492,3.5883660316467285,0.5044175386428833
1696958170760781000,6.444781005859375,-0.1470966339111328,1.8446687459945679,0.9185184836387634
1696958170770794500,6.45479443359375,2.0460386276245117,0.9725974798202515,0.2962135672569275
1696958170780808000,6.464807861328125,-1.8060259819030762,1.7595221996307373,0.46248990297317505
1696958170790821400,6.4748212890625,0.7259407043457031,2.713212251663208,0.3070334792137146
1696958170800834600,6.48483447265625,0.29387664794921875,2.3510067462921143,-0.6005852818489075
1696958170810848000,6.494847900390625,-2.6129817962646484,-0.24859076738357544,-0.43076178431510925
1696958170820861400,6.504861328125,-1.6413955688476562,2.5691094398498535,-0.9816703796386719
1696958170830875000,6.514875,0.6322975158691406,1.5598243474960327,-0.5452773571014404
1696958170840888000,6.52488818359375,-0.2724761962890625,2.5689592361450195,-0.06761395186185837
1696958170850901500,6.534901611328125,-1.0130529403686523,0.7149333953857422,-0.10212484747171402
1696958170860915000,6.5449150390625,-0.6858396530151367,1.027085781097412,-0.3966639041900635
1696958170870928400,6.554928466796875,0.6058759689331055,2.5775563716888428,-0.002048790454864502
1696958170880941800,6.56494189453125,1.1298933029174805,1.1299288272857666,0.3175200819969177
1696958170890955000,6.574955078125,-2.0082173347473145,1.5504374504089355,-0.04807072877883911
1696958170900968400,6.584968505859375,1.6331920623779297,0.8346790671348572,0.34005028009414673
1696958170910982000,6.59498193359375,-0.22977924346923828,2.110527992248535,-0.08981442451477051
1696958170920995300,6.604995361328125,0.4012632369995117,0.7759532928466797,-0.006436347961425781
1696958170931008800,6.6150087890625,-0.780125617980957,1.2502264976501465,-0.19950376451015472
1696958170941022000,6.62502197265625,0.5979385375976562,1.492894172668457,0.02531418204307556
1696958170951035400,6.635035400390625,-0.66973876953125,1.0025334358215332,-0.036125749349594116
1696958170961048800,6.645048828125,-1.1271142959594727,1.3367319107055664,0.38168865442276
1696958170971062300,6.655062255859375,0.33347415924072266,1.2627370357513428,-0.1346181333065033
1696958170981075500,6.665075439453125,-1.3542375564575195,1.7546294927597046,-0.06682030856609344
1696958170991089000,6.6750888671875,-0.17040061950683594,0.9219233393669128,-0.22105179727077484
1696958171001102300,6.685102294921875,-2.927239418029785,-0.7852177619934082,-0.8086527585983276
1696958171011115800,6.69511572265625,-1.4866209030151367,-1.9633400440216064,-0.7149108052253723
1696958171021129200,6.705129150390625,0.3717012405395508,1.2246699333190918,-2.3939783573150635
1696958171031142400,6.715142333984375,-4.006914138793945,3.561295509338379,-2.139882802963257
1696958171041155800,6.72515576171875,3.2859935760498047,1.8176398277282715,-2.7071614265441895
1696958171051169300,6.735169189453125,-3.498985767364502,1.884279489517212,-1.2796335220336914
1696958171061182700,6.7451826171875,0.9248104095458984,1.533503532409668,-0.8568521738052368
1696958171071196200,6.755196044921875,-1.0610694885253906,1.5792477130889893,-0.8245939016342163
1696958171081209300,6.765209228515625,3.652921676635742,1.6504194736480713,0.15990906953811646
1696958171091222800,6.775222900390625,-1.297684669494629,1.1991606950759888,-0.3084326684474945
1696958171101236200,6.785236328125,0.2285623550415039,2.8456008434295654,-0.5107085704803467
1696958171111249700,6.795249755859375,2.27329158782959,1.9802477359771729,-0.3787035048007965
1696958171121262800,6.805262939453125,-0.529022216796875,0.9575938582420349,0.3740106225013733
1696958171131276300,6.8152763671875,-1.5128145217895508,0.32236653566360474,-0.1411999762058258
1696958171141289700,6.825289794921875,-0.10003089904785156,1.2744210958480835,-0.8199347853660583
1696958171151303200,6.83530322265625,0.02408885955810547,0.9800187945365906,-1.8175345659255981
1696958171161316600,6.845316650390625,-1.8594517707824707,0.8635079264640808,-0.6916850209236145
1696958171171329800,6.855329833984375,1.117325782775879,0.6455813646316528,0.08060488104820251
1696958171181343200,6.86534326171875,-1.709904670715332,0.3656606078147888,0.5439704656600952
1696958171191356700,6.875356689453125,3.2447729110717773,1.1935971975326538,-0.1996699571609497
1696958171201370000,6.8853701171875,-1.924248218536377,0.9213853478431702,-0.314805269241333
1696958171211383600,6.895383544921875,0.034592628479003906,0.5088747143745422,1.0171399116516113
1696958171221396700,6.905396728515625,0.7420825958251953,0.9780696630477905,0.33769306540489197
1696958171231410200,6.91541015625,-1.8980255126953125,0.708929181098938,1.1026637554168701
1696958171241423600,6.925423583984375,2.876100540161133,1.2700996398925781,1.1017035245895386
1696958171251437000,6.93543701171875,-1.9815917015075684,0.6153087615966797,1.1346570253372192
1696958171261450200,6.9454501953125,2.4291372299194336,0.7607261538505554,0.4766402542591095
1696958171271463700,6.955463623046875,-0.9457511901855469,0.5664114952087402,0.7542631030082703
1696958171281477000,6.96547705078125,1.0252933502197266,0.7550801634788513,0.933293879032135
1696958171291490600,6.975490478515625,-0.7644014358520508,0.28285497426986694,0.9388769865036011
1696958171301504000,6.98550390625,0.6948680877685547,1.0110952854156494,1.1338032484054565
1696958171311517200,6.99551708984375,-0.19576740264892578,-0.09707480669021606,-0.041178107261657715
1696958171321530600,7.005530517578125,-1.1845197677612305,1.1887681484222412,1.2110973596572876
1696958171331544000,7.0155439453125,2.512483596801758,0.08738845586776733,0.7888946533203125
1696958171341557500,7.0255576171875,-1.0445098876953125,0.5919051170349121,0.2342412769794464
1696958171351571000,7.035571044921875,0.8885774612426758,0.21209502220153809,0.29423266649246216
1696958171361584000,7.045584228515625,-1.2590656280517578,0.3847671151161194,1.0609850883483887
1696958171371597600,7.05559765625,0.024465560913085938,-0.008163034915924072,0.35682058334350586
1696958171381611000,7.065611083984375,0.7795467376708984,0.6572714447975159,0.4997044801712036
1696958171391624400,7.07562451171875,0.21359729766845703,0.561718225479126,0.3779074549674988
1696958171401638000,7.085637939453125,-0.3220643997192383,0.30795902013778687,0.061014533042907715
1696958171411651000,7.095651123046875,-2.5005545616149902,-0.0014674067497253418,0.09740439057350159
1696958171421664500,7.10566455078125,1.87371826171875,0.5367446541786194,-0.057978659868240356
1696958171431678000,7.115677978515625,-0.8833122253417969,0.3255642056465149,-0.6127802133560181
1696958171441691400,7.12569140625,-0.9956169128417969,0.15735596418380737,0.30665504932403564
1696958171451704600,7.13570458984375,1.2244939804077148,0.6717363595962524,0.5381776094436646
1696958171461718000,7.145718017578125,1.3218374252319336,0.10267424583435059,-0.7767197489738464
1696958171471731500,7.1557314453125,-2.7719454765319824,0.6498482823371887,-0.05261242389678955
1696958171481745000,7.165744873046875,3.3758983612060547,0.531842827796936,0.8658318519592285
1696958171491758300,7.17575830078125,-0.8806180953979492,0.5080914497375488,0.528866708278656
1696958171501771500,7.185771484375,0.9417533874511719,-0.14584100246429443,0.023487180471420288
1696958171511785000,7.195784912109375,-0.08298873901367188,1.3773419857025146,0.3625275492668152
1696958171521798400,7.20579833984375,-0.08319950103759766,0.14997732639312744,-0.19517993927001953
1696958171531811800,7.215811767578125,0.1844654083251953,0.8212456107139587,-0.6112927794456482
1696958171541825300,7.2258251953125,-1.0585060119628906,-0.0501369833946228,-0.09039467573165894
1696958171551838500,7.23583837890625,-0.8217334747314453,1.2249424457550049,-0.8037254810333252
1696958171561852000,7.245851806640625,0.3750581741333008,-0.3022395670413971,-0.6063499450683594
1696958171571865300,7.255865234375,-3.004305839538574,0.09781616926193237,-0.11656810343265533
1696958171581878800,7.265878662109375,2.4462451934814453,0.1349031925201416,-0.12323237955570221
1696958171591892000,7.27589208984375,-1.1053733825683594,1.7338294982910156,-0.3761749267578125
1696958171601905400,7.285905517578125,0.3404579162597656,0.32950568199157715,0.7566442489624023
1696958171611918800,7.2959189453125,0.0004558563232421875,1.0902562141418457,-0.25145983695983887
1696958171621932300,7.305932373046875,-0.5732927322387695,0.7513489723205566,0.03181138634681702
1696958171631945700,7.31594580078125,0.7805566787719727,1.0175423622131348,-0.4031444489955902
1696958171641959000,7.325958984375,-0.9659214019775391,0.6374881863594055,-0.7457891702651978
1696958171651972400,7.335972412109375,1.9227714538574219,0.1242516040802002,0.022098571062088013
1696958171661985800,7.34598583984375,-0.24677658081054688,0.735785722732544,-0.3875863552093506
1696958171671999200,7.355999267578125,-0.30388450622558594,0.581540584564209,-0.14873576164245605
1696958171682012700,7.3660126953125,0.08417701721191406,0.4670775532722473,0.09165084362030029
1696958171692025900,7.37602587890625,-1.7419519424438477,-0.6769918203353882,-0.0845976173877716
1696958171702039300,7.386039306640625,1.4212684631347656,0.20805585384368896,-0.3492715358734131
1696958171712052700,7.396052734375,-0.049324989318847656,0.5265156626701355,-0.8361636996269226
1696958171722066200,7.406066162109375,-0.6129903793334961,0.7223854064941406,0.7892968058586121
1696958171732079400,7.416079345703125,3.0633935928344727,0.5432238578796387,-0.49208858609199524
1696958171742092800,7.4260927734375,-2.7025136947631836,0.13205665349960327,-0.007159918546676636
1696958171752106200,7.436106201171875,2.479620933532715,0.3892425298690796,0.18665191531181335
1696958171762119700,7.44611962890625,-1.784132957458496,0.754705548286438,-0.024463176727294922
1696958171772133000,7.456133056640625,-0.17899131774902344,0.2504197955131531,-0.32221513986587524
1696958171782146300,7.466146240234375,0.5911045074462891,0.31940197944641113,0.09256675839424133
1696958171792159700,7.47615966796875,-0.1365070343017578,0.7467699646949768,0.0032051503658294678
1696958171802173200,7.486173095703125,0.28423595428466797,-0.2608546018600464,-0.2755877375602722
1696958171812186600,7.4961865234375,-1.2311162948608398,0.02708381414413452,-0.4840139150619507
1696958171822200000,7.506199951171875,0.22016048431396484,1.3012703657150269,0.7822848558425903
1696958171832213200,7.516213134765625,2.661722183227539,-0.534599244594574,0.5638619065284729
1696958171842226700,7.526226806640625,-2.0330090522766113,0.7508295178413391,-0.4503045976161957
1696958171852240100,7.536240234375,-0.8618059158325195,-0.46745142340660095,0.6296932697296143
1696958171862253600,7.546253662109375,2.504704475402832,1.3397257328033447,0.5824446678161621
1696958171872266800,7.556266845703125,0.1188192367553711,-0.14039582014083862,-0.009423226118087769
1696958171882280200,7.5662802734375,-2.428837776184082,0.22035574913024902,-0.11924150586128235
1696958171892293600,7.576293701171875,2.4996156692504883,0.8747068047523499,0.8547515869140625
1696958171902307000,7.58630712890625,-0.16342926025390625,0.5764594674110413,0.00810191035270691
1696958171912320500,7.596320556640625,-2.2516965866088867,-1.0047470331192017,-0.16159208118915558
1696958171922333700,7.606333740234375,1.257035255432129,0.6749569177627563,0.022824376821517944
1696958171932347100,7.61634716796875,-1.9043760299682617,0.5828190445899963,0.8569035530090332
1696958171942360600,7.626360595703125,2.5870418548583984,0.252802312374115,-0.17907321453094482
1696958171952374000,7.6363740234375,-1.9635200500488281,0.889240562915802,-0.03655853867530823
1696958171962387500,7.646387451171875,-0.6876382827758789,0.37285876274108887,0.610129714012146
1696958171972400600,7.656400634765625,1.024958610534668,0.3214060068130493,0.3704196810722351
1696958171982414000,7.6664140625,-0.8940114974975586,0.23467904329299927,-0.7480731010437012
1696958171992427500,7.676427490234375,-3.1904029846191406,-0.5292874574661255,0.2627394199371338
1696958172002441000,7.68644091796875,5.046607971191406,1.3884456157684326,0.4094991087913513
1696958172012454100,7.6964541015625,-3.0321645736694336,0.1466502547264099,-0.2395293414592743
1696958172022467600,7.706467529296875,-0.5212850570678711,0.1983398199081421,0.7582659125328064
1696958172032481000,7.71648095703125,3.7668676376342773,-0.2382209300994873,-0.19937647879123688
1696958172042494500,7.726494384765625,-5.7808518409729,1.4315991401672363,0.2773091495037079
1696958172052508000,7.7365078125,4.559654235839844,-0.9891412854194641,0.22063016891479492
1696958172062521000,7.74652099609375,-1.0421857833862305,1.1689453125,0.4398208260536194
1696958172072534500,7.756534423828125,0.8424167633056641,-0.6559206247329712,-0.01466989517211914
1696958172082548000,7.7665478515625,0.3627595901489258,1.1288719177246094,0.019065678119659424
1696958172092561400,7.7765615234375,0.05079841613769531,0.11177021265029907,0.28930339217185974
1696958172102574800,7.786574951171875,0.03643035888671875,-0.22377532720565796,-0.22807228565216064
1696958172112588000,7.796588134765625,0.36089229583740234,0.8058813214302063,-0.1250970959663391
1696958172122601500,7.8066015625,0.32691192626953125,-0.23906010389328003,-0.5664180517196655
1696958172132615000,7.816614990234375,-1.5619087219238281,0.29271507263183594,0.4683084785938263
1696958172142628400,7.82662841796875,4.874456405639648,0.4386429190635681,-0.10203352570533752
1696958172152641800,7.836641845703125,-4.905454635620117,0.4455731511116028,-0.06800809502601624
1696958172162655000,7.846655029296875,3.268378257751465,-0.30816152691841125,0.17905408143997192
1696958172172668400,7.85666845703125,-0.6386508941650391,0.5877171158790588,-0.07240122556686401
1696958172182681900,7.866681884765625,-1.0245914459228516,0.18887239694595337,0.6275545358657837
1696958172192695300,7.8766953125,3.135542869567871,0.2937859296798706,-0.3738519847393036
1696958172202708500,7.88670849609375,-3.5768399238586426,0.9502761960029602,0.023884683847427368
1696958172212722000,7.896721923828125,1.2966976165771484,-0.12241208553314209,0.41075363755226135
1696958172222735400,7.9067353515625,-0.5272712707519531,-0.1070857048034668,-0.2759878635406494
1696958172232748800,7.916748779296875,-0.01941680908203125,0.3154851794242859,-0.24475063383579254
1696958172242762200,7.92676220703125,0.09073352813720703,0.35051608085632324,0.28676557540893555
1696958172252775400,7.936775390625,1.0892324447631836,0.6424790024757385,-0.030156224966049194
1696958172262788900,7.946788818359375,-2.2346763610839844,-0.14236170053482056,-0.2745634615421295
1696958172272802300,7.95680224609375,0.9819746017456055,0.7333071231842041,-0.055467575788497925
1696958172282815700,7.966815673828125,-0.3196525573730469,-0.09434843063354492,-0.14576174318790436
1696958172292829200,7.9768291015625,-2.7946619987487793,0.34084635972976685,0.22439774870872498
1696958172302842400,7.98684228515625,4.916012763977051,0.0033318400382995605,-0.5209623575210571
1696958172312855800,7.996855712890625,-5.513461589813232,0.7438787221908569,0.09714815020561218
1696958172322869200,8.006869140625,2.795626640319824,0.311329185962677,0.7473573684692383
1696958172332882700,8.016882568359375,-0.14473533630371094,0.7164332866668701,0.14709168672561646
1696958172342895900,8.026895751953125,-1.2346210479736328,-0.44288191199302673,-0.5199009776115417
1696958172352909300,8.036909423828124,0.7473506927490234,0.8945341110229492,0.045175701379776
1696958172362922800,8.0469228515625,-1.5817880630493164,0.9432862401008606,0.8190730214118958
1696958172372936200,8.056936279296876,2.034757614135742,-0.7997280955314636,-0.14695794880390167
1696958172382949600,8.06694970703125,-1.7072830200195312,1.2169471979141235,-0.6253716349601746
1696958172392962800,8.076962890625,-0.1880340576171875,-0.06479841470718384,0.07756611704826355
1696958172402976300,8.086976318359374,-0.10158252716064453,0.7479250431060791,0.3314194679260254
1696958172412989700,8.09698974609375,1.4518604278564453,0.30155301094055176,0.07210966944694519
1696958172423003100,8.107003173828126,-2.4846858978271484,-0.15595781803131104,-0.772505521774292
1696958172433016600,8.1170166015625,0.2836265563964844,0.7386634349822998,0.2917153835296631
1696958172443029800,8.12702978515625,1.5402336120605469,0.5978564620018005,-0.23947250843048096
1696958172453043200,8.137043212890624,-1.3311519622802734,-1.073838233947754,-0.47472381591796875
1696958172463056600,8.147056640625,0.4168996810913086,1.0449378490447998,0.6510951519012451
1696958172473070000,8.157070068359374,0.7648983001708984,0.3681063652038574,0.5885123014450073
1696958172483083300,8.167083251953125,0.8680219650268555,0.7828772664070129,-0.38034701347351074
1696958172493096700,8.1770966796875,-1.2987422943115234,-0.37155911326408386,0.29372748732566833
1696958172503110100,8.187110107421875,1.2849645614624023,0.028934597969055176,0.559044599533081
1696958172513123600,8.19712353515625,0.9476594924926758,1.2803722620010376,0.39111846685409546
1696958172523137000,8.207136962890624,-1.4396238327026367,-0.24360960721969604,0.3823806643486023
1696958172533150200,8.217150146484375,1.307042121887207,0.1433708667755127,0.7382753491401672
