time,seconds_elapsed,z,y,x
1696964978549298400,0.18329833984375,-0.09387365728616714,-0.02982652559876442,0.004394086077809334
1696964978559206400,0.193206298828125,-0.0981345921754837,-0.01384802907705307,-0.014780107885599136
1696964978569149200,0.203149169921875,-0.10133028775453568,-0.03408745676279068,0.012915950268507004
1696964978579128300,0.21312841796875,-0.09387365728616714,-0.01491326279938221,0.00226362026296556
1696964978589143800,0.223143798828125,-0.09493889659643173,-0.03408745676279068,0.011850717477500439
1696964978599193900,0.23319384765625,-0.0991998240351677,-0.009587096981704235,-0.024367205798625946
1696964978609276000,0.24327587890625,-0.09174319356679916,-0.04580501839518547,0.03848154470324516
1696964978619385900,0.2533857421875,-0.09387365728616714,-0.02343512699007988,-0.005193010903894901
1696964978629518800,0.263518798828125,-0.09706936031579971,-0.02343512699007988,-0.0030625448562204838
1696964978639669000,0.2736689453125,-0.09280842542648315,-0.03408745676279068,0.025698747485876083
1696964978649830400,0.283830322265625,-0.08961272984743118,-0.03408745676279068,0.00226362026296556
1696964978659996700,0.29399658203125,-0.09387365728616714,-0.01810896210372448,0.011850717477500439
1696964978670127600,0.304127685546875,-0.09493889659643173,-0.0159784946590662,-0.011584409512579441
1696964978680141800,0.314141845703125,-0.08961272984743118,-0.03089175745844841,0.043807707726955414
1696964978690156000,0.324156005859375,-0.09280842542648315,-0.007456631399691105,-0.026497671380639076
1696964978700170000,0.334169921875,-0.09280842542648315,-0.0213046595454216,0.005459319334477186
1696964978710184200,0.34418408203125,-0.09067796170711517,-0.004260932095348835,0.012915950268507004
1696964978720198400,0.354198486328125,-0.09280842542648315,-0.02236989326775074,-0.027562905102968216
1696964978730212600,0.364212646484375,-0.09387365728616714,-0.004260932095348835,-0.009453942999243736
1696964978740226800,0.374226806640625,-0.08961272984743118,-0.02663082629442215,0.013981183059513569
1696964978750241000,0.384240966796875,-0.09174319356679916,-0.01171756349503994,-0.03928046673536301
1696964978760255000,0.3942548828125,-0.09174319356679916,-0.0319569893181324,0.005459319334477186
1696964978770269200,0.404269287109375,-0.09387365728616714,-0.0106523297727108,-0.026497671380639076
1696964978780283400,0.414283447265625,-0.08854749798774719,-0.04473978653550148,0.007589785382151604
1696964978790297600,0.424297607421875,-0.09174319356679916,-0.02450035884976387,-0.020106272771954536
1696964978800311800,0.434311767578125,-0.0981345921754837,-0.01491326279938221,-0.023301972076296806
1696964978810326000,0.444325927734375,-0.08961272984743118,-0.0532616525888443,0.04274247586727142
1696964978820340200,0.45434033203125,-0.09600412845611572,-0.0159784946590662,-0.026497671380639076
1696964978830354200,0.464354248046875,-0.10026505589485168,-0.02343512699007988,-0.001997311832383275
1696964978840368400,0.474368408203125,-0.09706936031579971,-0.02663082629442215,0.027829213067889214
1696964978850382600,0.484382568359375,-0.0981345921754837,-0.02556559257209301,-0.004127778112888336
1696964978860396800,0.494396728515625,-0.10452599078416824,-0.012782796286046505,0.008655018173158169
1696964978870411000,0.504410888671875,-0.10133028775453568,-0.0159784946590662,0.026763979345560074
1696964978880425200,0.51442529296875,-0.10026505589485168,-0.02450035884976387,0.025698747485876083
1696964978890439200,0.524439208984375,-0.10346075892448425,-0.0106523297727108,-0.006258244160562754
1696964978900453400,0.534453369140625,-0.10452599078416824,-0.007456631399691105,0.03528584539890289
1696964978910467600,0.544467529296875,-0.0991998240351677,-0.03408745676279068,0.024633513763546944
1696964978920481800,0.554481689453125,-0.10133028775453568,0.0031956990715116262,0.005459319334477186
1696964978930496000,0.56449609375,-0.10346075892448425,-0.01810896210372448,0.027829213067889214
1696964978940510200,0.57451025390625,-0.10133028775453568,-0.0159784946590662,0.015046416781842709
1696964978950524200,0.584524169921875,-0.09706936031579971,-0.0106523297727108,0.026763979345560074
1696964978960538400,0.594538330078125,-0.10133028775453568,-0.009587096981704235,-0.007323476951569319
1696964978970552600,0.604552490234375,-0.10026505589485168,0.004260932095348835,0.024633513763546944
1696964978980566800,0.61456689453125,-0.09600412845611572,-0.0106523297727108,0.03209014609456062
1696964978990581000,0.6245810546875,-0.0991998240351677,0.012782796286046505,-0.021171506494283676
1696964979000595200,0.63459521484375,-0.0991998240351677,0.0031956990715116262,0.034220609813928604
1696964979010609200,0.644609130859375,-0.09706936031579971,0.01704372838139534,-0.001997311832383275
1696964979020623400,0.654623291015625,-0.09600412845611572,0.0021304660476744175,0.007589785382151604
1696964979030637600,0.664637451171875,-0.0991998240351677,0.02343512699007988,-0.016910573467612267
1696964979040651800,0.67465185546875,-0.09387365728616714,-0.0053261648863554,0.027829213067889214
1696964979050666000,0.684666015625,-0.09493889659643173,-0.0021304660476744175,-0.019041040912270546
1696964979060680200,0.69468017578125,-0.09493889659643173,0.0021304660476744175,-0.001997311832383275
1696964979070694100,0.704694091796875,-0.09600412845611572,-0.02023942768573761,0.005459319334477186
1696964979080708400,0.714708251953125,-0.09280842542648315,-0.012782796286046505,-0.011584409512579441
1696964979090722600,0.72472265625,-0.09280842542648315,-0.03089175745844841,0.020372580736875534
1696964979100736800,0.73473681640625,-0.0981345921754837,-0.01917419396340847,-0.024367205798625946
1696964979110751000,0.7447509765625,-0.09280842542648315,-0.03408745676279068,0.024633513763546944
1696964979120765200,0.75476513671875,-0.09387365728616714,-0.03728315606713295,0.009720250964164734
1696964979130779400,0.764779296875,-0.10239552706480026,0.004260932095348835,-0.03288906812667847
1696964979140793300,0.77479345703125,-0.09706936031579971,-0.05006595328450203,0.048068638890981674
1696964979150807600,0.7848076171875,-0.09600412845611572,-0.0031956990715116262,-0.005193010903894901
1696964979160821800,0.79482177734375,-0.10239552706480026,-0.012782796286046505,0.007589785382151604
1696964979170836000,0.8048359375,-0.10239552706480026,0.0010652330238372087,0.020372580736875534
1696964979180850200,0.81485009765625,-0.0981345921754837,-0.007456631399691105,0.024633513763546944
1696964979190864400,0.824864501953125,-0.10026505589485168,-0.012782796286046505,0.0033288532868027687
1696964979200878600,0.834878662109375,-0.10346075892448425,0.0106523297727108,0.008655018173158169
1696964979210892800,0.844892822265625,-0.10026505589485168,-0.01171756349503994,0.021437814459204674
1696964979220907000,0.854906982421875,-0.09600412845611572,-0.01384802907705307,0.007589785382151604
1696964979230921200,0.864921142578125,-0.10026505589485168,0.0010652330238372087,-0.0009320789249613881
1696964979240935400,0.874935302734375,-0.09706936031579971,-0.03302222490310669,0.026763979345560074
1696964979250949600,0.88494970703125,-0.09387365728616714,-0.01810896210372448,0.00226362026296556
1696964979260963800,0.8949638671875,-0.09493889659643173,-0.02556559257209301,-0.005193010903894901
1696964979270978000,0.90497802734375,-0.09706936031579971,-0.03728315606713295,0.008655018173158169
1696964979280992300,0.9149921875,-0.08854749798774719,-0.03941362351179123,0.00226362026296556
1696964979291006500,0.92500634765625,-0.09174319356679916,-0.04154408723115921,-0.0009320789249613881
1696964979301020700,0.935020751953125,-0.09280842542648315,-0.03621792420744896,-0.0030625448562204838
1696964979311035000,0.945034912109375,-0.09387365728616714,-0.03515268862247467,0.0011983871227130294
1696964979321049000,0.955049072265625,-0.09174319356679916,-0.0319569893181324,0.006524552125483751
1696964979331063300,0.965063232421875,-0.09280842542648315,-0.02982652559876442,-0.010519175790250301
1696964979341077500,0.975077392578125,-0.09600412845611572,-0.004260932095348835,-0.004127778112888336
1696964979351091700,0.985091796875,-0.09387365728616714,-0.0106523297727108,0.009720250964164734
1696964979361106000,0.99510595703125,-0.09387365728616714,-0.02450035884976387,-0.004127778112888336
1696964979371120000,1.0051201171875,-0.0991998240351677,0.00852186419069767,-0.016910573467612267
1696964979381134300,1.01513427734375,-0.09493889659643173,-0.01384802907705307,0.005459319334477186
1696964979391148500,1.0251484375,-0.09174319356679916,0,-0.004127778112888336
1696964979401162800,1.035162841796875,-0.09280842542648315,-0.01491326279938221,-0.0030625448562204838
1696964979411177000,1.045177001953125,-0.09387365728616714,0.00852186419069767,-0.020106272771954536
1696964979421191400,1.05519140625,-0.0874822586774826,-0.02663082629442215,0.029959678649902344
1696964979431205600,1.06520556640625,-0.08961272984743118,-0.0031956990715116262,-0.020106272771954536
1696964979441219800,1.0752197265625,-0.08961272984743118,-0.02343512699007988,-0.001997311832383275
1696964979451234000,1.085234130859375,-0.0874822586774826,-0.0159784946590662,0.005459319334477186
1696964979461248300,1.095248291015625,-0.08428656309843063,-0.02556559257209301,0.004394086077809334
1696964979471262500,1.105262451171875,-0.0874822586774826,-0.01704372838139534,-0.029693370684981346
1696964979481276700,1.115276611328125,-0.09067796170711517,-0.004260932095348835,0.008655018173158169
1696964979491291000,1.125290771484375,-0.08322133123874664,-0.03834838792681694,0.013981183059513569
1696964979501305000,1.13530517578125,-0.0874822586774826,0.0021304660476744175,-0.027562905102968216
1696964979511319300,1.1453193359375,-0.09067796170711517,-0.01171756349503994,0.015046416781842709
1696964979521333500,1.15533349609375,-0.08854749798774719,-0.0031956990715116262,-0.011584409512579441
1696964979531347700,1.16534765625,-0.08854749798774719,0.004260932095348835,-0.015845341607928276
1696964979541362000,1.17536181640625,-0.08961272984743118,0.004260932095348835,0.007589785382151604
1696964979551376100,1.185376220703125,-0.09280842542648315,0.012782796286046505,-0.012649642303586006
1696964979561390300,1.195390380859375,-0.09174319356679916,0.01384802907705307,0.0033288532868027687
1696964979571404500,1.205404541015625,-0.09280842542648315,0.0053261648863554,-0.015845341607928276
1696964979581418800,1.215418701171875,-0.09280842542648315,0.02769605815410614,-0.001997311832383275
1696964979591433000,1.225432861328125,-0.09067796170711517,-0.012782796286046505,0.0033288532868027687
1696964979601447200,1.235447265625,-0.09280842542648315,0.01384802907705307,-0.023301972076296806
1696964979611461400,1.24546142578125,-0.09174319356679916,-0.009587096981704235,0.023568280041217804
1696964979621475600,1.2554755859375,-0.09600412845611572,0.0053261648863554,-0.04673709720373154
1696964979631489800,1.26548974609375,-0.08961272984743118,-0.02450035884976387,0.048068638890981674
1696964979641504000,1.27550390625,-0.09280842542648315,-0.009587096981704235,-0.026497671380639076
1696964979651518200,1.285518310546875,-0.09706936031579971,-0.0031956990715116262,-0.011584409512579441
1696964979661532700,1.29553271484375,-0.09174319356679916,-0.02982652559876442,0.040612008422613144
1696964979671547000,1.305546875,-0.09280842542648315,-0.0031956990715116262,-0.03288906812667847
1696964979681561000,1.31556103515625,-0.09600412845611572,-0.0213046595454216,0.029959678649902344
1696964979691575300,1.3255751953125,-0.09706936031579971,0.0106523297727108,-0.011584409512579441
1696964979701589500,1.335589599609375,-0.09280842542648315,-0.01704372838139534,0.034220609813928604
1696964979711604200,1.345604248046875,-0.09387365728616714,-0.004260932095348835,-0.006258244160562754
1696964979721618700,1.35561865234375,-0.0981345921754837,0.02876129187643528,0.00226362026296556
1696964979731633000,1.3656328125,-0.09493889659643173,-0.01491326279938221,0.037416309118270874
1696964979741647000,1.375647216796875,-0.09174319356679916,0.02236989326775074,-0.014780107885599136
1696964979751661300,1.385661376953125,-0.09387365728616714,-0.004260932095348835,0.015046416781842709
1696964979761675500,1.395675537109375,-0.09387365728616714,0.01704372838139534,-0.006258244160562754
1696964979771689700,1.405689697265625,-0.08961272984743118,-0.00852186419069767,0.017176883295178413
1696964979781704000,1.415703857421875,-0.0874822586774826,-0.0010652330238372087,-0.007323476951569319
1696964979791718100,1.42571826171875,-0.08961272984743118,-0.0159784946590662,0.010785484686493874
1696964979801732400,1.435732421875,-0.08535179495811462,0.0021304660476744175,-0.0009320789249613881
1696964979811746600,1.44574658203125,-0.08215609937906265,-0.03728315606713295,0.011850717477500439
1696964979821760800,1.4557607421875,-0.08322133123874664,-0.0159784946590662,-0.004127778112888336
1696964979831775000,1.46577490234375,-0.08641702681779861,-0.004260932095348835,0.0011983871227130294
1696964979841789400,1.47578955078125,-0.0768299326300621,-0.05858781561255455,0.027829213067889214
1696964979851803600,1.4858037109375,-0.08215609937906265,0,-0.013714875094592571
1696964979861817900,1.49581787109375,-0.08535179495811462,-0.02663082629442215,0.026763979345560074
1696964979871832000,1.50583203125,-0.08428656309843063,-0.012782796286046505,-0.001997311832383275
1696964979881846300,1.51584619140625,-0.08002562820911407,-0.0213046595454216,0.023568280041217804
1696964979891860500,1.525860595703125,-0.08535179495811462,-0.01810896210372448,0.004394086077809334
1696964979901874700,1.535874755859375,-0.08961272984743118,0.009587096981704235,0.0001331541279796511
1696964979911889000,1.545888916015625,-0.08641702681779861,-0.01917419396340847,0.04593817517161369
1696964979921903000,1.555903076171875,-0.08641702681779861,-0.012782796286046505,-0.020106272771954536
1696964979931917300,1.565917236328125,-0.09067796170711517,0.007456631399691105,0.009720250964164734
1696964979941931500,1.575931640625,-0.08854749798774719,-0.02343512699007988,0.031024912372231483
1696964979951945700,1.58594580078125,-0.08854749798774719,-0.0063913981430232525,-0.012649642303586006
1696964979961960000,1.5959599609375,-0.08961272984743118,-0.01171756349503994,0.010785484686493874
1696964979971974100,1.60597412109375,-0.09174319356679916,-0.0106523297727108,0.004394086077809334
1696964979981988400,1.61598828125,-0.0874822586774826,-0.01384802907705307,0.010785484686493874
1696964979992002600,1.62600244140625,-0.08854749798774719,-0.02236989326775074,0.0033288532868027687
1696964980002016800,1.636016845703125,-0.08961272984743118,-0.01171756349503994,-0.005193010903894901
1696964980012031000,1.646031005859375,-0.09067796170711517,-0.004260932095348835,0.0033288532868027687
1696964980022045200,1.656045166015625,-0.08428656309843063,-0.03834838792681694,0.028894444927573204
1696964980032059400,1.666059326171875,-0.08854749798774719,-0.0031956990715116262,-0.048867564648389816
1696964980042073600,1.676073486328125,-0.08961272984743118,-0.01171756349503994,0.036351077258586884
1696964980052087800,1.686087890625,-0.08535179495811462,-0.01491326279938221,-0.0030625448562204838
1696964980062102000,1.69610205078125,-0.08428656309843063,-0.01384802907705307,-0.014780107885599136
1696964980072116200,1.7061162109375,-0.0874822586774826,-0.007456631399691105,0.005459319334477186
1696964980082130700,1.716130615234375,-0.08641702681779861,-0.0063913981430232525,-0.009453942999243736
1696964980092145000,1.726144775390625,-0.08002562820911407,-0.00852186419069767,0.012915950268507004
1696964980102159000,1.7361591796875,-0.08215609937906265,-0.009587096981704235,-0.010519175790250301
1696964980112173300,1.74617333984375,-0.08322133123874664,0.0010652330238372087,0.0033288532868027687
1696964980122187500,1.7561875,-0.0778951644897461,-0.0031956990715116262,0.009720250964164734
1696964980132201700,1.76620166015625,-0.0768299326300621,-0.0106523297727108,0.0011983871227130294
1696964980142216000,1.7762158203125,-0.0778951644897461,0.004260932095348835,-0.010519175790250301
1696964980152230100,1.786230224609375,-0.0778951644897461,-0.0021304660476744175,0.020372580736875534
1696964980162244400,1.796244384765625,-0.07256899774074554,0.0031956990715116262,0.006524552125483751
1696964980172258600,1.806258544921875,-0.07150376588106155,-0.01384802907705307,-0.0009320789249613881
1696964980182272800,1.816272705078125,-0.07469946891069412,0.01810896210372448,0.004394086077809334
1696964980192287000,1.826286865234375,-0.07043853402137756,-0.0053261648863554,0.018242115154862404
1696964980202301200,1.83630126953125,-0.067242830991745,0.00852186419069767,-0.008388710208237171
1696964980212315400,1.8463154296875,-0.06830807030200958,0.0010652330238372087,0.008655018173158169
1696964980222329600,1.85632958984375,-0.067242830991745,0.0021304660476744175,0.005459319334477186
1696964980232343800,1.86634375,-0.06404713541269302,0.009587096981704235,0.009720250964164734
1696964980242358000,1.87635791015625,-0.06298190355300903,-0.0031956990715116262,0.005459319334477186
1696964980252372200,1.886372314453125,-0.06404713541269302,0.01171756349503994,-0.006258244160562754
1696964980262386400,1.896386474609375,-0.06298190355300903,0.0106523297727108,0.005459319334477186
1696964980272400600,1.906400634765625,-0.05659050494432449,-0.004260932095348835,0.020372580736875534
1696964980282414800,1.916414794921875,-0.05978620424866676,0.02023942768573761,-0.024367205798625946
1696964980292429000,1.926428955078125,-0.058720968663692474,-0.0063913981430232525,0.026763979345560074
1696964980302443300,1.936443359375,-0.0555252730846405,0.0213046595454216,-0.011584409512579441
1696964980312457700,1.946457763671875,-0.054460037499666214,-0.009587096981704235,0.015046416781842709
1696964980322472000,1.956471923828125,-0.05659050494432449,0.01491326279938221,-0.013714875094592571
1696964980332486100,1.966486083984375,-0.05659050494432449,0.00852186419069767,-0.006258244160562754
1696964980342500400,1.976500244140625,-0.051264338195323944,0.0063913981430232525,0.021437814459204674
1696964980352514600,1.9865146484375,-0.05232957378029823,-0.0010652330238372087,-0.030758604407310486
1696964980362528800,1.99652880859375,-0.054460037499666214,0.01810896210372448,0.009720250964164734
1696964980372543000,2.00654296875,-0.050199106335639954,-0.01171756349503994,0.009720250964164734
1696964980382557200,2.01655712890625,-0.04913387447595596,0.01384802907705307,-0.027562905102968216
1696964980392571400,2.0265712890625,-0.050199106335639954,-0.004260932095348835,0.029959678649902344
1696964980402585600,2.036585693359375,-0.05232957378029823,0.007456631399691105,-0.03288906812667847
1696964980412599800,2.046599853515625,-0.047003407031297684,0.0010652330238372087,0.03209014609456062
1696964980422614000,2.056614013671875,-0.04593817517161369,-0.0063913981430232525,-0.004127778112888336
1696964980432628200,2.066628173828125,-0.050199106335639954,0.01384802907705307,-0.012649642303586006
1696964980442642400,2.076642333984375,-0.047003407031297684,-0.00852186419069767,0.027829213067889214
1696964980452656600,2.08665673828125,-0.04274247586727142,-0.0010652330238372087,0.009720250964164734
1696964980462670800,2.0966708984375,-0.041677240282297134,-0.00852186419069767,-0.008388710208237171
1696964980472685000,2.10668505859375,-0.043807707726955414,0.0053261648863554,0.006524552125483751
1696964980482699300,2.11669921875,-0.03848154470324516,-0.004260932095348835,0.029959678649902344
1696964980492713500,2.12671337890625,-0.03848154470324516,-0.004260932095348835,0.0001331541279796511
1696964980502727700,2.136727783203125,-0.041677240282297134,-0.0010652330238372087,0.010785484686493874
1696964980512742000,2.146741943359375,-0.041677240282297134,0.0106523297727108,0.004394086077809334
1696964980522756000,2.156756103515625,-0.034220609813928604,-0.0021304660476744175,0.03209014609456062
1696964980532770300,2.166770263671875,-0.03528584539890289,-0.009587096981704235,0.0001331541279796511
1696964980542784500,2.176784423828125,-0.03848154470324516,0.01810896210372448,-0.0009320789249613881
1696964980552799000,2.186799072265625,-0.034220609813928604,-0.0106523297727108,0.026763979345560074
1696964980562813200,2.196813232421875,-0.03209014609456062,0.0021304660476744175,0.0011983871227130294
1696964980572827400,2.206827392578125,-0.033155377954244614,-0.0106523297727108,0.0033288532868027687
1696964980582841600,2.216841552734375,-0.034220609813928604,-0.0021304660476744175,0.0011983871227130294
1696964980592855800,2.226855712890625,-0.028894444927573204,-0.0063913981430232525,0.021437814459204674
1696964980602870000,2.2368701171875,-0.027829213067889214,-0.03302222490310669,0.0001331541279796511
1696964980612884200,2.24688427734375,-0.033155377954244614,0.02023942768573761,-0.012649642303586006
1696964980622898400,2.2568984375,-0.029959678649902344,-0.03089175745844841,0.018242115154862404
1696964980632912600,2.26691259765625,-0.027829213067889214,0.0063913981430232525,-0.005193010903894901
1696964980642926800,2.2769267578125,-0.029959678649902344,-0.02982652559876442,0.0033288532868027687
1696964980652941000,2.286941162109375,-0.03209014609456062,0.01810896210372448,-0.011584409512579441
1696964980662955300,2.296955322265625,-0.028894444927573204,-0.01491326279938221,0.024633513763546944
1696964980672969500,2.306969482421875,-0.029959678649902344,-0.0031956990715116262,-0.015845341607928276
1696964980682983700,2.316983642578125,-0.033155377954244614,-0.0031956990715116262,-0.004127778112888336
1696964980692998000,2.326997802734375,-0.036351077258586884,0.0159784946590662,-0.005193010903894901
1696964980703012000,2.33701220703125,-0.031024912372231483,-0.012782796286046505,0.019307348877191544
1696964980713026300,2.3470263671875,-0.03209014609456062,-0.0010652330238372087,-0.019041040912270546
1696964980723040800,2.357040771484375,-0.03528584539890289,0.00852186419069767,0.00226362026296556
1696964980733055000,2.367054931640625,-0.034220609813928604,-0.0021304660476744175,0.0011983871227130294
1696964980743069200,2.377069091796875,-0.03209014609456062,-0.0021304660476744175,0.013981183059513569
1696964980753083400,2.38708349609375,-0.036351077258586884,-0.0053261648863554,-0.012649642303586006
1696964980763097900,2.397097900390625,-0.03954677656292915,0.01384802907705307,-0.008388710208237171
1696964980773112000,2.407112060546875,-0.03528584539890289,-0.009587096981704235,0.024633513763546944
1696964980783126300,2.417126220703125,-0.03528584539890289,-0.007456631399691105,-0.011584409512579441
1696964980793140500,2.427140380859375,-0.040612008422613144,0.0106523297727108,0.0001331541279796511
1696964980803155000,2.437155029296875,-0.040612008422613144,-0.009587096981704235,0.016111649572849274
1696964980813169200,2.447169189453125,-0.03848154470324516,0.0031956990715116262,0.0033288532868027687
1696964980823183400,2.457183349609375,-0.040612008422613144,-0.007456631399691105,0.0001331541279796511
1696964980833197600,2.467197509765625,-0.044872939586639404,0.00852186419069767,-0.0030625448562204838
1696964980843212000,2.4772119140625,-0.04274247586727142,-0.0021304660476744175,0.025698747485876083
1696964980853226200,2.487226318359375,-0.041677240282297134,-0.0053261648863554,0.005459319334477186
1696964980863240400,2.497240478515625,-0.044872939586639404,0.0010652330238372087,-0.006258244160562754
1696964980873254700,2.507254638671875,-0.047003407031297684,0.004260932095348835,0.007589785382151604
1696964980883269000,2.51726904296875,-0.040612008422613144,-0.01171756349503994,0.03209014609456062
1696964980893283300,2.527283447265625,-0.043807707726955414,-0.0053261648863554,-0.017975807189941406
1696964980903297500,2.537297607421875,-0.047003407031297684,0.0053261648863554,0.021437814459204674
1696964980913311700,2.547311767578125,-0.04593817517161369,-0.009587096981704235,0.007589785382151604
1696964980923326200,2.557326171875,-0.041677240282297134,-0.0063913981430232525,0.006524552125483751
1696964980933340400,2.56734033203125,-0.044872939586639404,-0.01384802907705307,0.012915950268507004
1696964980943354600,2.577354736328125,-0.04593817517161369,0.0010652330238372087,-0.009453942999243736
1696964980953368800,2.587368896484375,-0.041677240282297134,-0.01810896210372448,0.036351077258586884
1696964980963383300,2.59738330078125,-0.041677240282297134,-0.007456631399691105,-0.008388710208237171
1696964980973397500,2.6073974609375,-0.044872939586639404,-0.01171756349503994,0.013981183059513569
1696964980983411700,2.61741162109375,-0.044872939586639404,-0.0031956990715116262,-0.0009320789249613881
1696964980993426000,2.627426025390625,-0.04274247586727142,-0.01917419396340847,0.021437814459204674
1696964981003440400,2.6374404296875,-0.04274247586727142,-0.0106523297727108,-0.001997311832383275
1696964981013454600,2.64745458984375,-0.04913387447595596,-0.0021304660476744175,0.0033288532868027687
1696964981023468800,2.65746875,-0.044872939586639404,-0.004260932095348835,0.03209014609456062
1696964981033483000,2.66748291015625,-0.043807707726955414,-0.02343512699007988,-0.007323476951569319
1696964981043497200,2.677497314453125,-0.048068638890981674,0.007456631399691105,-0.006258244160562754
1696964981053511700,2.68751171875,-0.050199106335639954,-0.0063913981430232525,0.024633513763546944
1696964981063526000,2.69752587890625,-0.04913387447595596,0.0021304660476744175,-0.011584409512579441
1696964981073540000,2.7075400390625,-0.050199106335639954,-0.012782796286046505,0.022503048181533813
1696964981083554300,2.71755419921875,-0.054460037499666214,0.01171756349503994,-0.006258244160562754
1696964981093568800,2.72756884765625,-0.0555252730846405,0,0.0011983871227130294
1696964981103583000,2.7375830078125,-0.053394805639982224,-0.009587096981704235,0.021437814459204674
1696964981113597200,2.74759716796875,-0.058720968663692474,-0.004260932095348835,-0.027562905102968216
1696964981123611400,2.757611328125,-0.06298190355300903,0.012782796286046505,0.00226362026296556
1696964981133625900,2.7676259765625,-0.058720968663692474,-0.01384802907705307,0.015046416781842709
1696964981143640000,2.77764013671875,-0.06298190355300903,0.0021304660476744175,-0.025432437658309937
1696964981153654300,2.787654296875,-0.06511236727237701,-0.0106523297727108,0.016111649572849274
1696964981163668500,2.79766845703125,-0.06830807030200958,0.0053261648863554,-0.03288906812667847
1696964981173683000,2.807682861328125,-0.066177599132061,-0.012782796286046505,0.025698747485876083
1696964981183697200,2.817697265625,-0.07043853402137756,-0.004260932095348835,-0.027562905102968216
1696964981193711400,2.82771142578125,-0.07576470077037811,0.01810896210372448,-0.010519175790250301
1696964981203725600,2.8377255859375,-0.07256899774074554,-0.0106523297727108,0.021437814459204674
1696964981213740000,2.847739990234375,-0.07256899774074554,-0.007456631399691105,-0.014780107885599136
1696964981223754200,2.857754150390625,-0.07896039634943008,0.012782796286046505,-0.014780107885599136
1696964981233768400,2.8677685546875,-0.08002562820911407,-0.009587096981704235,0.006524552125483751
1696964981243782700,2.87778271484375,-0.07469946891069412,0,0.0001331541279796511
1696964981253797000,2.887797119140625,-0.07896039634943008,-0.01491326279938221,-0.005193010903894901
1696964981263811300,2.897811279296875,-0.08109086751937866,-0.004260932095348835,-0.007323476951569319
1696964981273825500,2.907825439453125,-0.08002562820911407,0.0010652330238372087,0.0033288532868027687
1696964981283839700,2.91783984375,-0.0778951644897461,-0.01917419396340847,0.0011983871227130294
1696964981293854200,2.927854248046875,-0.08109086751937866,-0.01384802907705307,-0.001997311832383275
1696964981303868400,2.937868408203125,-0.08535179495811462,0.009587096981704235,-0.011584409512579441
1696964981313882600,2.947882568359375,-0.08109086751937866,-0.02343512699007988,0.025698747485876083
1696964981323896800,2.957896728515625,-0.08002562820911407,-0.01171756349503994,-0.008388710208237171
1696964981333911300,2.967911376953125,-0.08535179495811462,-0.0021304660476744175,-0.007323476951569319
1696964981343925500,2.977925537109375,-0.0874822586774826,-0.004260932095348835,0.0001331541279796511
1696964981353939700,2.987939697265625,-0.08109086751937866,-0.01810896210372448,0.020372580736875534
1696964981363954000,2.997953857421875,-0.08428656309843063,-0.02023942768573761,-0.0030625448562204838
1696964981373968400,3.007968505859375,-0.09067796170711517,0.01810896210372448,-0.020106272771954536
1696964981383982600,3.017982666015625,-0.08535179495811462,-0.02769605815410614,0.040612008422613144
1696964981393996800,3.027996826171875,-0.08535179495811462,0.0031956990715116262,-0.029693370684981346
1696964981404011000,3.038010986328125,-0.0874822586774826,-0.01384802907705307,0.017176883295178413
1696964981414025500,3.048025390625,-0.09174319356679916,0.01810896210372448,-0.014780107885599136
1696964981424039700,3.058039794921875,-0.08854749798774719,-0.009587096981704235,0.026763979345560074
1696964981434054000,3.068053955078125,-0.08854749798774719,-0.0021304660476744175,-0.008388710208237171
1696964981444068000,3.078068115234375,-0.09174319356679916,0.01384802907705307,-0.016910573467612267
1696964981454082600,3.08808251953125,-0.08961272984743118,-0.01491326279938221,0.028894444927573204
1696964981464096800,3.0980966796875,-0.08961272984743118,0.0021304660476744175,-0.019041040912270546
1696964981474111000,3.108111083984375,-0.09067796170711517,-0.0053261648863554,0.0001331541279796511
1696964981484125200,3.118125244140625,-0.09067796170711517,-0.007456631399691105,0.00226362026296556
1696964981494139600,3.1281396484375,-0.08961272984743118,-0.01704372838139534,0.006524552125483751
1696964981504153900,3.13815380859375,-0.0874822586774826,-0.007456631399691105,-0.001997311832383275
1696964981514168000,3.14816796875,-0.09280842542648315,-0.007456631399691105,-0.016910573467612267
1696964981524182300,3.158182373046875,-0.08854749798774719,-0.0159784946590662,0.031024912372231483
1696964981534196500,3.168196533203125,-0.09174319356679916,-0.012782796286046505,-0.011584409512579441
1696964981544210700,3.178210693359375,-0.09600412845611572,0.009587096981704235,-0.024367205798625946
1696964981554225000,3.188224853515625,-0.09387365728616714,-0.0159784946590662,0.047003407031297684
1696964981564239000,3.198239013671875,-0.09280842542648315,-0.0021304660476744175,-0.013714875094592571
1696964981574253300,3.20825341796875,-0.0991998240351677,0.009587096981704235,-0.004127778112888336
1696964981584267500,3.218267578125,-0.0991998240351677,0.0031956990715116262,0.022503048181533813
1696964981594281700,3.22828173828125,-0.09387365728616714,0,0.005459319334477186
1696964981604296000,3.2382958984375,-0.0981345921754837,0.0021304660476744175,0.005459319334477186
1696964981614310100,3.24831005859375,-0.10239552706480026,0.01491326279938221,-0.006258244160562754
1696964981624324400,3.258324462890625,-0.09706936031579971,0,0.021437814459204674
1696964981634338800,3.2683388671875,-0.09706936031579971,-0.0053261648863554,0.016111649572849274
1696964981644353000,3.27835302734375,-0.10239552706480026,0.01491326279938221,-0.029693370684981346
1696964981654367200,3.2883671875,-0.10133028775453568,0.0010652330238372087,0.025698747485876083
1696964981664381400,3.29838134765625,-0.09706936031579971,-0.004260932095348835,0.021437814459204674
1696964981674395600,3.308395751953125,-0.10239552706480026,0.012782796286046505,-0.03608476743102074
1696964981684409900,3.318409912109375,-0.10452599078416824,0.0010652330238372087,0.034220609813928604
1696964981694424000,3.328424072265625,-0.0991998240351677,-0.0053261648863554,0.011850717477500439
1696964981704438300,3.338438232421875,-0.10239552706480026,0.007456631399691105,-0.014780107885599136
1696964981714452500,3.348452392578125,-0.1087869256734848,0.00852186419069767,-0.0030625448562204838
1696964981724466700,3.358466796875,-0.10133028775453568,-0.0159784946590662,0.022503048181533813
1696964981734481000,3.36848095703125,-0.10026505589485168,0.0021304660476744175,-0.001997311832383275
1696964981744495000,3.3784951171875,-0.10665645450353622,-0.004260932095348835,-0.012649642303586006
1696964981754509300,3.38850927734375,-0.10239552706480026,-0.01171756349503994,0.015046416781842709
1696964981764523500,3.3985234375,-0.0991998240351677,-0.0213046595454216,0.024633513763546944
1696964981774537700,3.408537841796875,-0.10559122264385223,0.004260932095348835,-0.030758604407310486
1696964981784552000,3.418552001953125,-0.10452599078416824,-0.02769605815410614,0.016111649572849274
1696964981794566100,3.428566162109375,-0.0981345921754837,-0.0031956990715116262,0.023568280041217804
1696964981804580400,3.438580322265625,-0.10239552706480026,-0.02450035884976387,-0.006258244160562754
1696964981814594600,3.448594482421875,-0.10559122264385223,0.0053261648863554,-0.008388710208237171
1696964981824607700,3.458607666015625,-0.10026505589485168,-0.01810896210372448,0.043807707726955414
1696964981834622000,3.4686220703125,-0.10133028775453568,-0.007456631399691105,-0.020106272771954536
1696964981844636200,3.47863623046875,-0.10452599078416824,-0.0021304660476744175,0.010785484686493874
1696964981854650400,3.488650390625,-0.0991998240351677,-0.01810896210372448,0.029959678649902344
1696964981864664600,3.49866455078125,-0.0991998240351677,-0.00852186419069767,-0.005193010903894901
1696964981874678800,3.5086787109375,-0.0991998240351677,-0.02450035884976387,0.024633513763546944
1696964981884693200,3.518693359375,-0.10346075892448425,0.0031956990715116262,-0.015845341607928276
1696964981894707500,3.52870751953125,-0.09493889659643173,-0.02556559257209301,0.03954677656292915
1696964981904721700,3.5387216796875,-0.0981345921754837,-0.02769605815410614,0.004394086077809334
1696964981914735900,3.54873583984375,-0.10346075892448425,0.007456631399691105,-0.028628136962652206
1696964981924750300,3.558750244140625,-0.09600412845611572,-0.04154408723115921,0.054460037499666214
1696964981934764500,3.5687646484375,-0.09706936031579971,-0.0021304660476744175,-0.03288906812667847
1696964981944778800,3.57877880859375,-0.10026505589485168,-0.01810896210372448,-0.001997311832383275
1696964981954793000,3.58879296875,-0.0991998240351677,-0.01491326279938221,0.016111649572849274
1696964981964807400,3.598807373046875,-0.0981345921754837,-0.00852186419069767,-0.014780107885599136
1696964981974821600,3.608821533203125,-0.0991998240351677,-0.0213046595454216,0.008655018173158169
1696964981984835800,3.6188359375,-0.10239552706480026,-0.0010652330238372087,-0.024367205798625946
1696964981994850000,3.62885009765625,-0.0991998240351677,-0.01704372838139534,0.020372580736875534
1696964982004864500,3.638864501953125,-0.10026505589485168,-0.0053261648863554,-0.015845341607928276
1696964982014878700,3.648878662109375,-0.10452599078416824,-0.00852186419069767,-0.012649642303586006
1696964982024893000,3.658892822265625,-0.10346075892448425,-0.01171756349503994,0.017176883295178413
1696964982034907100,3.6689072265625,-0.10026505589485168,-0.012782796286046505,-0.005193010903894901
1696964982044921600,3.678921630859375,-0.10346075892448425,-0.01704372838139534,-0.001997311832383275
1696964982054935800,3.688935791015625,-0.10559122264385223,-0.0031956990715116262,-0.005193010903894901
1696964982064950000,3.698949951171875,-0.10026505589485168,-0.02876129187643528,0.031024912372231483
1696964982074964200,3.708964111328125,-0.10239552706480026,-0.01384802907705307,-0.014780107885599136
1696964982084978700,3.718978759765625,-0.10559122264385223,-0.01917419396340847,0.013981183059513569
1696964982094993000,3.728992919921875,-0.10452599078416824,-0.0053261648863554,0.011850717477500439
1696964982105007000,3.739007080078125,-0.10026505589485168,-0.02982652559876442,0.024633513763546944
1696964982115021300,3.749021240234375,-0.10346075892448425,-0.00852186419069767,-0.007323476951569319
1696964982125035800,3.759035888671875,-0.10559122264385223,0.0031956990715116262,0.012915950268507004
1696964982135050000,3.769050048828125,-0.10239552706480026,-0.02663082629442215,0.031024912372231483
1696964982145064200,3.779064208984375,-0.10026505589485168,0.0031956990715116262,0.0033288532868027687
1696964982155078400,3.789078369140625,-0.10665645450353622,-0.0063913981430232525,-0.0009320789249613881
1696964982165092900,3.7990927734375,-0.10346075892448425,0.004260932095348835,0.024633513763546944
1696964982175107000,3.809107177734375,-0.10026505589485168,-0.01704372838139534,0.020372580736875534
1696964982185121300,3.819121337890625,-0.10239552706480026,0.009587096981704235,-0.023301972076296806
1696964982195135500,3.829135498046875,-0.10346075892448425,-0.0053261648863554,0.036351077258586884
1696964982205149700,3.839149658203125,-0.0981345921754837,-0.01491326279938221,0.010785484686493874
1696964982215164200,3.8491640625,-0.10133028775453568,0.0031956990715116262,-0.014780107885599136
1696964982225178400,3.859178466796875,-0.10559122264385223,-0.0053261648863554,0.010785484686493874
1696964982235192600,3.869192626953125,-0.0981345921754837,-0.01917419396340847,0.011850717477500439
1696964982245206800,3.879206787109375,-0.10239552706480026,-0.004260932095348835,-0.015845341607928276
1696964982255221200,3.88922119140625,-0.10559122264385223,0,0.005459319334477186
1696964982265235500,3.8992353515625,-0.10133028775453568,-0.02769605815410614,0.015046416781842709
1696964982275249700,3.909249755859375,-0.10133028775453568,0.007456631399691105,-0.007323476951569319
1696964982285264000,3.919263916015625,-0.1087869256734848,0.0021304660476744175,-0.006258244160562754
1696964982295278300,3.9292783203125,-0.10559122264385223,-0.0213046595454216,0.005459319334477186
1696964982305292500,3.93929248046875,-0.10133028775453568,0.009587096981704235,0.029959678649902344
1696964982315306800,3.949306640625,-0.11198262125253677,-0.004260932095348835,-0.030758604407310486
1696964982325321000,3.959321044921875,-0.10665645450353622,-0.0010652330238372087,0.029959678649902344
1696964982335335400,3.96933544921875,-0.10346075892448425,-0.01384802907705307,0.033155377954244614
1696964982345349600,3.979349609375,-0.11411308497190475,0.02982652559876442,-0.045671865344047546
1696964982355363800,3.98936376953125,-0.10346075892448425,-0.03728315606713295,0.08322133123874664
1696964982365378000,3.9993779296875,-0.10985215753316879,0.012782796286046505,-0.019041040912270546
1696964982375392500,4.009392578125,-0.11411308497190475,-0.01171756349503994,0.0011983871227130294
1696964982385406700,4.01940673828125,-0.10239552706480026,-0.02556559257209301,0.0778951644897461
1696964982395421000,4.0294208984375,-0.11198262125253677,0.0053261648863554,-0.045671865344047546
1696964982405435100,4.03943505859375,-0.10985215753316879,-0.03408745676279068,0.060851436108350754
1696964982415449600,4.04944970703125,-0.10665645450353622,-0.0213046595454216,0.017176883295178413
1696964982425463800,4.0594638671875,-0.11198262125253677,-0.0031956990715116262,-0.014780107885599136
1696964982435478000,4.06947802734375,-0.10452599078416824,-0.04473978653550148,0.08215609937906265
1696964982445492200,4.0794921875,-0.11411308497190475,0.009587096981704235,-0.045671865344047546
1696964982455506700,4.089506591796875,-0.10665645450353622,-0.04580501839518547,0.07363422960042953
1696964982465521000,4.09952099609375,-0.11091738939285278,0.009587096981704235,-0.001997311832383275
1696964982475535000,4.10953515625,-0.11091738939285278,-0.03515268862247467,0.03209014609456062
1696964982485549300,4.11954931640625,-0.11198262125253677,0.00852186419069767,0.019307348877191544
1696964982495563800,4.129563720703125,-0.11091738939285278,-0.0063913981430232525,0.017176883295178413
1696964982505578000,4.139577880859375,-0.10985215753316879,-0.02343512699007988,0.041677240282297134
1696964982515592200,4.14959228515625,-0.11411308497190475,0.02236989326775074,-0.011584409512579441
1696964982525606400,4.1596064453125,-0.1087869256734848,-0.04793548583984375,0.07469946891069412
1696964982535620600,4.16962060546875,-0.11624355614185333,0.03834838792681694,-0.04673709720373154
1696964982545634800,4.179634765625,-0.1087869256734848,-0.04473978653550148,0.09174319356679916
1696964982555649000,4.18964892578125,-0.11517832428216934,0.0031956990715116262,-0.029693370684981346
1696964982565663200,4.199663330078125,-0.11091738939285278,-0.01704372838139534,0.041677240282297134
1696964982575677400,4.209677490234375,-0.11198262125253677,-0.0159784946590662,0.03528584539890289
1696964982585691600,4.219691650390625,-0.11411308497190475,-0.02450035884976387,-0.016910573467612267
1696964982595705900,4.229705810546875,-0.11091738939285278,-0.0021304660476744175,0.053394805639982224
1696964982605720000,4.239719970703125,-0.11091738939285278,-0.04687025398015976,0.020372580736875534
1696964982615734500,4.249734619140625,-0.11411308497190475,0.02023942768573761,-0.015845341607928276
1696964982625748700,4.259748779296875,-0.11091738939285278,-0.05858781561255455,0.07469946891069412
1696964982635763000,4.269762939453125,-0.11304785311222076,0.02769605815410614,-0.024367205798625946
1696964982645777200,4.279777099609375,-0.11304785311222076,-0.04047885537147522,0.041677240282297134
1696964982655791400,4.289791259765625,-0.11411308497190475,-0.009587096981704235,0.028894444927573204
1696964982665805600,4.2998056640625,-0.11517832428216934,-0.0021304660476744175,0.0011983871227130294
1696964982675819800,4.30981982421875,-0.11730878800153732,-0.02982652559876442,0.04593817517161369
1696964982685834000,4.319833984375,-0.11837401986122131,-0.0021304660476744175,-0.010519175790250301
1696964982695848200,4.32984814453125,-0.11624355614185333,-0.04473978653550148,0.057655736804008484
1696964982705862400,4.3398623046875,-0.1205044835805893,-0.00852186419069767,-0.017975807189941406
1696964982715876600,4.349876708984375,-0.12263495475053787,-0.01810896210372448,0.029959678649902344
1696964982725890800,4.359890869140625,-0.1205044835805893,-0.04047885537147522,0.029959678649902344
1696964982735905000,4.369905029296875,-0.1194392517209053,-0.01810896210372448,0.004394086077809334
1696964982745919200,4.379919189453125,-0.12263495475053787,-0.03728315606713295,0.024633513763546944
1696964982755933400,4.389933349609375,-0.12476541846990585,-0.009587096981704235,0.011850717477500439
1696964982765947600,4.39994775390625,-0.12156971544027328,-0.05645735189318657,0.027829213067889214
1696964982775961900,4.4099619140625,-0.12476541846990585,0.009587096981704235,-0.015845341607928276
1696964982785976000,4.41997607421875,-0.12476541846990585,-0.06284874677658081,0.058720968663692474
1696964982795990300,4.429990234375,-0.12476541846990585,0.00852186419069767,-0.020106272771954536
1696964982806004500,4.44000439453125,-0.12370018661022186,-0.06497921794652939,0.047003407031297684
1696964982816018700,4.450018798828125,-0.12583065032958984,0.0031956990715116262,-0.0030625448562204838
1696964982826033000,4.460032958984375,-0.12263495475053787,-0.04900071769952774,0.029959678649902344
1696964982836047000,4.470047119140625,-0.12476541846990585,-0.01917419396340847,0.026763979345560074
1696964982846061300,4.480061279296875,-0.12370018661022186,-0.01917419396340847,-0.0009320789249613881
1696964982856075800,4.49007568359375,-0.12263495475053787,-0.03728315606713295,0.04593817517161369
1696964982866090000,4.500090087890625,-0.12156971544027328,-0.01384802907705307,0.0001331541279796511
1696964982876104200,4.510104248046875,-0.12583065032958984,-0.02343512699007988,0.022503048181533813
1696964982886118400,4.520118408203125,-0.1205044835805893,-0.01917419396340847,0.017176883295178413
1696964982896132600,4.530132568359375,-0.12476541846990585,-0.02236989326775074,0.017176883295178413
1696964982906146800,4.540146728515625,-0.12476541846990585,-0.02343512699007988,0.010785484686493874
1696964982916161000,4.5501611328125,-0.12583065032958984,-0.0031956990715116262,-0.0030625448562204838
1696964982926175200,4.56017529296875,-0.12263495475053787,-0.02236989326775074,0.028894444927573204
1696964982936189400,4.570189453125,-0.1290263533592224,-0.02023942768573761,-0.022236740216612816
1696964982946204000,4.580203857421875,-0.12370018661022186,-0.004260932095348835,0.021437814459204674
1696964982956218000,4.590218017578125,-0.1290263533592224,-0.02663082629442215,-0.008388710208237171
1696964982966232300,4.600232421875,-0.12689588963985443,0.007456631399691105,-0.001997311832383275
1696964982976246500,4.61024658203125,-0.1311568170785904,-0.02556559257209301,-0.001997311832383275
1696964982986260700,4.6202607421875,-0.1311568170785904,0.01704372838139534,-0.019041040912270546
1696964982996275200,4.630275146484375,-0.13328728079795837,-0.01491326279938221,0.0011983871227130294
1696964983006289400,4.640289306640625,-0.13222205638885498,0.0021304660476744175,-0.026497671380639076
1696964983016303600,4.6503037109375,-0.13861344754695892,0.0010652330238372087,-0.010519175790250301
1696964983026317800,4.66031787109375,-0.13541774451732635,0.007456631399691105,-0.016910573467612267
1696964983036332300,4.670332275390625,-0.13861344754695892,-0.01491326279938221,-0.030758604407310486
1696964983046346500,4.680346435546875,-0.13754820823669434,0.00852186419069767,-0.012649642303586006
1696964983056360700,4.690360595703125,-0.1396786868572235,-0.0213046595454216,-0.03608476743102074
1696964983066375000,4.700375,-0.13648298382759094,0.007456631399691105,-0.03928046673536301
1696964983076389400,4.710389404296875,-0.14287437498569489,-0.02769605815410614,0.016111649572849274
1696964983086403600,4.720403564453125,-0.13861344754695892,-0.004260932095348835,-0.07656362652778625
1696964983096417800,4.730417724609375,-0.13861344754695892,-0.03728315606713295,0.031024912372231483
1696964983106432000,4.740431884765625,-0.14287437498569489,-0.0010652330238372087,-0.055258963257074356
1696964983116446500,4.750446533203125,-0.14287437498569489,-0.03302222490310669,-0.004127778112888336
1696964983126460700,4.760460693359375,-0.1396786868572235,-0.012782796286046505,0.004394086077809334
1696964983136475000,4.770474853515625,-0.14713531732559204,-0.0031956990715116262,-0.024367205798625946
1696964983146489000,4.780489013671875,-0.1418091505765915,-0.02876129187643528,0.011850717477500439
1696964983156503600,4.790503662109375,-0.14393961429595947,0.01810896210372448,0.0011983871227130294
1696964983166517800,4.800517822265625,-0.14820054173469543,-0.00852186419069767,-0.0009320789249613881
1696964983176532000,4.810531982421875,-0.14500483870506287,0.01171756349503994,-0.0009320789249613881
1696964983186546200,4.820546142578125,-0.14500483870506287,0.0031956990715116262,0.04274247586727142
1696964983196560600,4.830560546875,-0.14607007801532745,0.009587096981704235,-0.03928046673536301
1696964983206574800,4.840574951171875,-0.14500483870506287,0.0053261648863554,0.027829213067889214
1696964983216589000,4.850589111328125,-0.1407439112663269,-0.0159784946590662,0.023568280041217804
1696964983226603300,4.860603271484375,-0.14500483870506287,0.0053261648863554,-0.044606633484363556
1696964983236617700,4.87061767578125,-0.1407439112663269,-0.03089175745844841,0.047003407031297684
1696964983246632000,4.8806318359375,-0.1396786868572235,-0.01810896210372448,-0.029693370684981346
1696964983256646100,4.890646240234375,-0.13754820823669434,-0.03834838792681694,-0.007323476951569319
1696964983266660400,4.900660400390625,-0.13435252010822296,-0.04793548583984375,0.013981183059513569
1696964983276674800,4.9106748046875,-0.13541774451732635,-0.04473978653550148,-0.030758604407310486
1696964983286689000,4.92068896484375,-0.13435252010822296,-0.0426093190908432,0.009720250964164734
1696964983296703200,4.930703125,-0.13328728079795837,-0.05006595328450203,-0.006258244160562754
1696964983306717400,4.940717529296875,-0.13541774451732635,-0.05219641700387001,-0.024367205798625946
1696964983316732000,4.95073193359375,-0.1311568170785904,-0.03408745676279068,0.024633513763546944
1696964983326746000,4.96074609375,-0.13754820823669434,-0.03834838792681694,-0.023301972076296806
1696964983336760300,4.97076025390625,-0.13328728079795837,-0.03302222490310669,0.0033288532868027687
1696964983346774500,4.9807744140625,-0.13648298382759094,-0.03621792420744896,0.022503048181533813
1696964983356789000,4.9907890625,-0.13754820823669434,-0.02023942768573761,-0.030758604407310486
1696964983366803200,5.00080322265625,-0.13435252010822296,-0.02982652559876442,0.03954677656292915
1696964983376817400,5.0108173828125,-0.13754820823669434,-0.03834838792681694,-0.001997311832383275
1696964983386831600,5.02083154296875,-0.13328728079795837,-0.01491326279938221,-0.006258244160562754
1696964983396846000,5.03084619140625,-0.1311568170785904,-0.07669677585363388,0.033155377954244614
1696964983406860300,5.0408603515625,-0.13754820823669434,-0.01171756349503994,-0.037150003015995026
1696964983416874500,5.05087451171875,-0.12370018661022186,-0.09267527610063553,0.07576470077037811
1696964983426888700,5.060888671875,-0.13222205638885498,-0.03941362351179123,-0.043541401624679565
1696964983436903000,5.07090283203125,-0.12583065032958984,-0.08734910935163498,0.041677240282297134
1696964983446917000,5.080917236328125,-0.12156971544027328,-0.07776200771331787,0.022503048181533813
1696964983456931300,5.090931396484375,-0.12796111404895782,-0.07350108027458191,-0.037150003015995026
1696964983466945500,5.100945556640625,-0.11837401986122131,-0.12463226169347763,0.08641702681779861
1696964983476959700,5.110959716796875,-0.1300915777683258,-0.04154408723115921,-0.050998032093048096
1696964983486974200,5.12097412109375,-0.12476541846990585,-0.14167599380016327,0.050199106335639954
1696964983496988400,5.130988525390625,-0.11304785311222076,-0.08095771074295044,0.016111649572849274
1696964983507002600,5.141002685546875,-0.1205044835805893,-0.12037133425474167,0.017176883295178413
1696964983517016800,5.151016845703125,-0.11411308497190475,-0.10439283400774002,0.031024912372231483
1696964983527031000,5.161031005859375,-0.11304785311222076,-0.1288931965827942,0.053394805639982224
1696964983537045200,5.171045166015625,-0.1205044835805893,-0.08947957307100296,-0.020106272771954536
1696964983547059500,5.1810595703125,-0.10559122264385223,-0.10865376889705658,0.10772168636322021
1696964983557073700,5.19107373046875,-0.11091738939285278,-0.10758853703737259,0.036351077258586884
1696964983567087900,5.201087890625,-0.10985215753316879,-0.06497921794652939,0.033155377954244614
1696964983577102000,5.21110205078125,-0.09706936031579971,-0.11184946447610855,0.15885287523269653
1696964983587116300,5.2211162109375,-0.11198262125253677,-0.04047885537147522,-0.010519175790250301
1696964983597130500,5.231130615234375,-0.0991998240351677,-0.05858781561255455,0.15352670848369598
1696964983607144700,5.241144775390625,-0.0981345921754837,-0.04154408723115921,0.11091738939285278
1696964983617159000,5.251158935546875,-0.11091738939285278,-0.0010652330238372087,0.07256899774074554
1696964983627173000,5.261173095703125,-0.0981345921754837,-0.02982652559876442,0.19826649129390717
1696964983637187300,5.271187255859375,-0.10985215753316879,0.02769605815410614,0.0778951644897461
1696964983647201500,5.281201416015625,-0.1205044835805893,0.02663082629442215,0.13435252010822296
1696964983657215700,5.2912158203125,-0.10665645450353622,0.01704372838139534,0.19294032454490662
1696964983667230000,5.30122998046875,-0.12263495475053787,0.05219641700387001,0.09067796170711517
1696964983677244200,5.311244140625,-0.12156971544027328,0.03728315606713295,0.17802706360816956
1696964983687258400,5.32125830078125,-0.1205044835805893,0.03834838792681694,0.14713531732559204
1696964983697272600,5.3312724609375,-0.13328728079795837,0.04047885537147522,0.10772168636322021
1696964983707286800,5.341286865234375,-0.1311568170785904,0.05006595328450203,0.14926578104496002
1696964983717301200,5.35130126953125,-0.13648298382759094,0.0213046595454216,0.14393961429595947
1696964983727315500,5.3613154296875,-0.14393961429595947,0.0745663121342659,0.07576470077037811
1696964983737329700,5.37132958984375,-0.14287437498569489,0.02236989326775074,0.15033100545406342
1696964983747344000,5.38134375,-0.14820054173469543,0.04793548583984375,0.08535179495811462
1696964983757358000,5.391358154296875,-0.15033100545406342,0.06284874677658081,0.057655736804008484
1696964983767372300,5.401372314453125,-0.14607007801532745,0.03728315606713295,0.12796111404895782
1696964983777386500,5.411386474609375,-0.15672241151332855,0.07669677585363388,0.022503048181533813
1696964983787400700,5.421400634765625,-0.16098333895206451,0.06178351491689682,0.07896039634943008
1696964983797415000,5.431414794921875,-0.15991811454296112,0.07030537724494934,0.04913387447595596
1696964983807429000,5.44142919921875,-0.16524426639080048,0.09374050796031952,-0.013714875094592571
1696964983817443300,5.451443359375,-0.15778763592243195,0.08095771074295044,0.03848154470324516
1696964983827457500,5.46145751953125,-0.151396244764328,0.09054480493068695,0.0011983871227130294
1696964983837471700,5.4714716796875,-0.15565717220306396,0.09693620353937149,-0.04673709720373154
1696964983847486000,5.48148583984375,-0.14926578104496002,0.08734910935163498,0.011850717477500439
1696964983857500200,5.491500244140625,-0.14820054173469543,0.10332760214805603,-0.06591129302978516
1696964983867514400,5.501514404296875,-0.14820054173469543,0.10971900075674057,-0.07017222791910172
1696964983877528600,5.511528564453125,-0.1407439112663269,0.10971900075674057,-0.05312849581241608
1696964983887542800,5.521542724609375,-0.13648298382759094,0.08734910935163498,-0.10958584398031235
1696964983897557000,5.531556884765625,-0.1300915777683258,0.10758853703737259,-0.10745538026094437
1696964983907571200,5.5415712890625,-0.1205044835805893,0.06710968166589737,-0.09147688746452332
1696964983917585400,5.55158544921875,-0.11837401986122131,0.09480573982000351,-0.14793424308300018
1696964983927599600,5.561599609375,-0.11198262125253677,0.05539211630821228,-0.14047759771347046
1696964983937613800,5.57161376953125,-0.10239552706480026,0.03941362351179123,-0.12662957608699799
1696964983947628000,5.5816279296875,-0.10026505589485168,0.03834838792681694,-0.1884130984544754
1696964983957642500,5.591642578125,-0.09280842542648315,0.0063913981430232525,-0.17456506192684174
1696964983967656700,5.60165673828125,-0.08322133123874664,-0.02450035884976387,-0.1692388951778412
1696964983977671000,5.6116708984375,-0.08641702681779861,0.007456631399691105,-0.232087641954422
1696964983987685000,5.62168505859375,-0.07896039634943008,-0.02769605815410614,-0.18308693170547485
1696964983997699300,5.63169921875,-0.07576470077037811,-0.03515268862247467,-0.1990654170513153
1696964984007713500,5.641713623046875,-0.08002562820911407,0.0063913981430232525,-0.24380521476268768
1696964984017727700,5.651727783203125,-0.0768299326300621,-0.0319569893181324,-0.1788259893655777
1696964984027742000,5.661741943359375,-0.07576470077037811,-0.004260932095348835,-0.23741380870342255
1696964984037756200,5.671756103515625,-0.08215609937906265,0.00852186419069767,-0.232087641954422
1696964984047770400,5.681770263671875,-0.0778951644897461,-0.02556559257209301,-0.17563030123710632
1696964984057784600,5.69178466796875,-0.0778951644897461,-0.01171756349503994,-0.23528334498405457
1696964984067798800,5.701798828125,-0.08322133123874664,-0.02663082629442215,-0.21504391729831696
1696964984077813000,5.71181298828125,-0.07576470077037811,-0.0426093190908432,-0.1788259893655777
1696964984087827200,5.7218271484375,-0.0768299326300621,-0.0319569893181324,-0.22250054776668549
1696964984097841400,5.73184130859375,-0.08428656309843063,-0.05006595328450203,-0.20332635939121246
1696964984107856000,5.74185595703125,-0.07469946891069412,-0.05965305119752884,-0.14154283702373505
1696964984117870000,5.7518701171875,-0.08215609937906265,-0.05539211630821228,-0.2001306563615799
1696964984127884300,5.76188427734375,-0.0874822586774826,-0.07243584841489792,-0.18095645308494568
1696964984137898500,5.7718984375,-0.07469946891069412,-0.10545806586742401,-0.09680305421352386
1696964984147913000,5.781912841796875,-0.0874822586774826,-0.07350108027458191,-0.20545682311058044
1696964984157927200,5.79192724609375,-0.09280842542648315,-0.11930610239505768,-0.12236864119768143
1696964984167941400,5.80194140625,-0.08109086751937866,-0.11291470378637314,-0.08721595257520676
1696964984177955600,5.81195556640625,-0.10133028775453568,-0.09161003679037094,-0.18308693170547485
1696964984187970000,5.821969970703125,-0.10133028775453568,-0.1395455300807953,-0.06484606117010117
1696964984197984300,5.831984375,-0.09280842542648315,-0.10119713842868805,-0.06910699605941772
1696964984207998500,5.84199853515625,-0.11091738939285278,-0.10545806586742401,-0.14367330074310303
1696964984218012700,5.8520126953125,-0.10665645450353622,-0.09374050796031952,-0.021171506494283676
1696964984228027000,5.86202685546875,-0.0991998240351677,-0.1171756312251091,-0.021171506494283676
1696964984238041300,5.872041259765625,-0.12263495475053787,-0.04580501839518547,-0.11597724258899689
1696964984248055600,5.8820556640625,-0.11198262125253677,-0.10013190656900406,0.050199106335639954
1696964984258069800,5.89206982421875,-0.1087869256734848,-0.07669677585363388,-0.012649642303586006
1696964984268084000,5.902083984375,-0.1290263533592224,-0.02450035884976387,-0.054193731397390366
1696964984278098400,5.912098388671875,-0.11411308497190475,-0.09267527610063553,0.08002562820911407
1696964984288112600,5.922112548828125,-0.1087869256734848,-0.04047885537147522,0.009720250964164734
1696964984298126800,5.932126953125,-0.12689588963985443,-0.06071828305721283,-0.009453942999243736
1696964984308141000,5.94214111328125,-0.1087869256734848,-0.07030537724494934,0.0778951644897461
1696964984318155500,5.952155517578125,-0.1087869256734848,-0.06284874677658081,0.03209014609456062
1696964984328169700,5.962169677734375,-0.12796111404895782,-0.03089175745844841,-0.021171506494283676
1696964984338184000,5.972183837890625,-0.10665645450353622,-0.10758853703737259,0.1194392517209053
1696964984348198100,5.9821982421875,-0.11091738939285278,-0.03941362351179123,-0.028628136962652206
1696964984358212600,5.992212646484375,-0.1205044835805893,-0.07989247888326645,0.0033288532868027687
1696964984368226800,6.002226806640625,-0.10239552706480026,-0.11930610239505768,0.07896039634943008
1696964984378241000,6.012240966796875,-0.10985215753316879,-0.06710968166589737,-0.07017222791910172
1696964984388255200,6.022255126953125,-0.11198262125253677,-0.10971900075674057,-0.009453942999243736
1696964984398269700,6.032269775390625,-0.09600412845611572,-0.12037133425474167,0.016111649572849274
1696964984408284000,6.042283935546875,-0.10452599078416824,-0.07882724702358246,-0.11171631515026093
1696964984418298000,6.052298095703125,-0.10026505589485168,-0.11291470378637314,-0.024367205798625946
1696964984428312300,6.062312255859375,-0.09067796170711517,-0.08947957307100296,-0.0723026916384697
1696964984438326800,6.072326904296875,-0.09706936031579971,-0.05965305119752884,-0.12130340933799744
1696964984448341000,6.082341064453125,-0.09387365728616714,-0.0639139786362648,-0.07336792349815369
1696964984458355200,6.092355224609375,-0.08641702681779861,-0.03941362351179123,-0.12130340933799744
1696964984468369400,6.102369384765625,-0.08854749798774719,-0.01917419396340847,-0.13302096724510193
1696964984478383600,6.112383544921875,-0.08322133123874664,-0.02343512699007988,-0.1031944528222084
1696964984488397800,6.122397705078125,-0.07896039634943008,0.007456631399691105,-0.15112993121147156
1696964984498412000,6.132412109375,-0.08002562820911407,0.007456631399691105,-0.12876003980636597
1696964984508426200,6.14242626953125,-0.0778951644897461,0.01917419396340847,-0.1468690037727356
1696964984518440400,6.1524404296875,-0.07469946891069412,0.0213046595454216,-0.12876003980636597
1696964984528454700,6.16245458984375,-0.07576470077037811,0.01810896210372448,-0.14154283702373505
1696964984538468900,6.17246875,-0.07043853402137756,0.02450035884976387,-0.13302096724510193
1696964984548483000,6.182483154296875,-0.07043853402137756,0.007456631399691105,-0.1138467788696289
1696964984558497300,6.192497314453125,-0.07363422960042953,0.03941362351179123,-0.15965180099010468
1696964984568511500,6.202511474609375,-0.07043853402137756,-0.0031956990715116262,-0.07443315535783768
1696964984578525700,6.212525634765625,-0.07469946891069412,0.03515268862247467,-0.12662957608699799
1696964984588540000,6.222539794921875,-0.08322133123874664,0.02876129187643528,-0.1042596846818924
1696964984598554400,6.232554443359375,-0.08002562820911407,0.02450035884976387,-0.047802332788705826
1696964984608568600,6.242568603515625,-0.08641702681779861,0.03941362351179123,-0.08934641629457474
1696964984618582800,6.252582763671875,-0.09174319356679916,0.04580501839518547,-0.05632419511675835
1696964984628597000,6.262596923828125,-0.09174319356679916,0.03621792420744896,-0.014780107885599136
1696964984638611200,6.272611083984375,-0.09706936031579971,0.0532616525888443,-0.021171506494283676
1696964984648625400,6.28262548828125,-0.10665645450353622,0.04687025398015976,-0.022236740216612816
1696964984658639600,6.2926396484375,-0.10239552706480026,0.03408745676279068,0.04593817517161369
1696964984668653800,6.30265380859375,-0.1087869256734848,0.05432688444852829,0.020372580736875534
1696964984678668000,6.31266796875,-0.1194392517209053,0.05006595328450203,0.03528584539890289
1696964984688682200,6.32268212890625,-0.11304785311222076,0.03515268862247467,0.09706936031579971
1696964984698696400,6.332696533203125,-0.11837401986122131,0.04473978653550148,0.08322133123874664
1696964984708710700,6.342710693359375,-0.1300915777683258,0.05219641700387001,0.07363422960042953
1696964984718724900,6.352724853515625,-0.12156971544027328,0.03089175745844841,0.15778763592243195
1696964984728739000,6.362739013671875,-0.12476541846990585,0.04687025398015976,0.1396786868572235
1696964984738753300,6.372753173828125,-0.13435252010822296,0.05219641700387001,0.12583065032958984
1696964984748767500,6.382767578125,-0.12476541846990585,0.03408745676279068,0.21744069457054138
1696964984758781700,6.39278173828125,-0.1290263533592224,0.0319569893181324,0.1716356724500656
1696964984768796000,6.4027958984375,-0.13435252010822296,0.04687025398015976,0.18974463641643524
1696964984778810000,6.41281005859375,-0.1205044835805893,0.0021304660476744175,0.27176758646965027
1696964984788824300,6.42282421875,-0.12370018661022186,0.02343512699007988,0.20359265804290771
1696964984798838500,6.432838623046875,-0.1311568170785904,0.00852186419069767,0.23981058597564697
1696964984808852700,6.442852783203125,-0.11837401986122131,-0.02876129187643528,0.2920069992542267
1696964984818867000,6.452866943359375,-0.11517832428216934,-0.03089175745844841,0.23874534666538239
1696964984828881200,6.462881103515625,-0.12370018661022186,-0.0213046595454216,0.27283281087875366
1696964984838895600,6.4728955078125,-0.11411308497190475,-0.06178351491689682,0.2792242169380188
1696964984848909800,6.482909912109375,-0.11730878800153732,-0.02236989326775074,0.27389803528785706
1696964984858924000,6.492924072265625,-0.12583065032958984,-0.03408745676279068,0.25046291947364807
1696964984868938200,6.502938232421875,-0.11411308497190475,-0.04367455467581749,0.30692026019096375
1696964984878952400,6.512952392578125,-0.12156971544027328,-0.03408745676279068,0.2600499987602234
1696964984888966700,6.522966552734375,-0.12476541846990585,-0.02663082629442215,0.235549658536911
1696964984898980900,6.53298095703125,-0.11624355614185333,-0.05113118514418602,0.3090507388114929
1696964984908995000,6.5429951171875,-0.12370018661022186,-0.02236989326775074,0.19720126688480377
1696964984919009300,6.55300927734375,-0.12370018661022186,-0.03621792420744896,0.24194104969501495
1696964984929023500,6.5630234375,-0.11624355614185333,-0.05219641700387001,0.25046291947364807
1696964984939037700,6.57303759765625,-0.12156971544027328,-0.02450035884976387,0.16524426639080048
1696964984949052000,6.583052001953125,-0.1194392517209053,-0.05219641700387001,0.22383208572864532
1696964984959066000,6.593066162109375,-0.11624355614185333,-0.03728315606713295,0.1833532303571701
1696964984969080300,6.603080322265625,-0.1205044835805893,-0.03728315606713295,0.14393961429595947
1696964984979094500,6.613094482421875,-0.11624355614185333,-0.03621792420744896,0.15352670848369598
1696964984989108700,6.623108642578125,-0.11304785311222076,-0.0532616525888443,0.14820054173469543
1696964984999123000,6.633123046875,-0.11837401986122131,-0.02236989326775074,0.0874822586774826
1696964985009137200,6.64313720703125,-0.11304785311222076,-0.04900071769952774,0.11837401986122131
1696964985019151400,6.6531513671875,-0.1087869256734848,-0.05006595328450203,0.09387365728616714
1696964985029165600,6.66316552734375,-0.11517832428216934,-0.01704372838139534,0.03209014609456062
1696964985039179800,6.6731796875,-0.11304785311222076,-0.05219641700387001,0.07469946891069412
1696964985049194000,6.683194091796875,-0.10985215753316879,-0.02982652559876442,0.025698747485876083
1696964985059208200,6.693208251953125,-0.11411308497190475,-0.01917419396340847,-0.001997311832383275
1696964985069222400,6.703222412109375,-0.11091738939285278,-0.04900071769952774,0.022503048181533813
1696964985079236900,6.71323681640625,-0.1087869256734848,-0.01810896210372448,-0.024367205798625946
1696964985089251000,6.7232509765625,-0.11517832428216934,-0.02023942768573761,-0.044606633484363556
1696964985099265300,6.733265380859375,-0.11091738939285278,-0.03834838792681694,-0.03608476743102074
1696964985109279500,6.743279541015625,-0.10985215753316879,-0.009587096981704235,-0.054193731397390366
1696964985119293700,6.753293701171875,-0.11837401986122131,-0.02876129187643528,-0.07443315535783768
1696964985129308000,6.763307861328125,-0.11091738939285278,-0.02023942768573761,-0.06378082931041718
1696964985139322400,6.773322265625,-0.11091738939285278,-0.01917419396340847,-0.07443315535783768
1696964985149336600,6.783336669921875,-0.12156971544027328,-0.0063913981430232525,-0.12023817747831345
1696964985159350800,6.793350830078125,-0.11091738939285278,-0.0213046595454216,-0.050998032093048096
1696964985169365000,6.803364990234375,-0.11624355614185333,-0.004260932095348835,-0.10639014840126038
1696964985179379500,6.81337939453125,-0.12263495475053787,0.0031956990715116262,-0.1138467788696289
1696964985189393700,6.8233935546875,-0.11304785311222076,-0.02236989326775074,-0.048867564648389816
1696964985199407900,6.833407958984375,-0.11837401986122131,0.007456631399691105,-0.13408620655536652
1696964985209422000,6.843422119140625,-0.12476541846990585,0.0021304660476744175,-0.10532491654157639
1696964985219436500,6.8534365234375,-0.11517832428216934,-0.009587096981704235,-0.05632419511675835
1696964985229450800,6.86345068359375,-0.12370018661022186,0.007456631399691105,-0.13941237330436707
1696964985239465000,6.87346484375,-0.12156971544027328,-0.0053261648863554,-0.08402025699615479
1696964985249479200,6.883479248046875,-0.11624355614185333,-0.01810896210372448,-0.0712374597787857
1696964985259493600,6.89349365234375,-0.12583065032958984,0.009587096981704235,-0.13834713399410248
1696964985269507800,6.9035078125,-0.12370018661022186,-0.009587096981704235,-0.07549838721752167
1696964985279522000,6.91352197265625,-0.11837401986122131,-0.01810896210372448,-0.07017222791910172
1696964985289536300,6.923536376953125,-0.1300915777683258,0.02556559257209301,-0.12023817747831345
1696964985299550700,6.93355078125,-0.12476541846990585,-0.02982652559876442,-0.047802332788705826
1696964985309565000,6.94356494140625,-0.12263495475053787,0.01384802907705307,-0.07549838721752167
1696964985319579100,6.9535791015625,-0.13435252010822296,0.00852186419069767,-0.08934641629457474
1696964985329593300,6.96359326171875,-0.12796111404895782,-0.0021304660476744175,-0.037150003015995026
1696964985339607800,6.97360791015625,-0.12583065032958984,-0.0053261648863554,-0.048867564648389816
1696964985349622000,6.9836220703125,-0.13435252010822296,0.02663082629442215,-0.06910699605941772
1696964985359636200,6.99363623046875,-0.1290263533592224,-0.02876129187643528,-0.014780107885599136
1696964985369650400,7.003650390625,-0.12476541846990585,0.01384802907705307,-0.033954303711652756
1696964985379665000,7.013664794921875,-0.13541774451732635,0.007456631399691105,-0.050998032093048096
1696964985389679000,7.02367919921875,-0.1300915777683258,-0.01171756349503994,-0.001997311832383275
1696964985399693300,7.033693359375,-0.12476541846990585,-0.0063913981430232525,-0.011584409512579441
1696964985409707500,7.04370751953125,-0.13328728079795837,0.007456631399691105,-0.03928046673536301
1696964985419721700,7.0537216796875,-0.12476541846990585,-0.02236989326775074,0.011850717477500439
1696964985429736200,7.063736083984375,-0.12370018661022186,-0.01704372838139534,-0.0009320789249613881
1696964985439750400,7.07375048828125,-0.13328728079795837,0.004260932095348835,-0.009453942999243736
1696964985449764600,7.0837646484375,-0.12476541846990585,-0.04473978653550148,0.005459319334477186
1696964985459778800,7.09377880859375,-0.12263495475053787,0,0.023568280041217804
1696964985469793300,7.103793212890625,-0.1407439112663269,-0.05006595328450203,0.010785484686493874
1696964985479807500,7.113807373046875,-0.1311568170785904,-0.02450035884976387,0.04274247586727142
1696964985489821700,7.12382177734375,-0.1290263533592224,-0.05752258375287056,0.047003407031297684
1696964985499836000,7.1338359375,-0.13648298382759094,0.01810896210372448,-0.059519894421100616
1696964985509850400,7.143850341796875,-0.1205044835805893,-0.07137060910463333,0.08215609937906265
1696964985519864600,7.153864501953125,-0.12156971544027328,0.0021304660476744175,-0.019041040912270546
1696964985529878800,7.163878662109375,-0.12796111404895782,-0.0213046595454216,0.0001331541279796511
1696964985539893000,7.17389306640625,-0.12263495475053787,-0.03834838792681694,0.040612008422613144
1696964985549907200,7.1839072265625,-0.12370018661022186,-0.0053261648863554,0.025698747485876083
1696964985559921700,7.193921630859375,-0.13648298382759094,-0.03621792420744896,-0.0009320789249613881
1696964985569936000,7.203935791015625,-0.12796111404895782,-0.0053261648863554,0.03954677656292915
1696964985579950000,7.2139501953125,-0.12796111404895782,-0.04154408723115921,0.054460037499666214
1696964985589964300,7.22396435546875,-0.13861344754695892,0.01171756349503994,-0.050998032093048096
1696964985599978500,7.233978515625,-0.12476541846990585,-0.05006595328450203,0.09600412845611572
1696964985609992700,7.24399267578125,-0.1290263533592224,-0.0213046595454216,-0.019041040912270546
1696964985620007000,7.2540068359375,-0.13541774451732635,-0.02450035884976387,-0.0009320789249613881
1696964985630021000,7.264021240234375,-0.12263495475053787,-0.04793548583984375,0.04593817517161369
1696964985640035300,7.274035400390625,-0.1290263533592224,-0.02876129187643528,-0.023301972076296806
1696964985650049500,7.284049560546875,-0.1311568170785904,-0.04580501839518547,0.0001331541279796511
1696964985660063700,7.294063720703125,-0.12156971544027328,-0.04580501839518547,0.028894444927573204
1696964985670078000,7.304077880859375,-0.1290263533592224,-0.04367455467581749,-0.029693370684981346
1696964985680092200,7.314092041015625,-0.1300915777683258,-0.02663082629442215,-0.011584409512579441
1696964985690106400,7.3241064453125,-0.1194392517209053,-0.07030537724494934,0.03209014609456062
1696964985700120600,7.33412060546875,-0.1311568170785904,0.0021304660476744175,-0.06591129302978516
1696964985710134800,7.344134765625,-0.12689588963985443,-0.05645735189318657,0.04274247586727142
1696964985720149000,7.35414892578125,-0.11730878800153732,-0.05219641700387001,-0.007323476951569319
1696964985730163200,7.3641630859375,-0.12796111404895782,0.0053261648863554,-0.042476166039705276
1696964985740177400,7.374177490234375,-0.12476541846990585,-0.07350108027458191,0.04913387447595596
1696964985750191600,7.384191650390625,-0.11837401986122131,-0.00852186419069767,-0.029693370684981346
1696964985760205800,7.394205810546875,-0.12583065032958984,-0.03728315606713295,0.016111649572849274
1696964985770220000,7.404219970703125,-0.1194392517209053,-0.04367455467581749,0.012915950268507004
1696964985780234200,7.414234130859375,-0.11411308497190475,-0.02236989326775074,0.018242115154862404
1696964985790248400,7.42424853515625,-0.12583065032958984,-0.02663082629442215,0.00226362026296556
1696964985800263000,7.434262939453125,-0.11624355614185333,-0.01917419396340847,0.019307348877191544
1696964985810277000,7.444277099609375,-0.11304785311222076,-0.04047885537147522,0.04274247586727142
1696964985820291300,7.454291259765625,-0.12263495475053787,0.00852186419069767,-0.009453942999243736
1696964985830305500,7.464305419921875,-0.10985215753316879,-0.05219641700387001,0.058720968663692474
1696964985840319700,7.47431982421875,-0.11091738939285278,0,0.013981183059513569
1696964985850334000,7.484333984375,-0.11837401986122131,-0.03408745676279068,0.015046416781842709
1696964985860348200,7.49434814453125,-0.10772168636322021,-0.012782796286046505,0.034220609813928604
1696964985870362400,7.5043623046875,-0.11091738939285278,-0.02982652559876442,0.03528584539890289
1696964985880376600,7.51437646484375,-0.11517832428216934,-0.012782796286046505,-0.013714875094592571
1696964985890390800,7.524390869140625,-0.10346075892448425,-0.03621792420744896,0.061916667968034744
1696964985900405000,7.534405029296875,-0.1087869256734848,-0.03834838792681694,-0.0030625448562204838
1696964985910419200,7.544419189453125,-0.11411308497190475,0.0010652330238372087,-0.011584409512579441
1696964985920433400,7.554433349609375,-0.10346075892448425,-0.0639139786362648,0.06511236727237701
1696964985930447600,7.564447509765625,-0.11091738939285278,-0.01171756349503994,-0.040345702320337296
1696964985940461800,7.5744619140625,-0.11091738939285278,-0.04473978653550148,0.027829213067889214
1696964985950476000,7.58447607421875,-0.10346075892448425,-0.03834838792681694,0.028894444927573204
1696964985960490200,7.594490234375,-0.10772168636322021,-0.02023942768573761,-0.024367205798625946
1696964985970504400,7.60450439453125,-0.10985215753316879,-0.02982652559876442,0.020372580736875534
1696964985980518700,7.6145185546875,-0.10346075892448425,-0.02769605815410614,0.028894444927573204
1696964985990532900,7.624532958984375,-0.1087869256734848,-0.0063913981430232525,-0.005193010903894901
1696964986000547000,7.634547119140625,-0.11091738939285278,-0.01704372838139534,0.012915950268507004
1696964986010561300,7.644561279296875,-0.10239552706480026,-0.02769605815410614,0.06937330216169357
1696964986020575700,7.65457568359375,-0.11198262125253677,0.02876129187643528,-0.033954303711652756
1696964986030590000,7.66458984375,-0.1087869256734848,-0.02769605815410614,0.05232957378029823
1696964986040604200,7.674604248046875,-0.0991998240351677,-0.009587096981704235,0.04913387447595596
1696964986050618400,7.684618408203125,-0.11091738939285278,0.0053261648863554,-0.015845341607928276
1696964986060632800,7.6946328125,-0.10346075892448425,-0.0319569893181324,0.06937330216169357
1696964986070647000,7.70464697265625,-0.0991998240351677,-0.007456631399691105,0.023568280041217804
1696964986080661200,7.7146611328125,-0.10559122264385223,-0.01810896210372448,0.009720250964164734
1696964986090675500,7.724675537109375,-0.10133028775453568,-0.01384802907705307,0.036351077258586884
1696964986100690000,7.73468994140625,-0.09387365728616714,-0.03834838792681694,0.057655736804008484
1696964986110704000,7.7447041015625,-0.10559122264385223,0.0159784946590662,-0.038215234875679016
1696964986120718300,7.75471826171875,-0.09493889659643173,-0.04793548583984375,0.08854749798774719
1696964986130732500,7.764732666015625,-0.0991998240351677,0.01171756349503994,-0.016910573467612267
1696964986140747000,7.7747470703125,-0.10452599078416824,-0.004260932095348835,0.016111649572849274
1696964986150761200,7.78476123046875,-0.09493889659643173,-0.0021304660476744175,0.040612008422613144
1696964986160775400,7.794775390625,-0.10133028775453568,0.00852186419069767,-0.011584409512579441
1696964986170789600,7.80478955078125,-0.10452599078416824,0.03728315606713295,0.015046416781842709
1696964986180804000,7.81480419921875,-0.0981345921754837,0.004260932095348835,0.03209014609456062
1696964986190818300,7.824818359375,-0.10133028775453568,0.02023942768573761,-0.016910573467612267
1696964986200832500,7.83483251953125,-0.10133028775453568,0.02876129187643528,0.015046416781842709
1696964986210846700,7.8448466796875,-0.0981345921754837,0.007456631399691105,0.009720250964164734
1696964986220861200,7.854861083984375,-0.0991998240351677,0.01810896210372448,-0.001997311832383275
1696964986230875400,7.86487548828125,-0.09706936031579971,0.009587096981704235,0.010785484686493874
1696964986240889600,7.8748896484375,-0.09280842542648315,-0.0063913981430232525,0.018242115154862404
1696964986250903800,7.88490380859375,-0.0981345921754837,0.0063913981430232525,-0.014780107885599136
1696964986260918300,7.894918212890625,-0.09067796170711517,0.004260932095348835,0.016111649572849274
1696964986270932500,7.904932373046875,-0.09280842542648315,-0.00852186419069767,0.024633513763546944
1696964986280946700,7.91494677734375,-0.09387365728616714,-0.0031956990715116262,-0.025432437658309937
1696964986290961000,7.9249609375,-0.08535179495811462,-0.01171756349503994,0.06511236727237701
1696964986300975400,7.934975341796875,-0.09174319356679916,0.007456631399691105,-0.009453942999243736
1696964986310989600,7.944989501953125,-0.08641702681779861,-0.01491326279938221,0.0033288532868027687
1696964986321003800,7.955003662109375,-0.08428656309843063,0.0063913981430232525,0.054460037499666214
1696964986331018000,7.96501806640625,-0.08961272984743118,0.02023942768573761,-0.040345702320337296
1696964986341032400,7.975032470703125,-0.0778951644897461,-0.03302222490310669,0.06298190355300903
1696964986351046700,7.985046630859375,-0.08215609937906265,0.03941362351179123,-0.004127778112888336
1696964986361060900,7.995060791015625,-0.08428656309843063,-0.02663082629442215,0.00226362026296556
1696964986371075000,8.005074951171874,-0.07469946891069412,0.02450035884976387,0.027829213067889214
1696964986381089300,8.01508935546875,-0.08215609937906265,0.01491326279938221,-0.013714875094592571
1696964986391103700,8.025103759765624,-0.07363422960042953,-0.01704372838139534,0.022503048181533813
1696964986401118000,8.035117919921875,-0.07150376588106155,0.0213046595454216,0.006524552125483751
1696964986411132200,8.045132080078124,-0.07256899774074554,-0.0053261648863554,0.00226362026296556
1696964986421146400,8.055146484375,-0.06511236727237701,0.004260932095348835,0.022503048181533813
1696964986431160800,8.065160888671874,-0.07150376588106155,0.02450035884976387,-0.014780107885599136
1696964986441175000,8.075175048828125,-0.06937330216169357,0.0010652330238372087,0.005459319334477186
1696964986451189200,8.085189208984374,-0.0555252730846405,-0.02450035884976387,0.033155377954244614
1696964986461203500,8.095203369140625,-0.06511236727237701,0.02450035884976387,-0.041410934180021286
1696964986471218000,8.105218017578125,-0.058720968663692474,-0.02876129187643528,0.03954677656292915
1696964986481232100,8.115232177734375,-0.05232957378029823,-0.0213046595454216,-0.007323476951569319
1696964986491246300,8.125246337890625,-0.05978620424866676,-0.009587096981704235,-0.028628136962652206
1696964986501260500,8.135260498046875,-0.048068638890981674,-0.06284874677658081,0.06404713541269302
1696964986511275000,8.14527490234375,-0.05232957378029823,-0.0053261648863554,-0.048867564648389816
1696964986521289200,8.155289306640626,-0.054460037499666214,-0.05219641700387001,0.009720250964164734
1696964986531303400,8.165303466796875,-0.04913387447595596,-0.03515268862247467,0.025698747485876083
1696964986541317600,8.175317626953126,-0.053394805639982224,-0.01704372838139534,-0.05312849581241608
1696964986551332000,8.18533203125,-0.04913387447595596,-0.03834838792681694,0.053394805639982224
1696964986561346300,8.19534619140625,-0.048068638890981674,-0.02450035884976387,-0.019041040912270546
1696964986571360500,8.205360595703125,-0.051264338195323944,-0.0021304660476744175,-0.030758604407310486
1696964986581374700,8.215374755859376,-0.047003407031297684,-0.03302222490310669,0.017176883295178413
1696964986591389000,8.225388916015625,-0.047003407031297684,0.01384802907705307,-0.024367205798625946
1696964986601403100,8.235403076171876,-0.048068638890981674,-0.0213046595454216,-0.016910573467612267
1696964986611417600,8.24541748046875,-0.041677240282297134,0.01171756349503994,0.007589785382151604
1696964986621431800,8.255431884765626,-0.043807707726955414,-0.0063913981430232525,-0.025432437658309937
1696964986631446000,8.265446044921875,-0.040612008422613144,0,-0.027562905102968216
1696964986641460200,8.275460205078126,-0.033155377954244614,-0.01384802907705307,0.0001331541279796511
1696964986651474400,8.285474365234375,-0.03954677656292915,0.0031956990715116262,-0.04993279650807381
1696964986661488600,8.295488525390626,-0.029959678649902344,-0.02769605815410614,0.006524552125483751
1696964986671502800,8.3055029296875,-0.026763979345560074,-0.007456631399691105,-0.021171506494283676
1696964986681517000,8.31551708984375,-0.03209014609456062,0.0031956990715116262,-0.03608476743102074
1696964986691531300,8.32553125,-0.024633513763546944,-0.02769605815410614,0.00226362026296556
1696964986701545500,8.33554541015625,-0.020372580736875534,0.0031956990715116262,-0.005193010903894901
1696964986711560400,8.345560546875,-0.029959678649902344,0.009587096981704235,-0.040345702320337296
1696964986721574100,8.35557421875,-0.020372580736875534,-0.02556559257209301,0.019307348877191544
1696964986731587800,8.365587890625,-0.017176883295178413,-0.0106523297727108,0.016111649572849274
1696964986741601500,8.3756015625,-0.031024912372231483,0.02556559257209301,-0.06697652488946915
1696964986751615500,8.385615478515625,-0.017176883295178413,-0.03621792420744896,0.06511236727237701
1696964986761629200,8.395629150390626,-0.019307348877191544,0.0053261648863554,-0.021171506494283676
1696964986771643100,8.40564306640625,-0.031024912372231483,-0.0031956990715116262,-0.027562905102968216
1696964986781657000,8.415656982421876,-0.013981183059513569,-0.02769605815410614,0.07150376588106155
1696964986791671000,8.425671142578125,-0.021437814459204674,-0.004260932095348835,-0.038215234875679016
1696964986801685200,8.435685302734376,-0.028894444927573204,-0.0010652330238372087,0.007589785382151604
1696964986811699500,8.445699462890625,-0.016111649572849274,-0.02663082629442215,0.06298190355300903
1696964986821714000,8.4557138671875,-0.023568280041217804,0.012782796286046505,-0.031823836266994476
1696964986831728400,8.465728271484375,-0.027829213067889214,0.0053261648863554,0.028894444927573204
1696964986841742800,8.475742919921874,-0.016111649572849274,0,0.040612008422613144
1696964986851757600,8.485757568359375,-0.025698747485876083,0.02450035884976387,-0.025432437658309937
1696964986861772000,8.49577197265625,-0.024633513763546944,0.012782796286046505,0.021437814459204674
1696964986871786800,8.505786865234375,-0.017176883295178413,0.0053261648863554,0.027829213067889214
1696964986881801500,8.515801513671875,-0.020372580736875534,0.01491326279938221,-0.03608476743102074
1696964986891816000,8.52581591796875,-0.015046416781842709,-0.01704372838139534,0.022503048181533813
1696964986901830700,8.53583056640625,-0.009720250964164734,-0.02876129187643528,-0.0009320789249613881
1696964986911844900,8.545844970703126,-0.013981183059513569,0.009587096981704235,-0.042476166039705276
1696964986921859000,8.555859130859375,-0.007589785382151604,-0.07137060910463333,0.023568280041217804
1696964986931873500,8.56587353515625,-0.0001331541279796511,-0.03515268862247467,-0.023301972076296806
1696964986941887700,8.5758876953125,-0.005459319334477186,-0.03834838792681694,-0.007323476951569319
1696964986951902000,8.58590185546875,-0.0011983871227130294,-0.0532616525888443,-0.019041040912270546
1696964986961916700,8.595916748046875,0.009453942999243736,-0.06497921794652939,0.037416309118270874
1696964986971930400,8.605930419921876,-0.0011983871227130294,-0.02023942768573761,-0.04673709720373154
1696964986981944000,8.615944091796875,0.001997311832383275,-0.06178351491689682,0.031024912372231483
1696964986991958000,8.6259580078125,0.009453942999243736,-0.02876129187643528,0.025698747485876083
1696964987001971700,8.6359716796875,0.0009320789249613881,-0.03089175745844841,-0.014780107885599136
1696964987011985700,8.645985595703126,0.008388710208237171,-0.03302222490310669,0.04913387447595596
1696964987021999400,8.655999267578125,0.012649642303586006,-0.04900071769952774,0.047003407031297684
1696964987032013300,8.666013427734375,0.004127778112888336,-0.0010652330238372087,-0.023301972076296806
1696964987042027500,8.676027587890625,0.015845341607928276,-0.05539211630821228,0.08854749798774719
1696964987052041700,8.686041748046875,0.013714875094592571,-0.01917419396340847,0.012915950268507004
1696964987062056000,8.696055908203125,0.012649642303586006,-0.02450035884976387,0.024633513763546944
1696964987072070400,8.7060703125,0.023301972076296806,-0.05858781561255455,0.06404713541269302
1696964987082084600,8.716084716796875,0.020106272771954536,-0.0021304660476744175,0.00226362026296556
1696964987092099000,8.72609912109375,0.017975807189941406,-0.04580501839518547,0.0555252730846405
1696964987102113800,8.73611376953125,0.025432437658309937,-0.02343512699007988,0.010785484686493874
1696964987112128300,8.746128173828126,0.025432437658309937,-0.02663082629442215,0.06404713541269302
1696964987122143000,8.75614306640625,0.021171506494283676,-0.03089175745844841,-0.005193010903894901
1696964987132157400,8.766157470703124,0.027562905102968216,-0.00852186419069767,0.04593817517161369
1696964987142172200,8.776172119140625,0.026497671380639076,-0.04047885537147522,0.053394805639982224
1696964987152186600,8.7861865234375,0.017975807189941406,0.01491326279938221,-0.037150003015995026
1696964987162201000,8.796201171875,0.029693370684981346,-0.03302222490310669,0.0981345921754837
1696964987172215300,8.80621533203125,0.024367205798625946,-0.00852186419069767,-0.017975807189941406
1696964987182229500,8.8162294921875,0.024367205798625946,-0.0010652330238372087,0.029959678649902344
1696964987192243700,8.82624365234375,0.03288906812667847,-0.03408745676279068,0.05978620424866676
1696964987202258000,8.8362578125,0.026497671380639076,0.01810896210372448,-0.035019535571336746
1696964987212272000,8.846272216796875,0.029693370684981346,-0.02023942768573761,0.067242830991745
1696964987222286300,8.856286376953125,0.033954303711652756,0.01491326279938221,0.010785484686493874
1696964987232300500,8.866300537109375,0.028628136962652206,0.0106523297727108,0.005459319334477186
1696964987242314800,8.876314697265625,0.03288906812667847,0.0010652330238372087,0.026763979345560074
1696964987252329000,8.886328857421875,0.037150003015995026,0.02982652559876442,0.023568280041217804
1696964987262343200,8.89634326171875,0.031823836266994476,0.02769605815410614,0.0033288532868027687
1696964987272357400,8.906357421875,0.03608476743102074,0.02982652559876442,0.023568280041217804
1696964987282371600,8.91637158203125,0.040345702320337296,0.02982652559876442,0.026763979345560074
1696964987292385800,8.9263857421875,0.035019535571336746,0.04580501839518547,0.011850717477500439
1696964987302400000,8.93639990234375,0.035019535571336746,0.02982652559876442,0.015046416781842709
1696964987312414200,8.946414306640625,0.044606633484363556,0.02769605815410614,0.05659050494432449
1696964987322428400,8.956428466796876,0.037150003015995026,0.03728315606713295,0.008655018173158169
1696964987332442600,8.966442626953125,0.037150003015995026,0.02876129187643528,0.017176883295178413
1696964987342456800,8.976456787109376,0.047802332788705826,0,0.0874822586774826
1696964987352471300,8.98647119140625,0.03928046673536301,0.0319569893181324,-0.025432437658309937
1696964987362485500,8.996485595703126,0.044606633484363556,0.0031956990715116262,0.07896039634943008
1696964987372499700,9.006499755859375,0.047802332788705826,0.004260932095348835,0.05232957378029823
1696964987382514000,9.016513916015626,0.03928046673536301,0.03621792420744896,-0.006258244160562754
1696964987392528100,9.026528076171875,0.043541401624679565,0,0.08002562820911407
1696964987402542300,9.036542236328126,0.044606633484363556,0.01704372838139534,0.03954677656292915
1696964987412556500,9.046556640625,0.038215234875679016,0.0213046595454216,0.023568280041217804
1696964987422570800,9.05657080078125,0.041410934180021286,-0.0010652330238372087,0.05978620424866676
1696964987432585000,9.0665849609375,0.044606633484363556,0.02663082629442215,0.04274247586727142
1696964987442599200,9.07659912109375,0.035019535571336746,0.0106523297727108,0.015046416781842709
1696964987452613400,9.08661328125,0.040345702320337296,0.01810896210372448,0.04913387447595596
1696964987462627600,9.096627685546874,0.041410934180021286,-0.0063913981430232525,0.04913387447595596
1696964987472641800,9.106641845703125,0.033954303711652756,0.04154408723115921,-0.024367205798625946
1696964987482656000,9.116656005859374,0.042476166039705276,-0.01917419396340847,0.0874822586774826
1696964987492670200,9.126670166015625,0.040345702320337296,0.009587096981704235,-0.022236740216612816
1696964987502684400,9.136684326171874,0.037150003015995026,0.01704372838139534,0.004394086077809334
1696964987512698600,9.14669873046875,0.044606633484363556,-0.01917419396340847,0.04593817517161369
1696964987522712800,9.156712890625,0.040345702320337296,0.01810896210372448,-0.024367205798625946
1696964987532727000,9.16672705078125,0.040345702320337296,0.004260932095348835,0.03528584539890289
1696964987542741200,9.1767412109375,0.042476166039705276,0.0010652330238372087,-0.014780107885599136
1696964987552755500,9.18675537109375,0.04673709720373154,0.007456631399691105,0.020372580736875534
1696964987562769700,9.196769775390624,0.042476166039705276,0.0106523297727108,0.004394086077809334
1696964987572783900,9.206783935546875,0.044606633484363556,0.009587096981704235,-0.010519175790250301
1696964987582798000,9.216798095703124,0.044606633484363556,0.009587096981704235,0.029959678649902344
1696964987592812500,9.2268125,0.040345702320337296,0.03302222490310669,-0.038215234875679016
1696964987602826800,9.23682666015625,0.047802332788705826,0.0010652330238372087,0.051264338195323944
1696964987612841000,9.246841064453125,0.044606633484363556,0.03834838792681694,-0.033954303711652756
1696964987622855200,9.256855224609374,0.03928046673536301,0.05432688444852829,-0.010519175790250301
1696964987632869400,9.266869384765625,0.04673709720373154,0.02982652559876442,0.022503048181533813
1696964987642883600,9.276883544921875,0.042476166039705276,0.07243584841489792,-0.033954303711652756
1696964987652897800,9.286897705078125,0.037150003015995026,0.06710968166589737,-0.007323476951569319
1696964987662912000,9.296912109375,0.043541401624679565,0.07776200771331787,-0.008388710208237171
1696964987672926200,9.30692626953125,0.043541401624679565,0.07030537724494934,-0.013714875094592571
1696964987682940400,9.3169404296875,0.037150003015995026,0.09480573982000351,-0.054193731397390366
1696964987692954600,9.32695458984375,0.042476166039705276,0.06071828305721283,0.012915950268507004
1696964987702968800,9.33696875,0.042476166039705276,0.07669677585363388,-0.03928046673536301
1696964987712983800,9.34698388671875,0.042476166039705276,0.03941362351179123,-0.026497671380639076
1696964987722998300,9.356998291015625,0.048867564648389816,0.0031956990715116262,0.005459319334477186
1696964987733012500,9.367012451171876,0.048867564648389816,0.02450035884976387,-0.027562905102968216
1696964987743026700,9.377026611328125,0.038215234875679016,-0.03621792420744896,-0.043541401624679565
1696964987753041000,9.387041015625,0.044606633484363556,-0.01491326279938221,0.031024912372231483
1696964987763055000,9.39705517578125,0.029693370684981346,-0.02343512699007988,-0.020106272771954536
1696964987773069300,9.4070693359375,0.025432437658309937,-0.01810896210372448,-0.028628136962652206
1696964987783083500,9.41708349609375,0.043541401624679565,-0.04687025398015976,0.06830807030200958
1696964987793097700,9.42709765625,0.03608476743102074,-0.0213046595454216,-0.017975807189941406
1696964987803112000,9.43711181640625,0.033954303711652756,0.01171756349503994,-0.045671865344047546
1696964987813126100,9.447126220703124,0.05312849581241608,-0.02663082629442215,0.07256899774074554
1696964987823140400,9.457140380859375,0.043541401624679565,0.0053261648863554,-0.11917294561862946
1696964987833154600,9.467154541015624,0.024367205798625946,-0.02023942768573761,0.1194392517209053
1696964987843168800,9.477168701171875,0.033954303711652756,-0.0053261648863554,-0.07975932210683823
1696964987853183000,9.487182861328124,0.038215234875679016,-0.05752258375287056,0.007589785382151604
1696964987863197400,9.497197509765625,0.030758604407310486,-0.03834838792681694,0.020372580736875534
1696964987873211600,9.507211669921874,0.035019535571336746,-0.0010652330238372087,-0.09999874979257584
1696964987883225900,9.517225830078125,0.059519894421100616,-0.16298064589500427,0.053394805639982224
1696964987893240000,9.527239990234374,0.041410934180021286,0.04687025398015976,-0.09680305421352386
1696964987903254300,9.537254150390625,0.011584409512579441,-0.07350108027458191,-0.03608476743102074
1696964987913268500,9.5472685546875,0.08508548885583878,-0.01384802907705307,-0.001997311832383275
1696964987923282700,9.55728271484375,0.14154283702373505,0.0639139786362648,-0.21823962032794952
1696964987933297000,9.567296875,0.09467258304357529,0.03621792420744896,0.0001331541279796511
1696964987943311000,9.57731103515625,0.023301972076296806,0.0958709716796875,-0.09680305421352386
1696964987953325300,9.5873251953125,0.043541401624679565,0.02236989326775074,-0.07762885838747025
1696964987963339500,9.597339599609375,0.06271559745073318,0.02556559257209301,-0.026497671380639076
1696964987973353700,9.607353759765624,0.04673709720373154,0.02663082629442215,-0.12769481539726257
1696964987983368000,9.617367919921875,0.05632419511675835,0.01491326279938221,-0.09999874979257584
1696964987993382100,9.627382080078124,0.07656362652778625,-0.0426093190908432,-0.038215234875679016
1696964988003396400,9.637396240234375,0.06484606117010117,-0.04687025398015976,-0.0829550251364708
1696964988013410600,9.64741064453125,0.037150003015995026,-0.00852186419069767,-0.050998032093048096
1696964988023424800,9.6574248046875,0.05632419511675835,-0.09161003679037094,-0.052063263952732086
1696964988033439000,9.66743896484375,0.050998032093048096,-0.06178351491689682,-0.11917294561862946
1696964988043453200,9.677453125,0.050998032093048096,-0.05645735189318657,-0.031823836266994476
1696964988053467400,9.68746728515625,0.05632419511675835,-0.05539211630821228,-0.05312849581241608
1696964988063481600,9.697481689453125,0.04993279650807381,-0.03408745676279068,-0.04673709720373154
1696964988073495800,9.707495849609375,0.045671865344047546,-0.01810896210372448,-0.027562905102968216
1696964988083510000,9.717510009765626,0.043541401624679565,-0.00852186419069767,-0.050998032093048096
1696964988093524200,9.727524169921875,0.038215234875679016,0.03941362351179123,0.00226362026296556
1696964988103538700,9.73753857421875,0.038215234875679016,-0.0213046595454216,0.011850717477500439
1696964988113553000,9.747552978515625,0.037150003015995026,-0.009587096981704235,-0.028628136962652206
1696964988123567000,9.757567138671876,0.031823836266994476,0.01810896210372448,-0.019041040912270546
1696964988133581300,9.767581298828125,0.023301972076296806,-0.02343512699007988,-0.004127778112888336
1696964988143595500,9.777595458984376,0.045671865344047546,-0.08415340632200241,-0.001997311832383275
1696964988153609700,9.787609619140625,0.047802332788705826,-0.05645735189318657,-0.016910573467612267
1696964988163624000,9.7976240234375,0.044606633484363556,-0.12250179797410965,-0.005193010903894901
1696964988173638100,9.80763818359375,0.04673709720373154,-0.04047885537147522,-0.06378082931041718
1696964988183652400,9.81765234375,0.05632419511675835,-0.09906667470932007,0.026763979345560074
1696964988193666600,9.82766650390625,0.05312849581241608,-0.07989247888326645,-0.037150003015995026
1696964988203680800,9.8376806640625,0.05632419511675835,-0.04793548583984375,-0.012649642303586006
1696964988213695000,9.847695068359375,0.061650361865758896,-0.05219641700387001,-0.001997311832383275
1696964988223709200,9.857709228515626,0.058454662561416626,-0.02236989326775074,-0.011584409512579441
1696964988233723400,9.867723388671875,0.059519894421100616,-0.03728315606713295,0.0001331541279796511
1696964988243737600,9.877737548828126,0.06591129302978516,-0.0106523297727108,-0.005193010903894901
1696964988253751800,9.887751708984375,0.06271559745073318,0.0021304660476744175,0.009720250964164734
1696964988263766000,9.89776611328125,0.061650361865758896,-0.009587096981704235,0.0033288532868027687
1696964988273780200,9.9077802734375,0.06804175674915314,0,0.022503048181533813
1696964988283794400,9.91779443359375,0.06804175674915314,-0.0159784946590662,0.005459319334477186
1696964988293808600,9.92780859375,0.06697652488946915,0.007456631399691105,-0.023301972076296806
1696964988303822800,9.93782275390625,0.07762885838747025,-0.03089175745844841,0.06298190355300903
1696964988313837000,9.947837158203125,0.06910699605941772,0.009587096981704235,-0.052063263952732086
1696964988323851300,9.957851318359374,0.0723026916384697,-0.01917419396340847,0.022503048181533813
1696964988333865700,9.96786572265625,0.07549838721752167,0.0053261648863554,-0.0030625448562204838
1696964988343880000,9.9778798828125,0.07549838721752167,0,-0.019041040912270546
1696964988353894100,9.98789404296875,0.0712374597787857,0.02450035884976387,-0.023301972076296806
1696964988363908400,9.997908447265624,0.07549838721752167,0.02876129187643528,-0.016910573467612267
1696964988373922600,10.007922607421875,0.0712374597787857,0.03621792420744896,-0.037150003015995026
1696964988383936800,10.017936767578124,0.06697652488946915,0.06604444980621338,-0.059519894421100616
1696964988393951000,10.027950927734375,0.06591129302978516,0.11930610239505768,-0.014780107885599136
1696964988403965200,10.037965087890624,0.060585130006074905,0.03408745676279068,0.008655018173158169
1696964988413979400,10.0479794921875,0.06910699605941772,0.05432688444852829,-0.12449911236763
1696964988423993600,10.05799365234375,0.06271559745073318,0.08308817446231842,0.060851436108350754
1696964988434007800,10.0680078125,0.054193731397390366,0.02236989326775074,-0.10106398165225983
1696964988444022000,10.07802197265625,0.05312849581241608,-0.007456631399691105,0.025698747485876083
1696964988454036200,10.0880361328125,0.0030625448562204838,0.08308817446231842,-0.04993279650807381
1696964988464050400,10.098050537109375,0.042476166039705276,-0.0532616525888443,0.07363422960042953
1696964988474064600,10.108064697265625,0.033954303711652756,0.01810896210372448,-0.07975932210683823
1696964988484078800,10.118078857421875,0.040345702320337296,-0.06178351491689682,0.08428656309843063
1696964988494093000,10.128093017578125,0.059519894421100616,0.007456631399691105,0.004394086077809334
1696964988504107300,10.138107177734375,0.04993279650807381,-0.02982652559876442,-0.013714875094592571
1696964988514121500,10.14812158203125,0.054193731397390366,-0.01491326279938221,0.06298190355300903
1696964988524135700,10.1581357421875,0.09999874979257584,0.0958709716796875,-0.030758604407310486
1696964988534150000,10.16814990234375,0.035019535571336746,0.04367455467581749,0.11198262125253677
1696964988544164000,10.1781640625,0.03928046673536301,0.05113118514418602,0.0033288532868027687
1696964988554178300,10.18817822265625,0.042476166039705276,0.11078423261642456,0.012915950268507004
1696964988564192500,10.198192626953125,0.054193731397390366,0.02663082629442215,0.12476541846990585
1696964988574207000,10.20820703125,0.054193731397390366,0.10758853703737259,-0.026497671380639076
1696964988584221200,10.21822119140625,0.06378082931041718,0.07030537724494934,0.12796111404895782
1696964988594235400,10.2282353515625,0.052063263952732086,0.06497921794652939,0.010785484686493874
1696964988604249600,10.23824951171875,0.052063263952732086,0.11397993564605713,0.061916667968034744
1696964988614263800,10.248263916015626,0.061650361865758896,0.09161003679037094,0.08002562820911407
1696964988624278000,10.258278076171875,0.04993279650807381,0.12995843589305878,-0.019041040912270546
1696964988634292200,10.268292236328126,0.10852061212062836,0.15232832729816437,0.08854749798774719
1696964988644306400,10.278306396484375,0.10106398165225983,0.15552401542663574,-0.06271559745073318
1696964988654320600,10.288320556640626,0.059519894421100616,0.1608501821756363,0.060851436108350754
1696964988664334800,10.2983349609375,0.03288906812667847,0.17469821870326996,-0.09147688746452332
1696964988674349000,10.30834912109375,0.041410934180021286,0.2034595012664795,-0.042476166039705276
1696964988684363300,10.31836328125,0.044606633484363556,0.22689463198184967,-0.009453942999243736
1696964988694377500,10.32837744140625,0.07017222791910172,0.1288931965827942,-0.05312849581241608
1696964988704391700,10.3383916015625,0.07017222791910172,0.1501978635787964,-0.06804175674915314
1696964988714406000,10.348406005859376,0.08828118443489075,0.1597849577665329,-0.08082455396652222
1696964988724420000,10.358420166015625,0.041410934180021286,0.16830681264400482,-0.08402025699615479
1696964988734434300,10.368434326171876,0.054193731397390366,0.20452474057674408,-0.027562905102968216
1696964988744448500,10.378448486328125,0.054193731397390366,0.09906667470932007,-0.044606633484363556
1696964988754462700,10.388462646484374,0.052063263952732086,0.14274121820926666,-0.010519175790250301
1696964988764477000,10.398476806640625,0.014780107885599136,0.12463226169347763,-0.0712374597787857
1696964988774491100,10.4084912109375,-0.025698747485876083,0.06817491352558136,-0.05312849581241608
1696964988784505300,10.41850537109375,-0.06404713541269302,0.0010652330238372087,-0.017975807189941406
1696964988794519600,10.42851953125,-0.006524552125483751,0.06071828305721283,-0.11704248189926147
1696964988804533800,10.43853369140625,0.025432437658309937,-0.04580501839518547,0.012915950268507004
1696964988814548200,10.44854833984375,-0.010785484686493874,0.009587096981704235,-0.0829550251364708
1696964988824562400,10.4585625,0.052063263952732086,-0.0213046595454216,-0.041410934180021286
1696964988834576600,10.46857666015625,0.059519894421100616,0.0063913981430232525,0.017176883295178413
1696964988844590800,10.4785908203125,0.058454662561416626,0.07669677585363388,-0.050998032093048096
1696964988854605000,10.48860498046875,0.061650361865758896,0.01491326279938221,0.07256899774074554
1696964988864619300,10.498619384765625,0.06271559745073318,0.10439283400774002,0.061916667968034744
1696964988874633500,10.508633544921874,0.055258963257074356,0.06710968166589737,0.06404713541269302
1696964988884647700,10.518647705078125,0.019041040912270546,0.03941362351179123,0.047003407031297684
1696964988894662000,10.528661865234374,-0.11091738939285278,-0.06284874677658081,0.11517832428216934
1696964988904676000,10.538676025390625,-0.3015941083431244,-0.05645735189318657,-0.008388710208237171
1696964988914690300,10.548690185546874,-0.35698622465133667,-0.09161003679037094,0.043807707726955414
1696964988924704500,10.55870458984375,-0.34100770950317383,-0.08095771074295044,0.023568280041217804
1696964988934718700,10.56871875,-0.19294032454490662,-0.12143656611442566,0.027829213067889214
1696964988944733000,10.57873291015625,-0.04274247586727142,-0.09374050796031952,-0.007323476951569319
1696964988954747100,10.5887470703125,0.10958584398031235,-0.14380645751953125,0.005459319334477186
1696964988964761300,10.59876123046875,0.1031944528222084,-0.08095771074295044,0.008655018173158169
1696964988974775600,10.608775634765625,0.0936073511838913,-0.03089175745844841,-0.041410934180021286
1696964988984789800,10.618789794921875,0.10852061212062836,-0.1693720519542694,0.04274247586727142
1696964988994804000,10.628803955078125,0.10532491654157639,-0.04154408723115921,-0.048867564648389816
1696964989004818200,10.638818115234375,0.10639014840126038,-0.1587197184562683,0.033155377954244614
1696964989014832400,10.648832275390625,0.09999874979257584,-0.04900071769952774,-0.030758604407310486
1696964989024846600,10.6588466796875,0.09999874979257584,-0.13315412402153015,0.027829213067889214
1696964989034860800,10.66886083984375,0.09893351793289185,-0.0319569893181324,-0.05312849581241608
1696964989044875000,10.678875,0.0936073511838913,-0.06817491352558136,0.020372580736875534
1696964989054889500,10.688889404296875,0.09041165560483932,-0.09800143539905548,-0.045671865344047546
1696964989064903700,10.698903564453126,0.08508548885583878,0.009587096981704235,-0.023301972076296806
1696964989074918000,10.70891796875,0.08402025699615479,-0.10865376889705658,-0.007323476951569319
1696964989084932000,10.71893212890625,0.08508548885583878,-0.02982652559876442,-0.038215234875679016
1696964989094946300,10.7289462890625,0.07656362652778625,-0.15658925473690033,-0.026497671380639076
1696964989104960500,10.73896044921875,0.07017222791910172,0,-0.06378082931041718
1696964989114974700,10.748974609375,0.07869409024715424,-0.2013290375471115,0.03848154470324516
1696964989124989000,10.758989013671876,0.061650361865758896,-0.0639139786362648,-0.09041165560483932
1696964989135003100,10.769003173828125,0.05632419511675835,-0.15658925473690033,0.011850717477500439
1696964989145017300,10.779017333984376,0.059519894421100616,-0.12250179797410965,-0.027562905102968216
1696964989155031600,10.789031494140625,0.052063263952732086,-0.08415340632200241,-0.025432437658309937
1696964989165045800,10.799045654296876,0.03608476743102074,-0.10226237028837204,-0.025432437658309937
1696964989175060000,10.80906005859375,0.03608476743102074,-0.05539211630821228,-0.021171506494283676
1696964989185074200,10.81907421875,0.038215234875679016,-0.10013190656900406,-0.021171506494283676
1696964989195088400,10.82908837890625,0.021171506494283676,0.01491326279938221,-0.06378082931041718
1696964989205102600,10.8391025390625,0.031823836266994476,-0.08415340632200241,0.029959678649902344
1696964989215116800,10.84911669921875,0.025432437658309937,-0.03408745676279068,-0.0723026916384697
1696964989225131000,10.859131103515624,0.029693370684981346,0.02876129187643528,-0.054193731397390366
1696964989235145200,10.869145263671875,0.038215234875679016,-0.04580501839518547,-0.005193010903894901
1696964989245159400,10.879159423828124,0.047802332788705826,-0.0010652330238372087,-0.06271559745073318
1696964989255173600,10.889173583984375,0.04993279650807381,-0.0213046595454216,-0.037150003015995026
1696964989265187800,10.899187744140624,0.06378082931041718,-0.05432688444852829,-0.031823836266994476
1696964989275202000,10.9092021484375,0.0723026916384697,0.004260932095348835,-0.061650361865758896
1696964989285216300,10.91921630859375,0.07443315535783768,-0.0426093190908432,-0.035019535571336746
1696964989295230700,10.929230712890625,0.08402025699615479,-0.0213046595454216,-0.029693370684981346
1696964989305245000,10.939244873046874,0.09467258304357529,-0.03941362351179123,-0.025432437658309937
1696964989315259100,10.949259033203125,0.09147688746452332,0.04900071769952774,-0.024367205798625946
1696964989325273300,10.9592734375,0.10212921351194382,-0.0532616525888443,0.016111649572849274
1696964989335287600,10.96928759765625,0.10212921351194382,0.05752258375287056,-0.007323476951569319
1696964989345301800,10.9793017578125,0.0936073511838913,0.0213046595454216,0.010785484686493874
1696964989355316000,10.98931591796875,0.09893351793289185,0.07563154399394989,0.005459319334477186
1696964989365330200,10.999330078125,0.09893351793289185,0.01384802907705307,0.058720968663692474
1696964989375344400,11.009344482421875,0.08402025699615479,0.10226237028837204,-0.015845341607928276
1696964989385358600,11.019358642578124,0.07336792349815369,0.03834838792681694,0.027829213067889214
1696964989395372800,11.029372802734375,0.0723026916384697,0.0159784946590662,0.018242115154862404
1696964989405387000,11.039386962890624,0.06591129302978516,0.04687025398015976,-0.016910573467612267
1696964989415401200,11.049401123046875,0.05632419511675835,0.0063913981430232525,-0.015845341607928276
1696964989425415400,11.05941552734375,0.06271559745073318,0.009587096981704235,-0.015845341607928276
1696964989435429600,11.0694296875,0.07762885838747025,-0.06284874677658081,-0.035019535571336746
1696964989445443800,11.07944384765625,0.06378082931041718,0.007456631399691105,-0.07762885838747025
1696964989455458000,11.0894580078125,0.054193731397390366,-0.08628387749195099,-0.03608476743102074
1696964989465472300,11.09947216796875,0.061650361865758896,0.04580501839518547,-0.031823836266994476
1696964989475486500,11.109486572265626,0.059519894421100616,0.007456631399691105,-0.058454662561416626
1696964989485500700,11.119500732421875,0.06484606117010117,0.01171756349503994,-0.031823836266994476
1696964989495515000,11.129514892578126,0.059519894421100616,0.03621792420744896,-0.04993279650807381
1696964989505529000,11.139529052734375,0.057389430701732635,0.04047885537147522,-0.024367205798625946
1696964989515543300,11.149543212890626,0.055258963257074356,0.05219641700387001,-0.03928046673536301
1696964989525557800,11.159557861328125,0.061650361865758896,0.004260932095348835,-0.041410934180021286
1696964989535572000,11.169572021484376,0.06484606117010117,0.00852186419069767,-0.033954303711652756
1696964989545586200,11.179586181640625,0.060585130006074905,0.04473978653550148,-0.059519894421100616
1696964989555600400,11.189600341796876,0.06697652488946915,-0.02556559257209301,-0.033954303711652756
1696964989565614600,11.199614501953125,0.08188978582620621,-0.00852186419069767,-0.050998032093048096
1696964989575628800,11.20962890625,0.08082455396652222,0.02236989326775074,-0.04993279650807381
1696964989585643000,11.21964306640625,0.08188978582620621,-0.01171756349503994,-0.020106272771954536
1696964989595657200,11.2296572265625,0.08721595257520676,0.05858781561255455,-0.028628136962652206
1696964989605671400,11.23967138671875,0.08721595257520676,0.06497921794652939,-0.024367205798625946
1696964989615685600,11.249685546875,0.09147688746452332,0.10439283400774002,0.005459319334477186
1696964989625699800,11.259699951171875,0.09893351793289185,0.08947957307100296,0.019307348877191544
1696964989635714000,11.269714111328126,0.09467258304357529,0.1810896098613739,0.009720250964164734
1696964989645728300,11.279728271484375,0.09680305421352386,0.1267627328634262,0.066177599132061
1696964989655742500,11.289742431640626,0.09999874979257584,0.18854624032974243,0.017176883295178413
1696964989665756700,11.299756591796875,0.09999874979257584,0.16191542148590088,0.06511236727237701
1696964989675771000,11.30977099609375,0.09573781490325928,0.1480673849582672,0.053394805639982224
1696964989685785000,11.31978515625,0.09786828607320786,0.17682868242263794,0.024633513763546944
1696964989695799300,11.32979931640625,0.1042596846818924,0.16617634892463684,0.10133028775453568
1696964989705813500,11.3398134765625,0.09041165560483932,0.17682868242263794,0.03954677656292915
1696964989715827700,11.34982763671875,0.09147688746452332,0.1821548491716385,0.029959678649902344
1696964989725842000,11.359842041015625,0.09147688746452332,0.13634982705116272,0.09067796170711517
1696964989735856000,11.369856201171874,0.08082455396652222,0.18854624032974243,-0.007323476951569319
1696964989745870300,11.379870361328125,0.0723026916384697,0.13421936333179474,0.04913387447595596
1696964989755884500,11.389884521484374,0.06804175674915314,0.12037133425474167,0.020372580736875534
1696964989765899000,11.39989892578125,0.06378082931041718,0.11291470378637314,0.013981183059513569
1696964989775913200,11.409913330078124,0.06378082931041718,0.08308817446231842,0.018242115154862404
1696964989785927400,11.419927490234375,0.06484606117010117,0.06284874677658081,-0.013714875094592571
1696964989795941600,11.429941650390624,0.055258963257074356,0.04793548583984375,-0.009453942999243736
1696964989805955800,11.439955810546875,0.048867564648389816,0.05432688444852829,-0.014780107885599136
1696964989815970000,11.449969970703124,0.05632419511675835,0.0053261648863554,-0.019041040912270546
1696964989825984300,11.459984375,0.06271559745073318,0.0063913981430232525,-0.008388710208237171
1696964989835998500,11.46999853515625,0.04993279650807381,0.00852186419069767,-0.043541401624679565
1696964989846012700,11.4800126953125,0.054193731397390366,0.05113118514418602,-0.041410934180021286
1696964989856027000,11.49002685546875,0.06378082931041718,0.01384802907705307,-0.007323476951569319
1696964989866041000,11.500041015625,0.06378082931041718,0.02769605815410614,-0.07656362652778625
1696964989876055300,11.51005517578125,0.057389430701732635,0.0106523297727108,-0.042476166039705276
1696964989886069500,11.520069580078125,0.07549838721752167,-0.0063913981430232525,-0.022236740216612816
1696964989896083700,11.530083740234375,0.08082455396652222,-0.0010652330238372087,-0.06697652488946915
1696964989906098000,11.540097900390625,0.07869409024715424,-0.04793548583984375,-0.055258963257074356
1696964989916112100,11.550112060546875,0.08721595257520676,-0.04047885537147522,-0.03608476743102074
1696964989926126300,11.560126220703125,0.10852061212062836,-0.10119713842868805,-0.027562905102968216
1696964989936140500,11.570140625,0.10532491654157639,-0.07882724702358246,-0.03608476743102074
1696964989946154800,11.58015478515625,0.10639014840126038,-0.15765449404716492,-0.019041040912270546
1696964989956169000,11.5901689453125,0.12130340933799744,-0.10013190656900406,-0.006258244160562754
1696964989966183200,11.60018310546875,0.11917294561862946,-0.13528458774089813,-0.005193010903894901
1696964989976197400,11.610197265625,0.1149120107293129,-0.11078423261642456,-0.008388710208237171
1696964989986211600,11.620211669921876,0.11917294561862946,-0.06497921794652939,0.010785484686493874
1696964989996225800,11.630225830078125,0.11917294561862946,-0.08841434121131897,0.004394086077809334
1696964990006240300,11.640240234375,0.11278154700994492,-0.0426093190908432,0.005459319334477186
1696964990016254500,11.65025439453125,0.1149120107293129,-0.06710968166589737,0.021437814459204674
1696964990026268700,11.6602685546875,0.11810771375894547,-0.05219641700387001,-0.006258244160562754
1696964990036283000,11.670282958984375,0.12023817747831345,-0.0426093190908432,0.015046416781842709
1696964990046297000,11.680297119140626,0.12130340933799744,-0.07989247888326645,0.021437814459204674
1696964990056311300,11.690311279296875,0.12236864119768143,-0.05006595328450203,-0.006258244160562754
1696964990066325500,11.700325439453126,0.1255643367767334,-0.05965305119752884,0.022503048181533813
1696964990076339700,11.710339599609375,0.12130340933799744,-0.0532616525888443,-0.001997311832383275
1696964990086354000,11.72035400390625,0.12982527911663055,-0.08308817446231842,0.037416309118270874
1696964990096368000,11.7303681640625,0.1255643367767334,-0.06178351491689682,-0.005193010903894901
1696964990106382300,11.74038232421875,0.12130340933799744,-0.03408745676279068,0.009720250964164734
1696964990116396500,11.750396484375,0.1255643367767334,-0.0745663121342659,0.033155377954244614
1696964990126410800,11.76041064453125,0.1255643367767334,-0.04900071769952774,0.004394086077809334
1696964990136425000,11.770425048828125,0.1149120107293129,-0.03621792420744896,0.006524552125483751
1696964990146439200,11.780439208984374,0.1138467788696289,-0.06071828305721283,0.025698747485876083
1696964990156453400,11.790453369140625,0.11704248189926147,-0.02663082629442215,0.029959678649902344
1696964990166467600,11.800467529296874,0.10852061212062836,-0.05006595328450203,0.011850717477500439
1696964990176481800,11.810481689453125,0.09786828607320786,0.0021304660476744175,0.007589785382151604
1696964990186496000,11.82049609375,0.09999874979257584,-0.04367455467581749,0.048068638890981674
1696964990196510200,11.83051025390625,0.10106398165225983,0.02450035884976387,0.020372580736875534
1696964990206524400,11.8405244140625,0.08934641629457474,-0.03302222490310669,0.027829213067889214
1696964990216538600,11.85053857421875,0.09041165560483932,0.02343512699007988,0.022503048181533813
1696964990226552800,11.860552734375,0.09147688746452332,-0.0159784946590662,0.04593817517161369
1696964990236567000,11.870567138671875,0.08828118443489075,0.01384802907705307,0.019307348877191544
1696964990246581500,11.88058154296875,0.08402025699615479,0.004260932095348835,0.033155377954244614
1696964990256595700,11.890595703125,0.09041165560483932,-0.00852186419069767,0.057655736804008484
1696964990266610000,11.90060986328125,0.08721595257520676,0.0063913981430232525,0.019307348877191544
1696964990276624100,11.9106240234375,0.08828118443489075,0.0010652330238372087,0.03848154470324516
1696964990286638300,11.920638427734374,0.08934641629457474,0.0021304660476744175,0.04593817517161369
1696964990296652500,11.930652587890625,0.0925421193242073,-0.0159784946590662,0.03954677656292915
1696964990306666800,11.940666748046874,0.09147688746452332,0.03941362351179123,0.022503048181533813
1696964990316681000,11.950680908203125,0.09467258304357529,-0.0319569893181324,0.07576470077037811
1696964990326695200,11.960695068359374,0.09573781490325928,0.0021304660476744175,0.009720250964164734
1696964990336709400,11.97070947265625,0.09999874979257584,0.009587096981704235,0.047003407031297684
1696964990346723600,11.9807236328125,0.09786828607320786,-0.009587096981704235,0.037416309118270874
1696964990356737800,11.99073779296875,0.09999874979257584,0.01704372838139534,0.027829213067889214
1696964990366752000,12.000751953125,0.10212921351194382,-0.04580501839518547,0.05232957378029823
1696964990376766200,12.01076611328125,0.10212921351194382,0.05006595328450203,0.0001331541279796511
1696964990386780400,12.020780517578125,0.10745538026094437,-0.06604444980621338,0.08641702681779861
1696964990396794600,12.030794677734375,0.1042596846818924,0.03621792420744896,-0.017975807189941406
1696964990406808800,12.040808837890625,0.1031944528222084,-0.03515268862247467,0.048068638890981674
1696964990416823000,12.050822998046876,0.10852061212062836,0.01704372838139534,0.021437814459204674
1696964990426837200,12.060837158203125,0.11065108329057693,-0.0213046595454216,0.037416309118270874
1696964990436851500,12.0708515625,0.10532491654157639,0.01384802907705307,0.0033288532868027687
1696964990446865700,12.08086572265625,0.10745538026094437,0.0063913981430232525,0.034220609813928604
1696964990456879900,12.0908798828125,0.1138467788696289,-0.01171756349503994,0.024633513763546944
1696964990466894000,12.10089404296875,0.11171631515026093,0.01491326279938221,0.004394086077809334
1696964990476908300,12.110908203125,0.1042596846818924,-0.0031956990715116262,0.019307348877191544
1696964990486922800,12.1209228515625,0.11171631515026093,0.009587096981704235,0.026763979345560074
1696964990496937000,12.13093701171875,0.11278154700994492,-0.01171756349503994,0.015046416781842709
1696964990506951200,12.140951171875,0.1042596846818924,0.0159784946590662,-0.001997311832383275
1696964990516965400,12.15096533203125,0.10745538026094437,-0.01704372838139534,0.031024912372231483
1696964990526979600,12.1609794921875,0.10958584398031235,0.02023942768573761,0.0033288532868027687
1696964990536993800,12.170993896484376,0.10639014840126038,-0.02663082629442215,0.017176883295178413
1696964990547008000,12.181008056640625,0.1042596846818924,0.02769605815410614,0.0033288532868027687
1696964990557022200,12.191022216796876,0.10532491654157639,-0.02236989326775074,0.026763979345560074
1696964990567036400,12.201036376953125,0.1031944528222084,0.02876129187643528,-0.004127778112888336
1696964990577050600,12.211050537109376,0.10106398165225983,-0.01171756349503994,0.022503048181533813
