time,seconds_elapsed,z,y,x
1696958330960648000,0.14464794921875,-5.8684186935424805,-0.26414167881011963,0.12981975078582764
1696958330970580200,0.154580322265625,1.550323486328125,-0.5740331411361694,-0.34182077646255493
1696958330980548400,0.16454833984375,-5.345311641693115,-1.794297218322754,-0.14430946111679077
1696958330990552800,0.174552734375,-2.3032360076904297,-1.0080687999725342,0.19343936443328857
1696958331000592100,0.184592041015625,-1.115513801574707,-0.3114336431026459,0.17720472812652588
1696958331010664200,0.194664306640625,-2.199099540710449,-0.5921748876571655,-0.8592372536659241
1696958331020765400,0.204765380859375,-2.7039871215820312,-2.069316864013672,-0.4754909873008728
1696958331030890800,0.214890869140625,-0.3667421340942383,-1.1602203845977783,0.8714691400527954
1696958331041035000,0.225034912109375,-2.4455060958862305,-0.14781931042671204,0.6843734979629517
1696958331051192300,0.2351923828125,-1.6417608261108398,-1.6660876274108887,-1.2986762523651123
1696958331061356000,0.24535595703125,-2.8113393783569336,-2.828348398208618,-0.6605796813964844
1696958331071520000,0.25552001953125,0.9869804382324219,-0.2701427936553955,0.47490859031677246
1696958331081542000,0.2655419921875,-2.968088150024414,-0.12282726168632507,-0.47295957803726196
1696958331091555300,0.275555419921875,-0.8280906677246094,-2.864150047302246,-1.2822020053863525
1696958331101568800,0.28556884765625,-1.4495439529418945,-2.160141944885254,-0.4505804181098938
1696958331111582000,0.29558203125,-2.5686473846435547,-0.6602823138237,0.06473135948181152
1696958331121595400,0.305595458984375,0.33986759185791016,-0.974263608455658,-0.5047270655632019
1696958331131608600,0.315608642578125,-0.4941701889038086,-2.298295497894287,-0.5892667770385742
1696958331141622000,0.3256220703125,-3.658994197845459,-1.8577313423156738,-0.6495321989059448
1696958331151635200,0.33563525390625,1.1113042831420898,-0.7518346905708313,-0.005407094955444336
1696958331161648600,0.345648681640625,-0.7180261611938477,-1.2171036005020142,-0.6593208909034729
1696958331171662000,0.355662109375,-2.2340478897094727,-1.9881527423858643,-0.9080414772033691
1696958331181675300,0.36567529296875,-2.6282825469970703,-1.5082679986953735,-0.5279451608657837
1696958331191688700,0.375688720703125,1.6327743530273438,-0.8862065076828003,-0.44973403215408325
1696958331201702000,0.385701904296875,-2.284177780151367,-1.1588181257247925,-0.498500794172287
1696958331211715300,0.39571533203125,-0.5430288314819336,-1.1986843347549438,-0.04940688610076904
1696958331221728800,0.405728759765625,0.5245332717895508,-0.9152599573135376,0.2307078242301941
1696958331231742000,0.415741943359375,-2.2490463256835938,-0.8294612765312195,-0.3885617256164551
1696958331241755400,0.42575537109375,-0.1608905792236328,-1.1462109088897705,-0.8306096792221069
1696958331251768600,0.4357685546875,-1.0902032852172852,-1.3674330711364746,-0.025425076484680176
1696958331261782000,0.445781982421875,-0.9834508895874023,-1.0753272771835327,-0.2448331117630005
1696958331271795200,0.455795166015625,-0.23051166534423828,-0.8243367671966553,-0.7823441028594971
1696958331281808600,0.46580859375,-1.1368112564086914,-0.4751686453819275,0.17107075452804565
1696958331291822000,0.475822021484375,0.2140216827392578,-1.5422730445861816,-0.2014075517654419
1696958331301835300,0.485835205078125,-3.466437816619873,-0.38623470067977905,-0.22490918636322021
1696958331311848700,0.4958486328125,2.335428237915039,-1.1212294101715088,-0.4730185270309448
1696958331321862000,0.50586181640625,-3.0774354934692383,-0.1721106767654419,-0.21163105964660645
1696958331331875300,0.515875244140625,0.4820871353149414,-1.6689702272415161,-0.5745187997817993
1696958331341888800,0.525888671875,-0.9311294555664062,-0.35543131828308105,-0.6647897362709045
1696958331351902000,0.53590185546875,0.05552864074707031,-1.056388020515442,-0.17568033933639526
1696958331361915400,0.545915283203125,-1.9740991592407227,-0.4991466999053955,0.08512961864471436
1696958331371928600,0.555928466796875,0.9160451889038086,-0.8608665466308594,-0.01101619005203247
1696958331381942000,0.56594189453125,0.07607078552246094,-1.0221165418624878,-0.1929839849472046
1696958331391955200,0.575955078125,-2.063934326171875,-0.7149415612220764,-0.49170541763305664
1696958331401968600,0.58596875,0.5325374603271484,-1.03798246383667,-0.347098708152771
1696958331411982000,0.595982177734375,0.1841583251953125,-0.5057443380355835,-0.011674761772155762
1696958331421995300,0.605995361328125,-1.2963638305664062,-0.42361658811569214,-0.553532063961029
1696958331432008700,0.6160087890625,-0.143890380859375,-1.0996840000152588,0.3056439757347107
1696958331442022000,0.62602197265625,0.9040641784667969,-0.5951852202415466,-0.15901154279708862
1696958331452035300,0.636035400390625,-1.565291404724121,-0.8235006332397461,-0.25516510009765625
1696958331462048800,0.646048828125,0.42119312286376953,-0.7113344073295593,0.037811994552612305
1696958331472062000,0.65606201171875,0.738804817199707,-0.6869155764579773,0.48658931255340576
1696958331482075400,0.666075439453125,-1.8228626251220703,0.13731366395950317,-0.20693284273147583
1696958331492088600,0.676088623046875,0.8460845947265625,-0.9732820987701416,-0.03388512134552002
1696958331502102000,0.68610205078125,-0.2802705764770508,-0.5160950422286987,-0.028379440307617188
1696958331512115200,0.696115234375,0.31838130950927734,0.35900574922561646,0.3440898656845093
1696958331522128600,0.706128662109375,-0.4793367385864258,-0.39218854904174805,0.2757502794265747
1696958331532142000,0.71614208984375,0.5799417495727539,-0.8811194896697998,-0.22262287139892578
1696958331542155300,0.7261552734375,0.0751485824584961,-0.9953302145004272,-0.8721855878829956
1696958331552168700,0.736168701171875,-3.513988494873047,0.054233014583587646,0.18529242277145386
1696958331562182000,0.746181884765625,3.723590850830078,-0.3464069366455078,0.3124210238456726
1696958331572195300,0.7561953125,-1.9318485260009766,-0.5626208782196045,-0.8939093947410583
1696958331582208800,0.766208740234375,-2.4051761627197266,-0.5025112628936768,-0.2746425271034241
1696958331592222000,0.776221923828125,2.1162099838256836,-0.342063307762146,-0.17447298765182495
1696958331602235400,0.7862353515625,-1.840224266052246,-0.27195000648498535,-0.30237436294555664
1696958331612248600,0.79624853515625,-0.5676479339599609,-0.33155107498168945,-0.6733289361000061
1696958331622262000,0.806261962890625,-1.4352102279663086,-0.5714938640594482,-0.5120724439620972
1696958331632275200,0.816275146484375,1.1370134353637695,-0.2337099313735962,-0.05369514226913452
1696958331642288600,0.82628857421875,-1.5408430099487305,-0.5416673421859741,-0.981041431427002
1696958331652302000,0.836302001953125,-0.9203281402587891,-0.45730793476104736,-0.39303135871887207
1696958331662315300,0.846315185546875,0.6945247650146484,-0.21059584617614746,-0.00497359037399292
1696958331672328700,0.85632861328125,-1.7416267395019531,-0.6061575412750244,-0.6231417059898376
1696958331682342000,0.866341796875,-0.6605672836303711,-0.5767881870269775,-0.5569083094596863
1696958331692355300,0.876355224609375,0.42650890350341797,-0.17366087436676025,-0.03573507070541382
1696958331702368800,0.88636865234375,0.761815071105957,-0.6334550380706787,-0.6471022367477417
1696958331712382000,0.8963818359375,-1.9650945663452148,-0.9973995685577393,-0.7515503168106079
1696958331722395400,0.9063955078125,-0.47914981842041016,-0.4372457265853882,-0.24043172597885132
1696958331732408600,0.91640869140625,0.8424358367919922,-0.5540995597839355,0.1345943808555603
1696958331742422000,0.926422119140625,-3.250298023223877,-0.5453715324401855,-0.35375720262527466
1696958331752435200,0.936435302734375,2.489919662475586,-0.5884542465209961,0.10212302207946777
1696958331762448600,0.94644873046875,-1.2675695419311523,-0.5291972160339355,-0.4136543869972229
1696958331772462000,0.956462158203125,-0.14457225799560547,-1.4483894109725952,-0.4265643060207367
1696958331782475300,0.966475341796875,-0.4422454833984375,-0.1629645824432373,-0.24792787432670593
1696958331792488700,0.97648876953125,-0.8640165328979492,-0.12757158279418945,0.6367886662483215
1696958331802502000,0.986501953125,1.2492132186889648,-1.1407133340835571,-0.9856191277503967
1696958331812515300,0.996515380859375,-2.7322635650634766,-1.0100655555725098,-0.5149239301681519
1696958331822528800,1.00652880859375,1.2649011611938477,-0.10907483100891113,0.30526238679885864
1696958331832542000,1.0165419921875,-0.7404813766479492,0.15591728687286377,0.25432032346725464
1696958331842555400,1.026555419921875,-1.1263713836669922,-1.0419929027557373,-1.1710522174835205
1696958331852568600,1.036568603515625,-1.9878616333007812,-0.806032657623291,-0.5663996934890747
1696958331862582000,1.04658203125,0.512965202331543,-0.3076220750808716,-0.21277347207069397
1696958331872595500,1.056595458984375,-0.9204034805297852,-0.6576532125473022,-1.4902578592300415
1696958331882608600,1.066608642578125,-2.054157257080078,-0.4597665071487427,-0.26893287897109985
1696958331892622000,1.0766220703125,1.083028793334961,-0.037245750427246094,0.30108410120010376
1696958331902635500,1.086635498046875,-1.9358339309692383,-1.0340805053710938,-0.003148198127746582
1696958331912649000,1.09664892578125,-0.5360431671142578,-0.5030367374420166,-0.7676711678504944
1696958331922662400,1.106662353515625,-0.061377525329589844,0.04464304447174072,0.5045702457427979
1696958331932675600,1.116675537109375,1.0075950622558594,-0.6764035224914551,-0.10992619395256042
1696958331942689000,1.12668896484375,-1.9075355529785156,-0.7936029434204102,-0.5851314067840576
1696958331952702500,1.136702392578125,-0.3462400436401367,0.35486841201782227,-0.5954212546348572
1696958331962716000,1.1467158203125,-0.13978099822998047,-0.8446727991104126,-0.05610212683677673
1696958331972729300,1.156729248046875,-1.2724733352661133,-0.16639447212219238,-0.5800440311431885
1696958331982742500,1.166742431640625,0.9225950241088867,0.007845759391784668,-0.5672072768211365
1696958331992756000,1.176755859375,-2.299802780151367,-0.7822909355163574,-0.0020833611488342285
1696958332002769400,1.186769287109375,1.4101648330688477,-0.4755260944366455,-0.3294486999511719
1696958332012782800,1.196782958984375,-2.0121116638183594,-0.7475918531417847,-1.0833613872528076
1696958332022796000,1.206796142578125,-0.43620967864990234,0.31244945526123047,0.3741096556186676
1696958332032809500,1.2168095703125,2.151460647583008,-0.6825704574584961,0.47808295488357544
1696958332042823000,1.226822998046875,-2.669619083404541,-0.39816367626190186,0.1045960783958435
1696958332052836400,1.23683642578125,2.356022834777832,-0.4498434066772461,-0.32693716883659363
1696958332062849800,1.246849853515625,-1.0424156188964844,-0.8657486438751221,0.19080477952957153
1696958332072863000,1.256863037109375,-1.4179315567016602,0.22124552726745605,0.8730676174163818
1696958332082876400,1.26687646484375,3.5729875564575195,-0.569923996925354,-0.16961564123630524
1696958332092889900,1.276889892578125,-3.6463446617126465,-0.2794584035873413,-1.0183806419372559
1696958332102903300,1.2869033203125,0.43759727478027344,-0.5462559461593628,0.21539518237113953
1696958332112916700,1.296916748046875,1.8639774322509766,0.4567279815673828,-0.191048264503479
1696958332122930000,1.306929931640625,-2.3240013122558594,-0.3080003261566162,-1.015673041343689
1696958332132943400,1.316943359375,0.36612987518310547,-0.22141778469085693,-0.03145572543144226
1696958332142956800,1.326956787109375,0.6336565017700195,0.8542979955673218,0.9706650972366333
1696958332152970200,1.33697021484375,-0.2171344757080078,0.5839419364929199,-0.03053891658782959
1696958332162983400,1.3469833984375,-0.45368385314941406,0.39129602909088135,-0.23460964858531952
1696958332172996900,1.356996826171875,0.9289665222167969,0.29987311363220215,0.6418168544769287
1696958332183010300,1.36701025390625,-0.5243625640869141,0.36870574951171875,0.040462374687194824
1696958332193023700,1.377023681640625,0.13134193420410156,1.4905574321746826,-0.12268447875976562
1696958332203037200,1.387037109375,-0.6549110412597656,0.8043288588523865,0.024164289236068726
1696958332213050400,1.39705029296875,-0.688084602355957,0.5618217587471008,0.131781667470932
1696958332223063800,1.407063720703125,-0.43145275115966797,0.9207919836044312,-0.28440356254577637
1696958332233077200,1.4170771484375,-0.6851119995117188,1.375374674797058,-0.2019449919462204
1696958332243090700,1.427090576171875,-0.8039684295654297,1.121379017829895,0.6269001364707947
1696958332253104000,1.437104248046875,1.541799545288086,0.556930422782898,-0.08997154235839844
1696958332263117300,1.447117431640625,-2.308566093444824,0.9999158382415771,-1.365781545639038
1696958332273130800,1.457130859375,-0.28410816192626953,1.4293957948684692,-0.2159358412027359
1696958332283144200,1.467144287109375,0.2453756332397461,1.0153366327285767,0.4443897008895874
1696958332293157600,1.47715771484375,-0.6935129165649414,0.790002703666687,-0.23370438814163208
1696958332303170800,1.4871708984375,0.06278133392333984,1.3813844919204712,-0.4236298203468323
1696958332313184300,1.497184326171875,-0.8701848983764648,1.1946057081222534,0.384122759103775
1696958332323197700,1.50719775390625,-0.1316089630126953,0.9293203353881836,0.151594877243042
1696958332333211100,1.517211181640625,0.4067096710205078,1.1872897148132324,-0.6810388565063477
1696958332343224600,1.527224609375,-2.06583309173584,1.2816975116729736,-0.25218456983566284
1696958332353237800,1.53723779296875,0.3370199203491211,0.8746266961097717,0.13666388392448425
1696958332363251200,1.547251220703125,-0.7221536636352539,1.3645577430725098,0.08866328001022339
1696958332373264600,1.5572646484375,-0.4982566833496094,1.366462230682373,-0.4033445119857788
1696958332383278000,1.567278076171875,-0.89495849609375,1.569685697555542,0.14157405495643616
1696958332393291500,1.57729150390625,-0.25603771209716797,0.6986507177352905,0.3462263345718384
1696958332403304700,1.5873046875,-0.6020946502685547,1.3206543922424316,-0.21089531481266022
1696958332413318100,1.597318115234375,-1.2884130477905273,0.9835798740386963,-0.3003733158111572
1696958332423331600,1.60733154296875,0.24793720245361328,0.7968961596488953,-0.022392958402633667
1696958332433345000,1.617344970703125,-0.7917156219482422,0.9223731160163879,-0.05475741624832153
1696958332443358500,1.6273583984375,-1.481541633605957,1.1560786962509155,-0.5133439302444458
1696958332453371600,1.63737158203125,0.07025527954101562,1.0621376037597656,0.11651104688644409
1696958332463385000,1.647385009765625,-0.07777214050292969,0.3173958659172058,0.19622883200645447
1696958332473398500,1.6573984375,-0.9821538925170898,0.2898629307746887,-0.17920713126659393
1696958332483412000,1.667411865234375,-0.4901285171508789,1.5700633525848389,-0.09756726026535034
1696958332493425200,1.677425048828125,0.8840169906616211,0.6780033111572266,0.34236377477645874
1696958332503438600,1.6874384765625,-0.8023290634155273,0.18780869245529175,-0.03520289063453674
1696958332513452000,1.6974521484375,-0.27845001220703125,0.4575534462928772,-0.1450301706790924
1696958332523465500,1.707465576171875,0.08997917175292969,1.2024197578430176,0.23960241675376892
1696958332533479000,1.71747900390625,-0.2679862976074219,-0.005990564823150635,-0.10532286763191223
1696958332543492000,1.7274921875,-0.5234155654907227,0.6279550790786743,0.12591710686683655
1696958332553505500,1.737505615234375,-0.05374622344970703,0.38967353105545044,-0.3972981572151184
1696958332563519000,1.74751904296875,-0.7963590621948242,0.7162984609603882,0.05171167850494385
1696958332573532400,1.757532470703125,0.6609945297241211,0.10273468494415283,0.06162446737289429
1696958332583545900,1.7675458984375,-1.3196945190429688,0.41920363903045654,-0.20155495405197144
1696958332593559000,1.77755908203125,-0.11623859405517578,0.15282809734344482,-0.4764401316642761
1696958332603572500,1.787572509765625,-0.8493528366088867,0.13503241539001465,0.3925378620624542
1696958332613586000,1.7975859375,0.8659391403198242,0.5563368201255798,0.5795078873634338
1696958332623599400,1.807599365234375,-0.36371898651123047,0.545276939868927,-0.19561171531677246
1696958332633612500,1.817612548828125,-0.6567316055297852,-0.09381818771362305,0.4273795783519745
1696958332643626000,1.8276259765625,0.9045772552490234,0.5778412818908691,0.5533757209777832
1696958332653639400,1.837639404296875,-0.7824792861938477,-0.24072545766830444,-0.42140889167785645
1696958332663652900,1.84765283203125,-0.7159957885742188,0.5056718587875366,0.38038402795791626
1696958332673666300,1.857666259765625,1.8509416580200195,0.12069135904312134,0.8035982251167297
1696958332683679500,1.867679443359375,-0.6227788925170898,0.41972672939300537,-0.2675282955169678
1696958332693693000,1.87769287109375,-0.37653636932373047,0.4983272850513458,-0.671479344367981
1696958332703706000,1.8877060546875,-0.9080600738525391,-0.21816998720169067,0.1274639368057251
1696958332713719600,1.897719482421875,0.3880491256713867,0.5645236968994141,0.15446677803993225
1696958332723733000,1.90773291015625,0.44777679443359375,0.6364380717277527,-0.6369133591651917
1696958332733746200,1.91774609375,-2.6138792037963867,0.23297739028930664,-0.4066327214241028
1696958332743759600,1.927759521484375,1.8751821517944336,-0.0366094708442688,0.5938068628311157
1696958332753772800,1.937772705078125,-0.7897224426269531,0.7591158747673035,-0.4791324734687805
1696958332763786200,1.9477861328125,-1.3711843490600586,0.7782842516899109,-0.28232741355895996
1696958332773799400,1.95779931640625,0.9901552200317383,0.1629631519317627,0.15496483445167542
1696958332783812900,1.967812744140625,-1.030965805053711,0.4899466335773468,0.7123584747314453
1696958332793826300,1.977826416015625,0.13247108459472656,0.8167802095413208,-0.42702576518058777
1696958332803839500,1.987839599609375,-1.2886152267456055,0.50642991065979,-0.11134432256221771
1696958332813853000,1.99785302734375,0.4006805419921875,0.6196586489677429,0.37937116622924805
1696958332823866000,2.0078662109375,0.3029441833496094,0.8143692016601562,-0.2424561083316803
1696958332833879600,2.017879638671875,-2.548895835876465,1.4113408327102661,-0.3395004868507385
1696958332843893000,2.02789306640625,1.2488479614257812,0.3425644040107727,0.292932391166687
1696958332853906200,2.03790625,-1.908726692199707,1.0523412227630615,0.13189616799354553
1696958332863919600,2.047919677734375,0.1603994369506836,0.7546964883804321,-0.41599059104919434
1696958332873932800,2.057932861328125,-2.5007381439208984,1.061651587486267,-0.06729084253311157
1696958332883946200,2.0679462890625,1.7548551559448242,0.8888726830482483,0.36136937141418457
1696958332893959400,2.07795947265625,-1.4247493743896484,0.430155485868454,-0.8184565305709839
1696958332903972900,2.087972900390625,-1.4171772003173828,0.9997380971908569,-0.6922389268875122
1696958332913986300,2.097986328125,0.6109838485717773,0.9487800002098083,0.02466842532157898
1696958332923999500,2.10799951171875,-1.1605653762817383,0.9594700932502747,0.43976035714149475
1696958332934013000,2.118012939453125,1.5388317108154297,0.4590300917625427,-0.24340513348579407
1696958332944026400,2.1280263671875,-1.8728694915771484,1.1127068996429443,-0.337521493434906
1696958332954039600,2.13803955078125,1.2309446334838867,1.2866079807281494,0.9705150127410889
1696958332964053000,2.148052978515625,0.9433994293212891,0.5813518762588501,-0.008175462484359741
1696958332974066400,2.15806640625,-1.397369384765625,0.7602784037590027,-0.5117790699005127
1696958332984080000,2.168079833984375,0.9934635162353516,0.6990811228752136,0.5132448077201843
1696958332994093000,2.178093017578125,-0.10806560516357422,1.0141150951385498,0.521055281162262
1696958333004106500,2.1881064453125,1.0271549224853516,0.521842360496521,-0.255540132522583
1696958333014120000,2.198119873046875,-1.5241355895996094,1.246934175491333,-0.133762925863266
1696958333024133400,2.20813330078125,0.9578695297241211,0.8305240273475647,0.7683131694793701
1696958333034146800,2.218146728515625,-0.05301856994628906,1.1349645853042603,-0.2528221011161804
1696958333044160300,2.22816015625,-1.4455347061157227,0.7880252599716187,-0.8150518536567688
1696958333054173700,2.238173583984375,-0.7804441452026367,1.2056560516357422,0.4363982677459717
1696958333064187100,2.248187255859375,1.8361940383911133,0.914946436882019,0.39499178528785706
1696958333074200600,2.25820068359375,-1.8778514862060547,1.128650426864624,-0.4014424681663513
1696958333084214000,2.268214111328125,-0.009274482727050781,1.1233214139938354,-0.1442640721797943
1696958333094227500,2.2782275390625,-0.9393281936645508,1.111407995223999,0.48306164145469666
1696958333104241000,2.288240966796875,0.39557361602783203,1.0209567546844482,0.06671258807182312
1696958333114254300,2.29825439453125,-0.4076366424560547,0.5941968560218811,-0.4543484151363373
1696958333124267800,2.308267822265625,-1.0208921432495117,1.5364737510681152,0.25770747661590576
1696958333134281200,2.31828125,1.6879959106445312,1.0896228551864624,0.9774588346481323
1696958333144294700,2.328294677734375,0.020416259765625,0.7201290130615234,-0.10275307297706604
1696958333154308000,2.33830810546875,-1.3057727813720703,1.0883638858795166,-0.5225390195846558
1696958333164321500,2.348321533203125,0.026154518127441406,1.1078400611877441,0.7022265195846558
1696958333174335000,2.3583349609375,1.2659387588500977,0.982094407081604,-0.21037855744361877
1696958333184348200,2.36834814453125,-1.7305688858032227,0.9033721685409546,-0.38467296957969666
1696958333194361600,2.378361572265625,0.6098566055297852,0.8065081238746643,0.2867581844329834
1696958333204375000,2.388375,-0.45700931549072266,1.0845777988433838,0.07881665229797363
1696958333214388500,2.398388427734375,0.6231956481933594,0.9664868116378784,-0.40448832511901855
1696958333224402000,2.40840185546875,-0.8297634124755859,1.1598377227783203,-0.07291898131370544
1696958333234415400,2.418415283203125,-0.3921165466308594,1.0398370027542114,0.34593749046325684
1696958333244428800,2.4284287109375,0.6113643646240234,1.082550287246704,0.08684316277503967
1696958333254442200,2.438442138671875,-1.0468502044677734,0.8501114845275879,-0.5980321168899536
1696958333264456400,2.44845654296875,-0.35990333557128906,1.3446321487426758,-0.04275786876678467
1696958333274469400,2.458469482421875,-0.2775745391845703,1.0575281381607056,0.4813809394836426
1696958333284482600,2.468482666015625,0.6302900314331055,0.9984087944030762,-0.20382700860500336
1696958333294495500,2.47849560546875,-1.1904945373535156,1.1117801666259766,-0.1569020003080368
1696958333304508400,2.48850830078125,-0.4790782928466797,1.1297779083251953,0.5600523352622986
1696958333314521600,2.498521484375,0.47188854217529297,1.386804461479187,0.7095317244529724
1696958333324534800,2.50853466796875,-0.9232416152954102,0.7001861333847046,-0.40939804911613464
1696958333334548000,2.5185478515625,-0.8625564575195312,1.4612267017364502,0.0324682891368866
1696958333344561200,2.52856103515625,0.3196439743041992,0.9845741987228394,0.48012953996658325
1696958333354574300,2.53857421875,-0.2881889343261719,0.8088188171386719,-0.06886398792266846
1696958333364587800,2.548587890625,-1.8712043762207031,0.9684277772903442,-0.546552300453186
1696958333374601200,2.558601318359375,0.25966548919677734,1.645163655281067,0.528361439704895
1696958333384614700,2.56861474609375,-0.29033756256103516,1.0791682004928589,0.1764802634716034
1696958333394628000,2.578628173828125,-0.5565185546875,0.8113263845443726,-0.31491759419441223
1696958333404641500,2.5886416015625,-0.7738056182861328,1.2035295963287354,0.013630181550979614
1696958333414655200,2.5986552734375,-0.2458648681640625,1.2124186754226685,0.41903573274612427
1696958333424669000,2.6086689453125,0.6855907440185547,1.0075044631958008,0.01924636960029602
1696958333434682600,2.6186826171875,-1.087681770324707,0.948174238204956,0.002704411745071411
1696958333444696300,2.6286962890625,-0.23384380340576172,1.3474680185317993,0.436396986246109
1696958333454710000,2.6387099609375,0.20113849639892578,1.0346046686172485,0.7807019948959351
1696958333464723700,2.6487236328125,0.38160228729248047,0.7971383333206177,-0.28310149908065796
1696958333474737400,2.6587373046875,-1.9299335479736328,1.101595163345337,-0.014984488487243652
1696958333484750800,2.668750732421875,-0.5813255310058594,1.0852372646331787,0.6053264141082764
1696958333494764300,2.678764404296875,1.1911964416503906,1.6133167743682861,0.16080966591835022
1696958333504777500,2.688777587890625,-2.2021007537841797,0.9231644868850708,-0.6270104050636292
1696958333514791400,2.69879150390625,-1.3202457427978516,1.318220853805542,0.13460347056388855
1696958333524804400,2.708804443359375,0.5698871612548828,1.1019906997680664,0.2315998673439026
1696958333534817300,2.7188173828125,-0.9072341918945312,0.8065426349639893,-0.6683223843574524
1696958333544830000,2.728829833984375,-1.6578044891357422,0.8190876245498657,-0.47348445653915405
1696958333554843000,2.7388427734375,0.720698356628418,1.1464885473251343,-0.19093258678913116
1696958333564856000,2.74885595703125,0.3409738540649414,0.826390266418457,-0.1538195013999939
1696958333574869000,2.758868896484375,-0.008630752563476562,0.6574081182479858,-0.9754642248153687
1696958333584882200,2.768882080078125,-0.5573081970214844,0.6826304793357849,-0.014742493629455566
1696958333594895400,2.778895263671875,1.611964225769043,0.7668119668960571,0.4800482988357544
1696958333604908500,2.788908447265625,2.1835145950317383,0.39795351028442383,-0.38099217414855957
1696958333614922000,2.798921875,-1.3138008117675781,0.4982750117778778,-0.5191768407821655
1696958333624935700,2.808935791015625,1.6793346405029297,0.5256490111351013,0.2732008993625641
1696958333634949000,2.81894921875,2.5273923873901367,0.8843668103218079,-0.4094558358192444
1696958333644962800,2.828962890625,0.3701324462890625,0.3802957534790039,-0.5421376824378967
1696958333654976500,2.8389765625,1.2424001693725586,0.3138080835342407,0.24421170353889465
1696958333664990200,2.848990234375,2.6696577072143555,0.1613074243068695,0.25045716762542725
1696958333675004200,2.859004150390625,1.4283885955810547,-0.026735961437225342,-0.23194026947021484
1696958333685017900,2.869017822265625,1.0696687698364258,-0.1833731234073639,-0.20716944336891174
1696958333695031600,2.879031494140625,0.8891096115112305,-0.34236499667167664,0.5154719352722168
1696958333705045200,2.889045166015625,4.590218544006348,0.05030876398086548,0.10916978120803833
1696958333715059000,2.899058837890625,0.03822040557861328,0.04630681872367859,-0.9962069988250732
1696958333725072400,2.909072265625,1.2173376083374023,-0.34761813282966614,0.4226341247558594
1696958333735085600,2.91908544921875,3.781036376953125,-0.5797802209854126,0.35153016448020935
1696958333745099000,2.92909912109375,1.652461051940918,-0.3918346166610718,-0.5310927033424377
1696958333755112400,2.939112548828125,0.6248397827148438,0.278976172208786,0.3279004693031311
1696958333765126400,2.94912646484375,3.06197452545166,0.1915375143289566,1.3612635135650635
1696958333775139300,2.959139404296875,2.7787351608276367,0.47974470257759094,0.34011974930763245
1696958333785152000,2.969152099609375,0.09017372131347656,0.33547142148017883,-0.31156277656555176
1696958333795165000,2.9791650390625,-1.0897331237792969,0.3099084794521332,0.8650194406509399
1696958333805177900,2.989177734375,2.351059913635254,0.7681429982185364,1.009248971939087
1696958333815190800,2.999190673828125,-0.7658481597900391,0.8306614756584167,-0.20057111978530884
1696958333825203700,3.00920361328125,-1.7089576721191406,1.2469440698623657,0.12325802445411682
1696958333835217000,3.019216796875,-0.7773113250732422,1.152740478515625,1.0308806896209717
1696958333845230000,3.02922998046875,-1.2860908508300781,1.1555653810501099,0.15226691961288452
1696958333855243300,3.0392431640625,-2.9820189476013184,1.134774923324585,-0.5677629709243774
1696958333865256700,3.049256591796875,-2.031437873840332,1.5570188760757446,0.2515145540237427
1696958333875270400,3.0592705078125,-1.8149003982543945,1.5975099802017212,0.4391421973705292
1696958333885284000,3.0692841796875,-2.6494789123535156,1.1929304599761963,-0.034311652183532715
1696958333895297800,3.0792978515625,-3.8537344932556152,2.470237970352173,-0.28751319646835327
1696958333905311500,3.0893115234375,-2.470585346221924,1.9848986864089966,0.29937228560447693
1696958333915325200,3.0993251953125,-3.3221325874328613,1.5626217126846313,0.23727354407310486
1696958333925339100,3.109339111328125,-4.14702033996582,1.5514999628067017,0.19914865493774414
1696958333935352800,3.119352783203125,-3.837524890899658,1.9903758764266968,-0.15338021516799927
1696958333945366800,3.12936669921875,-4.345646858215332,2.2758982181549072,-0.041872501373291016
1696958333955380500,3.13938037109375,-2.9133529663085938,1.8865934610366821,-0.6750536561012268
1696958333965393700,3.1493935546875,-5.831385135650635,1.9220980405807495,-0.3327450156211853
1696958333975407000,3.159406982421875,-3.9597206115722656,1.6121017932891846,-0.4175260365009308
1696958333985420500,3.169420654296875,-5.155401706695557,1.1935005187988281,-0.31248822808265686
1696958333995434000,3.17943408203125,-6.614426136016846,2.2686171531677246,-0.04331624507904053
1696958334005447400,3.189447509765625,-4.3202338218688965,2.321363925933838,-0.23144502937793732
1696958334015460600,3.199460693359375,-5.161457538604736,2.0156636238098145,-0.5770072937011719
1696958334025474000,3.20947412109375,-5.359909534454346,1.6436645984649658,-0.7729980945587158
1696958334035487500,3.219487548828125,-5.467068672180176,1.7384347915649414,-0.6424548625946045
1696958334045501000,3.2295009765625,-3.238454818725586,1.6010961532592773,-0.0786697268486023
1696958334055514000,3.23951416015625,-2.5404186248779297,1.378118634223938,-0.030871212482452393
1696958334065527600,3.249527587890625,-1.8971061706542969,1.5781298875808716,-0.33102545142173767
1696958334075541000,3.259541015625,-2.3206849098205566,1.420263409614563,0.2740423083305359
1696958334085554400,3.269554443359375,-1.1766090393066406,1.3408677577972412,-0.29158592224121094
1696958334095568000,3.27956787109375,-2.1373748779296875,0.8697859048843384,-0.17137505114078522
1696958334105581000,3.2895810546875,-1.9774017333984375,0.7845609784126282,0.2667911946773529
1696958334115594500,3.299594482421875,1.0667047500610352,0.799441397190094,0.3178281784057617
1696958334125608000,3.30960791015625,0.5768022537231445,1.210568904876709,0.7020571231842041
1696958334135621400,3.319621337890625,0.5612401962280273,0.8081182241439819,0.28180843591690063
1696958334145634800,3.329634765625,0.49799633026123047,1.0541479587554932,0.2156449854373932
1696958334155648000,3.33964794921875,1.127558708190918,0.30117982625961304,-0.21289923787117004
1696958334165661400,3.349661376953125,-0.3032989501953125,0.619392991065979,-0.15524810552597046
1696958334175675000,3.3596748046875,1.8621463775634766,0.622312605381012,0.528237521648407
1696958334185688300,3.369688232421875,3.2756872177124023,1.0739458799362183,0.31481441855430603
1696958334195701500,3.379701416015625,1.0312004089355469,0.8408381938934326,0.292036235332489
1696958334205715000,3.38971484375,1.5495529174804688,0.8737387657165527,0.40608376264572144
1696958334215728400,3.399728271484375,3.0501222610473633,0.3433384895324707,0.2929004728794098
1696958334225741800,3.409741943359375,3.080026626586914,0.26327282190322876,-0.10657018423080444
1696958334235755300,3.41975537109375,1.4235382080078125,-0.034013181924819946,0.22736117243766785
1696958334245768400,3.4297685546875,3.92307186126709,1.02384614944458,0.7046663761138916
1696958334255782000,3.439781982421875,5.000910758972168,0.9200391173362732,0.0938076376914978
1696958334265795300,3.44979541015625,1.0935554504394531,0.5396696329116821,-0.2665557265281677
1696958334275808800,3.459808837890625,2.9539403915405273,0.3745574951171875,0.561059832572937
1696958334285822200,3.469822265625,5.161938667297363,0.512266993522644,0.4090712368488312
1696958334295835400,3.47983544921875,2.9401912689208984,0.5871390700340271,-0.2667837142944336
1696958334305848800,3.489848876953125,2.3538455963134766,0.07877457141876221,0.22107529640197754
1696958334315862300,3.4998623046875,4.148024559020996,0.9695900678634644,0.5757039189338684
1696958334325875700,3.509875732421875,3.92095947265625,0.4161596894264221,-0.026789546012878418
1696958334335889000,3.519888916015625,0.9047164916992188,0.030595988035202026,-0.2605254650115967
1696958334345902300,3.52990234375,2.994417190551758,0.7977966070175171,0.21367144584655762
1696958334355915800,3.539915771484375,3.5301132202148438,0.879141628742218,0.2368495762348175
1696958334365929200,3.54992919921875,1.5514030456542969,0.4682449400424957,-0.9565845727920532
1696958334375942700,3.559942626953125,0.5865964889526367,0.7708406448364258,-0.27419158816337585
1696958334385955800,3.569955810546875,2.9781112670898438,0.9997291564941406,0.34595176577568054
1696958334395969300,3.57996923828125,0.6616973876953125,0.6130781173706055,-0.6146972179412842
1696958334405982700,3.589982666015625,1.1852951049804688,1.1640479564666748,-0.6513583064079285
1696958334415996200,3.59999609375,0.1927785873413086,0.4092819094657898,0.3586456775665283
1696958334426009600,3.610009521484375,1.2860774993896484,0.936673641204834,0.026825010776519775
1696958334436022800,3.620022705078125,0.6276407241821289,1.0468699932098389,-0.7930264472961426
1696958334446036200,3.6300361328125,-0.5444574356079102,1.0522325038909912,-0.01609143614768982
1696958334456049700,3.640049560546875,1.6545133590698242,0.7455829381942749,0.4181998670101166
1696958334466063000,3.65006298828125,0.5795717239379883,0.7778561115264893,-0.4080941081047058
1696958334476076300,3.660076171875,-0.6594161987304688,1.0420863628387451,-0.17345905303955078
1696958334486089700,3.67008984375,0.5034027099609375,0.648356556892395,0.5119490623474121
1696958334496103200,3.680103271484375,0.5113687515258789,0.9507678747177124,0.5104451179504395
1696958334506116600,3.69011669921875,-0.5030403137207031,0.5482957363128662,-0.45590832829475403
1696958334516130000,3.700130126953125,-0.515838623046875,1.2523123025894165,0.3195759952068329
1696958334526143200,3.710143310546875,0.5557584762573242,0.9132278561592102,0.7108336687088013
1696958334536156700,3.72015673828125,-0.2103729248046875,0.2659211754798889,-0.29099926352500916
1696958334546170000,3.730170166015625,-2.0395593643188477,0.8549129962921143,-0.4841700792312622
1696958334556183600,3.74018359375,0.7852554321289062,0.7873232364654541,0.1698342263698578
1696958334566197000,3.750197021484375,-0.26796627044677734,0.7976140379905701,0.055268704891204834
1696958334576210200,3.760210205078125,-1.169957160949707,0.0728825032711029,-0.20444530248641968
1696958334586223600,3.7702236328125,-0.9464988708496094,1.0850533246994019,0.6750613451004028
1696958334596237000,3.780237060546875,0.36083030700683594,1.1694748401641846,0.749517023563385
1696958334606250500,3.79025048828125,-1.5271186828613281,0.24965691566467285,0.4265713095664978
1696958334616263700,3.800263671875,-1.0780582427978516,0.8421019911766052,0.6671267747879028
1696958334626277000,3.810277099609375,1.3573637008666992,0.7100573778152466,0.9148027300834656
1696958334636290600,3.82029052734375,-1.4268007278442383,0.6199109554290771,0.3930859863758087
1696958334646304000,3.830303955078125,-1.5370655059814453,0.4923228323459625,0.4548327922821045
1696958334656317400,3.8403173828125,-0.33806800842285156,0.7140512466430664,0.6622041463851929
1696958334666330600,3.85033056640625,-1.1440820693969727,0.9854533672332764,0.6172611117362976
1696958334676344000,3.860343994140625,-1.1454496383666992,0.6182921528816223,0.38441506028175354
1696958334686357500,3.870357421875,-1.8012027740478516,-0.032515108585357666,0.789252758026123
1696958334696371000,3.880370849609375,0.5548944473266602,0.562628984451294,0.5178738832473755
1696958334706384400,3.89038427734375,-2.8150010108947754,0.6375328302383423,-0.16084346175193787
1696958334716397600,3.9003974609375,-0.9003925323486328,0.6883271932601929,-0.007548153400421143
1696958334726411000,3.910410888671875,-0.3960380554199219,0.716442883014679,0.29379144310951233
1696958334736424400,3.920424560546875,-2.3823795318603516,0.6230460405349731,0.0520612895488739
1696958334746438000,3.93043798828125,-1.6829853057861328,0.18048149347305298,-0.01396632194519043
1696958334756451300,3.940451416015625,0.022922515869140625,0.5810055732727051,0.4747689962387085
1696958334766464500,3.950464599609375,-1.702138900756836,0.36099672317504883,0.12399992346763611
1696958334776478000,3.96047802734375,-1.0572633743286133,0.7318332195281982,0.004516512155532837
1696958334786491400,3.970491455078125,0.7564363479614258,0.4689849019050598,0.32452473044395447
1696958334796504600,3.980504638671875,-1.9505081176757812,0.033314287662506104,-0.0056254565715789795
1696958334806518000,3.99051806640625,-2.356825351715088,0.14432871341705322,-0.137043297290802
1696958334816531200,4.00053125,0.33443546295166016,0.5753116607666016,0.3556273877620697
1696958334826544600,4.010544677734375,-0.8951625823974609,0.3982260823249817,0.42093613743782043
1696958334836558000,4.02055810546875,-1.6630573272705078,-0.23064345121383667,-0.3352830111980438
1696958334846571300,4.0305712890625,-0.5127019882202148,0.29321056604385376,-0.12855002284049988
1696958334856584700,4.040584716796875,-1.2338371276855469,0.7356256246566772,-0.14401862025260925
1696958334866598000,4.050597900390625,-2.7991881370544434,0.09292948246002197,-0.6425671577453613
1696958334876611300,4.060611328125,-0.11670589447021484,0.5711703300476074,-0.3381730914115906
1696958334886624800,4.070624755859375,-2.033487319946289,0.2542290687561035,-0.04763421416282654
1696958334896638000,4.080637939453125,-2.4639806747436523,0.10423968732357025,-0.2843731641769409
1696958334906651400,4.0906513671875,0.3468618392944336,1.0672584772109985,0.1873055100440979
1696958334916664600,4.10066455078125,-1.4131431579589844,1.2228538990020752,0.083343505859375
1696958334926678000,4.110677978515625,-1.749394416809082,0.6656160950660706,0.28506410121917725
1696958334936691200,4.120691162109375,1.6429443359375,1.0866940021514893,0.42683130502700806
1696958334946704600,4.13070458984375,-2.480856418609619,1.1914795637130737,0.2561779022216797
1696958334956718000,4.140718017578125,-0.5965328216552734,1.1594713926315308,0.3694099187850952
1696958334966731300,4.150731201171875,1.7464637756347656,1.0462217330932617,0.12703049182891846
1696958334976744700,4.16074462890625,-3.824967384338379,1.1193547248840332,0.08157044649124146
1696958334986758000,4.1707578125,1.259873390197754,0.950854480266571,-0.21154749393463135
1696958334996771300,4.180771240234375,-0.7690334320068359,1.6484850645065308,0.04675942659378052
1696958335006784800,4.19078466796875,-1.0771121978759766,0.7625508308410645,0.3852607011795044
1696958335016798000,4.2007978515625,0.4503164291381836,1.6314895153045654,0.13360702991485596
1696958335026811400,4.210811279296875,-0.047003746032714844,1.4041244983673096,0.4566347599029541
1696958335036824600,4.220824462890625,-1.1264209747314453,1.5768725872039795,0.2207636833190918
1696958335046838000,4.230838134765625,0.44446563720703125,1.6624479293823242,0.7444160580635071
1696958335056851500,4.2408515625,1.7771883010864258,1.4877607822418213,0.2892945408821106
1696958335066864600,4.25086474609375,-1.443009376525879,1.067247748374939,0.04080849885940552
1696958335076878000,4.260878173828125,2.068767547607422,1.782738447189331,0.4714876413345337
1696958335086891500,4.2708916015625,1.1082630157470703,1.9687105417251587,0.6348300576210022
1696958335096905000,4.280905029296875,-0.6719808578491211,1.2654955387115479,0.7161092758178711
1696958335106918400,4.29091845703125,2.971135139465332,1.600449800491333,0.7427185773849487
1696958335116931600,4.300931640625,0.8805074691772461,2.1530771255493164,0.8703762292861938
1696958335126945000,4.310945068359375,1.2889976501464844,1.6226375102996826,0.5191699266433716
1696958335136958500,4.32095849609375,2.5615644454956055,1.5982379913330078,0.4928858280181885
1696958335146972000,4.330971923828125,0.19437503814697266,1.6311137676239014,0.33400440216064453
1696958335156985000,4.340985107421875,-0.5711498260498047,1.3663781881332397,0.5280136466026306
1696958335166998500,4.35099853515625,3.315214157104492,1.6981481313705444,0.39679497480392456
1696958335177012000,4.361011962890625,0.4872760772705078,1.356851577758789,0.14246445894241333
1696958335187025400,4.371025390625,-0.5082778930664062,1.3183687925338745,0.48616617918014526
1696958335197038800,4.381038818359375,2.9189958572387695,1.3607838153839111,0.13701051473617554
1696958335207052000,4.391052001953125,-3.0475502014160156,1.0062228441238403,0.16028308868408203
1696958335217065500,4.4010654296875,1.1936025619506836,0.6908752918243408,0.41270649433135986
1696958335227079000,4.411078857421875,1.7591915130615234,1.101689100265503,0.3971818685531616
1696958335237092400,4.42109228515625,-1.6048555374145508,1.2104604244232178,0.06307333707809448
1696958335247105800,4.431105712890625,0.6447324752807617,0.48636454343795776,0.19125938415527344
1696958335257119000,4.441118896484375,0.7578372955322266,1.42476487159729,0.006453990936279297
1696958335267132400,4.45113232421875,-2.622835636138916,0.7254107594490051,0.01324617862701416
1696958335277145900,4.461145751953125,0.19333457946777344,0.7194684147834778,0.0637979507446289
1696958335287159300,4.4711591796875,0.5991744995117188,1.0981526374816895,0.17930316925048828
1696958335297172700,4.4811728515625,-2.303208827972412,0.7245518565177917,-0.07655346393585205
1696958335307186000,4.49118603515625,1.3342618942260742,1.0382707118988037,0.05437964200973511
1696958335317199400,4.501199462890625,-1.5458316802978516,0.6494335532188416,0.02608788013458252
1696958335327212800,4.511212890625,-2.144258975982666,0.5533452033996582,-0.008289515972137451
1696958335337226200,4.521226318359375,1.5072574615478516,0.829500675201416,0.05532556772232056
1696958335347239400,4.531239501953125,-2.247772693634033,0.6386294364929199,0.01671147346496582
1696958335357252900,4.5412529296875,-0.2734212875366211,0.5129059553146362,0.37134742736816406
1696958335367266300,4.551266357421875,1.351994514465332,0.9767314791679382,0.16594457626342773
1696958335377279700,4.56127978515625,-2.9189109802246094,0.5280460715293884,-0.009213626384735107
1696958335387293200,4.571293212890625,1.518214225769043,0.5105739831924438,0.39527612924575806
1696958335397306400,4.581306396484375,-0.3016519546508789,0.5917767882347107,0.13701897859573364
1696958335407319800,4.59131982421875,-1.1037416458129883,0.34204941987991333,0.1782556176185608
1696958335417333200,4.601333251953125,1.2786569595336914,0.8277963399887085,0.2967982292175293
1696958335427346700,4.6113466796875,-1.1377372741699219,0.489041268825531,0.15900355577468872
1696958335437360000,4.621360107421875,-0.26048946380615234,0.6885157227516174,0.22747153043746948
1696958335447373300,4.631373291015625,1.3124141693115234,0.5689330101013184,0.016993045806884766
1696958335457386800,4.64138671875,-2.5568442344665527,0.6187368631362915,0.09006863832473755
1696958335467400200,4.651400146484375,1.4112539291381836,0.7850257754325867,0.13821828365325928
1696958335477413600,4.66141357421875,-1.0818119049072266,0.7538089752197266,0.3246268033981323
1696958335487426800,4.6714267578125,-1.2605552673339844,0.37274590134620667,0.392802894115448
1696958335497440300,4.681440185546875,1.2133607864379883,1.206591010093689,0.6304052472114563
1696958335507453700,4.69145361328125,-1.1071863174438477,0.8084104657173157,0.2853412628173828
1696958335517467100,4.701467041015625,-1.047053337097168,1.02698814868927,0.7239393591880798
1696958335527480600,4.71148046875,0.8433237075805664,1.0657731294631958,0.649667501449585
1696958335537493800,4.72149365234375,-1.6963977813720703,1.0584619045257568,0.566984236240387
1696958335547507200,4.731507080078125,-0.15328121185302734,1.3067694902420044,0.5502529144287109
1696958335557520600,4.741520751953125,0.38208484649658203,0.8488770127296448,0.20953607559204102
1696958335567534000,4.7515341796875,-1.5158615112304688,0.9463781118392944,0.33889228105545044
1696958335577547500,4.761547607421875,0.22723865509033203,1.2002536058425903,0.2607117295265198
1696958335587560700,4.771560791015625,0.011785507202148438,1.4236643314361572,0.238824725151062
1696958335597574100,4.78157421875,-1.3502731323242188,1.2884224653244019,-0.12901121377944946
1696958335607587600,4.791587646484375,0.464447021484375,0.9553142786026001,0.15158933401107788
1696958335617601000,4.80160107421875,-1.0084590911865234,1.4972255229949951,-0.09908747673034668
1696958335627614200,4.8116142578125,0.11239051818847656,1.0883976221084595,-0.13800132274627686
1696958335637627600,4.821627685546875,-0.4610147476196289,1.310410499572754,0.3931651711463928
1696958335647641000,4.83164111328125,0.648798942565918,1.4029905796051025,-0.0991741418838501
1696958335657654500,4.841654541015625,-0.8387641906738281,1.4241517782211304,0.28895503282546997
1696958335667668000,4.85166796875,0.30063724517822266,1.1920093297958374,0.06482529640197754
1696958335677681200,4.86168115234375,-0.8660249710083008,1.6493096351623535,0.31151455640792847
1696958335687694600,4.871694580078125,0.16347312927246094,1.373818039894104,0.06895875930786133
1696958335697708000,4.8817080078125,-0.5059347152709961,1.5113327503204346,0.33135539293289185
1696958335707721500,4.891721435546875,-0.16551971435546875,1.5035065412521362,0.18932485580444336
1696958335717735000,4.90173486328125,-0.23680877685546875,1.7474148273468018,0.5190761089324951
1696958335727748000,4.911748046875,-0.04059600830078125,1.1606448888778687,-0.03197801113128662
1696958335737761500,4.921761474609375,-0.7334184646606445,1.6250355243682861,0.0635291337966919
1696958335747775000,4.93177490234375,0.1093130111694336,1.5605546236038208,-0.10129565000534058
1696958335757788400,4.941788330078125,-0.344940185546875,1.536829948425293,0.13297611474990845
1696958335767801600,4.951801513671875,-0.5352983474731445,1.5389620065689087,-0.005354702472686768
1696958335777815000,4.96181494140625,0.20204734802246094,1.5928187370300293,0.21848922967910767
1696958335787828500,4.971828369140625,-0.5200366973876953,1.699735403060913,0.0019009709358215332
1696958335797842000,4.981842041015625,-0.14115524291992188,1.5331366062164307,0.13026118278503418
1696958335807855400,4.99185546875,0.44232177734375,1.8658690452575684,0.041980862617492676
1696958335817868500,5.00186865234375,-0.1273040771484375,1.1802133321762085,0.2406550645828247
1696958335827882000,5.011882080078125,-0.42804622650146484,1.715267300605774,-0.21502584218978882
1696958335837895400,5.0218955078125,0.7296457290649414,1.4508178234100342,0.1142914891242981
1696958335847908900,5.031908935546875,-0.5576381683349609,1.7008241415023804,-0.3079370856285095
1696958335857922300,5.04192236328125,0.03178119659423828,1.4564968347549438,0.17274487018585205
1696958335867935500,5.051935546875,0.18945026397705078,1.682252287864685,-0.08161067962646484
1696958335877949000,5.061948974609375,-0.6185083389282227,1.6756494045257568,-0.13079041242599487
1696958335887962400,5.07196240234375,1.1036176681518555,1.7859619855880737,0.02035200595855713
1696958335897975800,5.081975830078125,-2.1627917289733887,1.5286935567855835,0.08775728940963745
1696958335907989000,5.091989013671875,1.2547130584716797,1.6896791458129883,-0.21299231052398682
1696958335918002400,5.10200244140625,-0.946385383605957,1.7747070789337158,-0.12948596477508545
1696958335928016000,5.112015869140625,-0.15993309020996094,1.4081549644470215,0.2096582055091858
1696958335938029300,5.122029296875,-0.8332881927490234,1.9401301145553589,-0.3924641013145447
1696958335948042800,5.132042724609375,0.024759292602539062,1.8160425424575806,0.5661879777908325
1696958335958056000,5.142055908203125,0.039084434509277344,1.9646738767623901,0.33169591426849365
1696958335968069400,5.1520693359375,-0.7875347137451172,1.572375774383545,-0.021342754364013672
1696958335978082800,5.162082763671875,-0.10676860809326172,2.134634256362915,0.39293766021728516
1696958335988096300,5.17209619140625,-0.7992992401123047,1.3342229127883911,0.6485851407051086
1696958335998109700,5.182109619140625,0.1296215057373047,2.0807642936706543,0.08128023147583008
1696958336008123000,5.192122802734375,-1.6101312637329102,1.5853019952774048,-0.15357500314712524
1696958336018136300,5.20213623046875,0.4487628936767578,1.813096284866333,0.2389460802078247
1696958336028149800,5.212149658203125,-0.7614974975585938,2.143470048904419,0.11689931154251099
1696958336038163200,5.2221630859375,0.11959648132324219,1.1952288150787354,-0.0024033188819885254
1696958336048176600,5.2321767578125,-1.1757698059082031,2.345771312713623,0.2517794966697693
1696958336058189800,5.24218994140625,0.5713577270507812,1.16222083568573,0.2613896131515503
1696958336068203300,5.252203369140625,-0.3955669403076172,2.1987013816833496,-0.23784881830215454
1696958336078216700,5.262216796875,-1.0397062301635742,1.2382640838623047,-0.2716154456138611
1696958336088230100,5.272230224609375,0.1767435073852539,1.8384149074554443,0.08231395483016968
1696958336098243300,5.282243408203125,-0.1916522979736328,1.9081916809082031,0.06844615936279297
1696958336108256800,5.2922568359375,0.019115447998046875,1.0496283769607544,-0.05700951814651489
1696958336118270200,5.302270263671875,-0.6546993255615234,2.048415184020996,-0.11885184049606323
1696958336128283600,5.31228369140625,0.632573127746582,1.1551061868667603,0.19041717052459717
1696958336138297000,5.322297119140625,-0.4776763916015625,2.1297407150268555,0.18073850870132446
1696958336148310300,5.332310302734375,-0.161224365234375,1.2348647117614746,-0.47187501192092896
1696958336158323700,5.34232373046875,-0.25623512268066406,1.8001244068145752,0.3156561255455017
1696958336168337200,5.352337158203125,-0.3035125732421875,1.5731122493743896,0.045775532722473145
1696958336178350600,5.3623505859375,0.0651092529296875,1.1923660039901733,-0.06774038076400757
1696958336188364000,5.372364013671875,-0.10724163055419922,2.1564276218414307,-0.5846407413482666
1696958336198377200,5.382377197265625,0.05069732666015625,0.9893513917922974,-0.3530356287956238
1696958336208390700,5.392390625,-0.3462343215942383,2.2190117835998535,-0.32081013917922974
1696958336218404000,5.402404052734375,-0.5318727493286133,0.9545377492904663,-0.49854516983032227
1696958336228417500,5.41241748046875,-0.2533855438232422,2.2198026180267334,-0.13929277658462524
1696958336238430700,5.4224306640625,-0.023552894592285156,1.6337403059005737,-0.4883658289909363
1696958336248444200,5.432444091796875,-0.544398307800293,1.3208235502243042,-0.32106202840805054
1696958336258457600,5.44245751953125,-1.2265586853027344,1.8698830604553223,-0.7902328372001648
1696958336268471000,5.452470947265625,-0.08605766296386719,1.0603255033493042,-0.3174838423728943
1696958336278484500,5.462484375,0.23918533325195312,2.221684455871582,-0.407004714012146
1696958336288497700,5.47249755859375,-1.2189512252807617,0.7499997615814209,-0.35006141662597656
1696958336298511000,5.482510986328125,0.007550239562988281,1.6670057773590088,-0.09253329038619995
1696958336308524500,5.492524658203125,0.39945507049560547,1.5515984296798706,-0.2450551986694336
1696958336318538000,5.5025380859375,-0.39951419830322266,1.3148038387298584,-0.1323433518409729
1696958336328551400,5.512551513671875,0.23220157623291016,1.9897701740264893,-0.09670710563659668
1696958336338564600,5.522564697265625,-0.21266937255859375,1.0104920864105225,0.3596271872520447
1696958336348578000,5.532578125,0.3323793411254883,1.8349995613098145,-0.14855581521987915
1696958336358591500,5.542591552734375,-0.4809131622314453,1.0371551513671875,-0.3006194233894348
1696958336368605000,5.55260498046875,0.8343486785888672,1.8295140266418457,-0.4659067392349243
1696958336378618000,5.5626181640625,-0.46294403076171875,1.5796030759811401,-0.5146186351776123
1696958336388631600,5.572631591796875,0.40331077575683594,0.8477426171302795,-0.06797105073928833
1696958336398645000,5.58264501953125,-0.5727090835571289,1.8462163209915161,-0.4464676082134247
1696958336408658200,5.592658203125,-0.8340415954589844,0.9608745574951172,-0.6975136995315552
1696958336418671600,5.602671630859375,0.5924167633056641,1.8322948217391968,0.12797600030899048
1696958336428684800,5.612684814453125,-1.2154054641723633,0.9422394037246704,-0.4417416453361511
1696958336438698200,5.6226982421875,0.1832294464111328,1.4064195156097412,-0.09118109941482544
1696958336448711700,5.632711669921875,0.32160282135009766,1.6340245008468628,0.20401430130004883
1696958336458724900,5.642724853515625,-1.1508731842041016,0.6366882920265198,0.4046979546546936
1696958336468738300,5.65273828125,0.8303651809692383,1.7957384586334229,0.2054477334022522
1696958336478751500,5.66275146484375,-1.0544376373291016,0.8947476744651794,0.051307737827301025
1696958336488765000,5.672764892578125,-0.14386653900146484,1.3814506530761719,0.027218401432037354
1696958336498778000,5.682778076171875,-0.7265663146972656,1.4796502590179443,-0.20879513025283813
1696958336508791600,5.69279150390625,-0.6816806793212891,0.5505593419075012,0.0667119026184082
1696958336518805000,5.702804931640625,0.1419219970703125,1.9941445589065552,-0.034950971603393555
1696958336528818200,5.712818115234375,-0.6373100280761719,0.5029506683349609,-0.05066317319869995
1696958336538831600,5.72283154296875,-0.2964649200439453,1.76751708984375,0.13713937997817993
1696958336548844800,5.7328447265625,0.33016300201416016,0.8397220969200134,-0.1180722713470459
1696958336558858200,5.742858154296875,-0.7888107299804688,1.1474621295928955,0.196286141872406
1696958336568871700,5.75287158203125,-0.2948122024536133,1.3782711029052734,0.06070667505264282
1696958336578884900,5.762884765625,0.10730171203613281,0.7304403781890869,0.45266711711883545
1696958336588898300,5.772898193359375,0.12115192413330078,1.6931395530700684,0.1448427438735962
1696958336598911500,5.782911376953125,0.02501392364501953,0.4656420946121216,-0.1576710343360901
1696958336608925000,5.792925048828125,-0.44342613220214844,1.3781192302703857,0.3730299472808838
1696958336618938000,5.802938232421875,1.0052785873413086,0.9924827814102173,-0.16146564483642578
1696958336628951600,5.81295166015625,-0.9518156051635742,0.9564943909645081,-0.032322585582733154
1696958336638965000,5.822965087890625,0.21628379821777344,0.8120265007019043,-0.2765004634857178
1696958336648978200,5.832978271484375,-0.48677825927734375,0.738349974155426,-0.18486833572387695
1696958336658991600,5.84299169921875,0.5560674667358398,1.3068325519561768,-0.36929020285606384
1696958336669004800,5.8530048828125,-0.7356357574462891,0.8960577249526978,-0.1810336709022522
1696958336679018200,5.863018310546875,0.6137447357177734,0.7582386136054993,0.20589786767959595
1696958336689031700,5.87303173828125,-0.11434364318847656,1.322359561920166,-0.21529239416122437
1696958336699044900,5.883044921875,-0.27186012268066406,0.52815181016922,0.22427040338516235
1696958336709058300,5.893058349609375,0.775059700012207,0.9465023875236511,-0.25264185667037964
1696958336719071500,5.903071533203125,-1.4061164855957031,0.9421073198318481,0.2711164951324463
1696958336729085000,5.9130849609375,1.5407752990722656,0.8425330519676208,0.20815777778625488
1696958336739098400,5.923098388671875,-1.397536277770996,1.1878411769866943,-0.2857341170310974
1696958336749111600,5.933111572265625,0.0391998291015625,0.3631436824798584,-0.02921116352081299
1696958336759125000,5.943125,0.29686927795410156,1.3418405055999756,-0.5549057722091675
1696958336769138400,5.953138427734375,-1.5582561492919922,0.46023911237716675,-0.5857535004615784
1696958336779152000,5.96315185546875,0.873051643371582,0.9089580774307251,-0.2882750630378723
1696958336789165300,5.973165283203125,-0.7540912628173828,0.9329427480697632,-0.7755945920944214
1696958336799178500,5.983178466796875,0.5715017318725586,0.39232802391052246,-0.5735335946083069
1696958336809192000,5.99319189453125,-0.7202548980712891,1.316202163696289,-0.48371535539627075
1696958336819205400,6.003205322265625,0.3567647933959961,0.09070336818695068,-0.4159785509109497
1696958336829218800,6.01321875,-0.2175769805908203,1.5797899961471558,-0.4088612198829651
1696958336839232300,6.023232177734375,-0.21701717376708984,0.5469537377357483,-0.5117895603179932
1696958336849245400,6.033245361328125,0.5768337249755859,0.6518541574478149,-0.09587836265563965
1696958336859259000,6.0432587890625,-0.5046577453613281,1.468043327331543,-0.5978417992591858
1696958336869272300,6.053272216796875,0.43813323974609375,0.3186781406402588,-0.18310868740081787
1696958336879285800,6.06328564453125,-0.628626823425293,1.3460992574691772,-0.41331279277801514
1696958336889299000,6.073298828125,-0.23995685577392578,0.9603710770606995,-0.21630388498306274
1696958336899312400,6.0833125,0.3389415740966797,0.5686500668525696,-0.40045642852783203
1696958336909325800,6.093325927734375,-1.9031376838684082,0.9513489007949829,-0.6274546980857849
1696958336919339300,6.10333935546875,1.1267108917236328,0.8108793497085571,-0.3731078505516052
1696958336929352700,6.113352783203125,-1.2604198455810547,1.578090786933899,-0.1202515959739685
1696958336939366000,6.123365966796875,0.8931446075439453,0.5238130688667297,-0.4773257076740265
1696958336949379300,6.13337939453125,-1.1397342681884766,1.0724413394927979,-0.08657139539718628
1696958336959392800,6.143392822265625,0.16778087615966797,1.576516032218933,-0.0723150372505188
1696958336969406200,6.15340625,0.4781351089477539,0.7096416354179382,-0.176566481590271
