time,seconds_elapsed,z,y,x
1696958330960648000,0.14464794921875,-0.011850717477500439,-0.06817491352558136,-0.06271559745073318
1696958330970580200,0.154580322265625,-0.037416309118270874,0.05006595328450203,-0.015845341607928276
1696958330980548400,0.16454833984375,-0.010785484686493874,-0.09374050796031952,0.026763979345560074
1696958330990552800,0.174552734375,-0.029959678649902344,-0.007456631399691105,-0.06271559745073318
1696958331000592100,0.184592041015625,-0.041677240282297134,0.01491326279938221,0.019307348877191544
1696958331010664200,0.194664306640625,-0.028894444927573204,-0.007456631399691105,0.013981183059513569
1696958331020765400,0.204765380859375,-0.015046416781842709,-0.0213046595454216,-0.03608476743102074
1696958331030890800,0.214890869140625,-0.03954677656292915,-0.0213046595454216,0.011850717477500439
1696958331041035000,0.225034912109375,-0.041677240282297134,-0.02769605815410614,0.016111649572849274
1696958331051192300,0.2351923828125,-0.025698747485876083,0.12037133425474167,0.006524552125483751
1696958331061356000,0.24535595703125,-0.03848154470324516,-0.004260932095348835,-0.016910573467612267
1696958331071520000,0.25552001953125,-0.04593817517161369,-0.04367455467581749,0.031024912372231483
1696958331081542000,0.2655419921875,-0.026763979345560074,0.01810896210372448,0.017176883295178413
1696958331091555300,0.275555419921875,-0.033155377954244614,0.07989247888326645,-0.029693370684981346
1696958331101568800,0.28556884765625,-0.037416309118270874,-0.0639139786362648,0.024633513763546944
1696958331111582000,0.29558203125,-0.025698747485876083,-0.03728315606713295,0.026763979345560074
1696958331121595400,0.305595458984375,-0.033155377954244614,0.03941362351179123,-0.059519894421100616
1696958331131608600,0.315608642578125,-0.03209014609456062,0.02663082629442215,0.07469946891069412
1696958331141622000,0.3256220703125,-0.026763979345560074,-0.06817491352558136,-0.027562905102968216
1696958331151635200,0.33563525390625,-0.037416309118270874,0.01810896210372448,-0.012649642303586006
1696958331161648600,0.345648681640625,-0.031024912372231483,-0.009587096981704235,0.03528584539890289
1696958331171662000,0.355662109375,-0.022503048181533813,-0.009587096981704235,-0.011584409512579441
1696958331181675300,0.36567529296875,-0.036351077258586884,-0.00852186419069767,-0.0030625448562204838
1696958331191688700,0.375688720703125,-0.03528584539890289,-0.02556559257209301,-0.005193010903894901
1696958331201702000,0.385701904296875,-0.019307348877191544,-0.01384802907705307,0.05232957378029823
1696958331211715300,0.39571533203125,-0.037416309118270874,-0.02343512699007988,-0.060585130006074905
1696958331221728800,0.405728759765625,-0.03848154470324516,-0.0053261648863554,0.054460037499666214
1696958331231742000,0.415741943359375,-0.026763979345560074,-0.0213046595454216,-0.006258244160562754
1696958331241755400,0.42575537109375,-0.037416309118270874,0.04793548583984375,-0.021171506494283676
1696958331251768600,0.4357685546875,-0.036351077258586884,-0.04580501839518547,0.027829213067889214
1696958331261782000,0.445781982421875,-0.029959678649902344,-0.0031956990715116262,-0.011584409512579441
1696958331271795200,0.455795166015625,-0.03528584539890289,0.03408745676279068,-0.006258244160562754
1696958331281808600,0.46580859375,-0.037416309118270874,-0.04793548583984375,0.021437814459204674
1696958331291822000,0.475822021484375,-0.026763979345560074,0.012782796286046505,-0.028628136962652206
1696958331301835300,0.485835205078125,-0.033155377954244614,0.0021304660476744175,0.023568280041217804
1696958331311848700,0.4958486328125,-0.03954677656292915,0.0010652330238372087,-0.059519894421100616
1696958331321862000,0.50586181640625,-0.028894444927573204,-0.01704372838139534,0.07363422960042953
1696958331331875300,0.515875244140625,-0.029959678649902344,-0.01384802907705307,-0.09147688746452332
1696958331341888800,0.525888671875,-0.036351077258586884,0.01171756349503994,0.060851436108350754
1696958331351902000,0.53590185546875,-0.025698747485876083,-0.07350108027458191,-0.050998032093048096
1696958331361915400,0.545915283203125,-0.021437814459204674,-0.007456631399691105,0.03528584539890289
1696958331371928600,0.555928466796875,-0.041677240282297134,-0.0021304660476744175,-0.043541401624679565
1696958331381942000,0.56594189453125,-0.023568280041217804,-0.03302222490310669,0.036351077258586884
1696958331391955200,0.575955078125,-0.024633513763546944,-0.012782796286046505,-0.012649642303586006
1696958331401968600,0.58596875,-0.03848154470324516,-0.0053261648863554,-0.024367205798625946
1696958331411982000,0.595982177734375,-0.024633513763546944,-0.04473978653550148,0.037416309118270874
1696958331421995300,0.605995361328125,-0.020372580736875534,-0.007456631399691105,-0.025432437658309937
1696958331432008700,0.6160087890625,-0.03209014609456062,-0.0213046595454216,0.007589785382151604
1696958331442022000,0.62602197265625,-0.027829213067889214,-0.02343512699007988,-0.007323476951569319
1696958331452035300,0.636035400390625,-0.019307348877191544,0.0021304660476744175,0.026763979345560074
1696958331462048800,0.646048828125,-0.029959678649902344,-0.02982652559876442,-0.042476166039705276
1696958331472062000,0.65606201171875,-0.031024912372231483,0.01917419396340847,0.05659050494432449
1696958331482075400,0.666075439453125,-0.021437814459204674,-0.01917419396340847,-0.024367205798625946
1696958331492088600,0.676088623046875,-0.026763979345560074,0.04793548583984375,0.00226362026296556
1696958331502102000,0.68610205078125,-0.03209014609456062,0.0053261648863554,0.010785484686493874
1696958331512115200,0.696115234375,-0.020372580736875534,-0.004260932095348835,0.006524552125483751
1696958331522128600,0.706128662109375,-0.019307348877191544,0.02982652559876442,0.0011983871227130294
1696958331532142000,0.71614208984375,-0.034220609813928604,0.06071828305721283,-0.009453942999243736
1696958331542155300,0.7261552734375,-0.013981183059513569,0.03302222490310669,0.041677240282297134
1696958331552168700,0.736168701171875,-0.012915950268507004,-0.03089175745844841,-0.011584409512579441
1696958331562182000,0.746181884765625,-0.03209014609456062,0.07030537724494934,-0.016910573467612267
1696958331572195300,0.7561953125,-0.011850717477500439,0.02556559257209301,0.08109086751937866
1696958331582208800,0.766208740234375,-0.005459319334477186,-0.02450035884976387,-0.048867564648389816
1696958331592222000,0.776221923828125,-0.023568280041217804,0.06604444980621338,0.021437814459204674
1696958331602235400,0.7862353515625,-0.010785484686493874,-0.02450035884976387,0.051264338195323944
1696958331612248600,0.79624853515625,-0.0033288532868027687,0.03089175745844841,-0.028628136962652206
1696958331622262000,0.806261962890625,-0.011850717477500439,0.01171756349503994,0.029959678649902344
1696958331632275200,0.816275146484375,-0.013981183059513569,-0.02023942768573761,0.005459319334477186
1696958331642288600,0.82628857421875,0.0030625448562204838,0.03515268862247467,0.034220609813928604
1696958331652302000,0.836302001953125,-0.007589785382151604,-0.01384802907705307,-0.017975807189941406
1696958331662315300,0.846315185546875,-0.007589785382151604,0,0.048068638890981674
1696958331672328700,0.85632861328125,-0.00226362026296556,0.0159784946590662,0.006524552125483751
1696958331682342000,0.866341796875,-0.0033288532868027687,0.01810896210372448,0.016111649572849274
1696958331692355300,0.876355224609375,-0.013981183059513569,-0.012782796286046505,0.012915950268507004
1696958331702368800,0.88636865234375,-0.00226362026296556,0.03515268862247467,0.025698747485876083
1696958331712382000,0.8963818359375,0.001997311832383275,0.01491326279938221,0.020372580736875534
1696958331722395400,0.9063955078125,-0.010785484686493874,0.0053261648863554,0.006524552125483751
1696958331732408600,0.91640869140625,-0.010785484686493874,0.02876129187643528,0.033155377954244614
1696958331742422000,0.926422119140625,0.004127778112888336,0.009587096981704235,0.022503048181533813
1696958331752435200,0.936435302734375,-0.009720250964164734,0.01917419396340847,-0.028628136962652206
1696958331762448600,0.94644873046875,-0.009720250964164734,0.0639139786362648,0.08535179495811462
1696958331772462000,0.956462158203125,-0.004394086077809334,0.01491326279938221,-0.03608476743102074
1696958331782475300,0.966475341796875,-0.0011983871227130294,0.03302222490310669,0.04913387447595596
1696958331792488700,0.97648876953125,-0.013981183059513569,0.0063913981430232525,-0.005193010903894901
1696958331802502000,0.986501953125,-0.0033288532868027687,0.09906667470932007,0.0011983871227130294
1696958331812515300,0.996515380859375,0.004127778112888336,0.004260932095348835,0.044872939586639404
1696958331822528800,1.00652880859375,-0.008655018173158169,-0.0053261648863554,-0.038215234875679016
1696958331832542000,1.0165419921875,-0.0033288532868027687,0.0426093190908432,0.061916667968034744
1696958331842555400,1.026555419921875,0.007323476951569319,0.04367455467581749,-0.03288906812667847
1696958331852568600,1.036568603515625,-0.0001331541279796511,0,0.021437814459204674
1696958331862582000,1.04658203125,-0.006524552125483751,-0.02876129187643528,-0.017975807189941406
1696958331872595500,1.056595458984375,0.008388710208237171,0.05645735189318657,0.020372580736875534
1696958331882608600,1.066608642578125,0.011584409512579441,-0.07669677585363388,-0.015845341607928276
1696958331892622000,1.0766220703125,0.0030625448562204838,-0.01917419396340847,-0.005193010903894901
1696958331902635500,1.086635498046875,0.0030625448562204838,0.02236989326775074,0.007589785382151604
1696958331912649000,1.09664892578125,0.008388710208237171,-0.0063913981430232525,-0.038215234875679016
1696958331922662400,1.106662353515625,0.005193010903894901,-0.0213046595454216,0.027829213067889214
1696958331932675600,1.116675537109375,-0.0033288532868027687,0.02450035884976387,-0.054193731397390366
1696958331942689000,1.12668896484375,0.005193010903894901,0.07669677585363388,0.047003407031297684
1696958331952702500,1.136702392578125,0.004127778112888336,-0.06071828305721283,-0.06484606117010117
1696958331962716000,1.1467158203125,-0.0033288532868027687,0.06817491352558136,0.04593817517161369
1696958331972729300,1.156729248046875,-0.0011983871227130294,-0.0213046595454216,-0.058454662561416626
1696958331982742500,1.166742431640625,0.006258244160562754,0.02769605815410614,0.028894444927573204
1696958331992756000,1.176755859375,0.0030625448562204838,-0.04900071769952774,-0.028628136962652206
1696958332002769400,1.186769287109375,-0.006524552125483751,0.05006595328450203,-0.007323476951569319
1696958332012782800,1.196782958984375,0.008388710208237171,-0.01704372838139534,0.007589785382151604
1696958332022796000,1.206796142578125,0.005193010903894901,-0.05219641700387001,-0.038215234875679016
1696958332032809500,1.2168095703125,-0.004394086077809334,0.02663082629442215,-0.004127778112888336
1696958332042823000,1.226822998046875,-0.0001331541279796511,0.0106523297727108,0.016111649572849274
1696958332052836400,1.23683642578125,0.001997311832383275,0.0159784946590662,-0.06591129302978516
1696958332062849800,1.246849853515625,0.004127778112888336,0.01810896210372448,0.061916667968034744
1696958332072863000,1.256863037109375,-0.011850717477500439,-0.0021304660476744175,-0.059519894421100616
1696958332082876400,1.26687646484375,-0.004394086077809334,0.09693620353937149,0.005459319334477186
1696958332092889900,1.276889892578125,0.001997311832383275,0.004260932095348835,0.03954677656292915
1696958332102903300,1.2869033203125,-0.008655018173158169,-0.004260932095348835,-0.06484606117010117
1696958332112916700,1.296916748046875,-0.010785484686493874,0.04047885537147522,0.040612008422613144
1696958332122930000,1.306929931640625,0.008388710208237171,0.007456631399691105,0.006524552125483751
1696958332132943400,1.316943359375,-0.0011983871227130294,-0.02876129187643528,-0.03288906812667847
1696958332142956800,1.326956787109375,-0.011850717477500439,-0.009587096981704235,0.04913387447595596
1696958332152970200,1.33697021484375,-0.00226362026296556,-0.0010652330238372087,-0.024367205798625946
1696958332162983400,1.3469833984375,-0.00226362026296556,0.04793548583984375,0.026763979345560074
1696958332172996900,1.356996826171875,-0.011850717477500439,-0.04687025398015976,-0.019041040912270546
1696958332183010300,1.36701025390625,-0.013981183059513569,0.07350108027458191,0.048068638890981674
1696958332193023700,1.377023681640625,-0.007589785382151604,-0.0106523297727108,-0.024367205798625946
1696958332203037200,1.387037109375,-0.008655018173158169,0.03302222490310669,0.044872939586639404
1696958332213050400,1.39705029296875,-0.017176883295178413,0.03302222490310669,-0.012649642303586006
1696958332223063800,1.407063720703125,-0.007589785382151604,0.03302222490310669,0.029959678649902344
1696958332233077200,1.4170771484375,-0.0033288532868027687,-0.004260932095348835,0.0001331541279796511
1696958332243090700,1.427090576171875,-0.008655018173158169,-0.0010652330238372087,0.013981183059513569
1696958332253104000,1.437104248046875,-0.019307348877191544,0.05965305119752884,-0.001997311832383275
1696958332263117300,1.447117431640625,-0.004394086077809334,0.03089175745844841,0.048068638890981674
1696958332273130800,1.457130859375,0.001997311832383275,-0.06178351491689682,-0.03608476743102074
1696958332283144200,1.467144287109375,-0.007589785382151604,0.02343512699007988,0.04274247586727142
1696958332293157600,1.47715771484375,-0.007589785382151604,0.0063913981430232525,-0.006258244160562754
1696958332303170800,1.4871708984375,0.005193010903894901,-0.012782796286046505,0.025698747485876083
1696958332313184300,1.497184326171875,-0.0001331541279796511,-0.03941362351179123,0.011850717477500439
1696958332323197700,1.50719775390625,-0.010785484686493874,0.03302222490310669,0.0011983871227130294
1696958332333211100,1.517211181640625,0.001997311832383275,0.0106523297727108,0.021437814459204674
1696958332343224600,1.527224609375,0.009453942999243736,-0.04047885537147522,0.022503048181533813
1696958332353237800,1.53723779296875,-0.004394086077809334,0.01704372838139534,-0.012649642303586006
1696958332363251200,1.547251220703125,-0.004394086077809334,0.0053261648863554,0.03848154470324516
1696958332373264600,1.5572646484375,0.007323476951569319,-0.012782796286046505,-0.013714875094592571
1696958332383278000,1.567278076171875,0.0009320789249613881,-0.0031956990715116262,0.019307348877191544
1696958332393291500,1.57729150390625,-0.006524552125483751,0.009587096981704235,-0.007323476951569319
1696958332403304700,1.5873046875,-0.0033288532868027687,0.02023942768573761,0.017176883295178413
1696958332413318100,1.597318115234375,0.0030625448562204838,-0.004260932095348835,0.0011983871227130294
1696958332423331600,1.60733154296875,-0.004394086077809334,0,-0.005193010903894901
1696958332433345000,1.617344970703125,-0.005459319334477186,0.00852186419069767,0.026763979345560074
1696958332443358500,1.6273583984375,0.0030625448562204838,-0.01917419396340847,-0.014780107885599136
1696958332453371600,1.63737158203125,0.0030625448562204838,-0.01810896210372448,0.009720250964164734
1696958332463385000,1.647385009765625,-0.006524552125483751,-0.004260932095348835,0.0011983871227130294
1696958332473398500,1.6573984375,-0.0033288532868027687,0.01917419396340847,0.017176883295178413
1696958332483412000,1.667411865234375,0.0009320789249613881,-0.05113118514418602,-0.011584409512579441
1696958332493425200,1.677425048828125,-0.0033288532868027687,0.012782796286046505,0.015046416781842709
1696958332503438600,1.6874384765625,-0.006524552125483751,0.007456631399691105,0.0033288532868027687
1696958332513452000,1.6974521484375,0.001997311832383275,-0.0053261648863554,0.005459319334477186
1696958332523465500,1.707465576171875,-0.0033288532868027687,-0.01917419396340847,0.0001331541279796511
1696958332533479000,1.71747900390625,-0.006524552125483751,0.04154408723115921,0.010785484686493874
1696958332543492000,1.7274921875,-0.005459319334477186,-0.02663082629442215,-0.005193010903894901
1696958332553505500,1.737505615234375,0.0009320789249613881,0.01384802907705307,0.011850717477500439
1696958332563519000,1.74751904296875,-0.006524552125483751,-0.009587096981704235,-0.0030625448562204838
1696958332573532400,1.757532470703125,-0.007589785382151604,0.007456631399691105,-0.0030625448562204838
1696958332583545900,1.7675458984375,0.0009320789249613881,-0.00852186419069767,0.020372580736875534
1696958332593559000,1.77755908203125,-0.0001331541279796511,0.0021304660476744175,-0.027562905102968216
1696958332603572500,1.787572509765625,-0.006524552125483751,-0.0063913981430232525,0.025698747485876083
1696958332613586000,1.7975859375,-0.004394086077809334,-0.012782796286046505,-0.028628136962652206
1696958332623599400,1.807599365234375,0.001997311832383275,0.04580501839518547,0.031024912372231483
1696958332633612500,1.817612548828125,-0.0033288532868027687,-0.0213046595454216,-0.023301972076296806
1696958332643626000,1.8276259765625,-0.011850717477500439,0.04580501839518547,0.005459319334477186
1696958332653639400,1.837639404296875,-0.0001331541279796511,0.04900071769952774,0.006524552125483751
1696958332663652900,1.84765283203125,0.0009320789249613881,-0.009587096981704235,-0.017975807189941406
1696958332673666300,1.857666259765625,-0.011850717477500439,0.06071828305721283,0.009720250964164734
1696958332683679500,1.867679443359375,-0.007589785382151604,0.0532616525888443,0.004394086077809334
1696958332693693000,1.87769287109375,0.004127778112888336,0.0426093190908432,0.0011983871227130294
1696958332703706000,1.8877060546875,-0.00226362026296556,-0.004260932095348835,-0.009453942999243736
1696958332713719600,1.897719482421875,-0.013981183059513569,0.03941362351179123,-0.0009320789249613881
1696958332723733000,1.90773291015625,0.004127778112888336,0.004260932095348835,0.012915950268507004
1696958332733746200,1.91774609375,0.008388710208237171,-0.01917419396340847,-0.001997311832383275
1696958332743759600,1.927759521484375,-0.011850717477500439,-0.02343512699007988,-0.03288906812667847
1696958332753772800,1.937772705078125,-0.00226362026296556,0.02450035884976387,0.050199106335639954
1696958332763786200,1.9477861328125,0.005193010903894901,-0.05858781561255455,-0.040345702320337296
1696958332773799400,1.95779931640625,-0.004394086077809334,0.0213046595454216,0.011850717477500439
1696958332783812900,1.967812744140625,-0.010785484686493874,-0.04047885537147522,0.009720250964164734
1696958332793826300,1.977826416015625,-0.004394086077809334,0.03408745676279068,-0.005193010903894901
1696958332803839500,1.987839599609375,-0.00226362026296556,-0.0106523297727108,0.010785484686493874
1696958332813853000,1.99785302734375,-0.017176883295178413,-0.0063913981430232525,-0.014780107885599136
1696958332823866000,2.0078662109375,-0.012915950268507004,0.04580501839518547,0.022503048181533813
1696958332833879600,2.017879638671875,-0.004394086077809334,-0.02876129187643528,-0.005193010903894901
1696958332843893000,2.02789306640625,-0.012915950268507004,0.0159784946590662,-0.013714875094592571
1696958332853906200,2.03790625,-0.021437814459204674,0.02663082629442215,0.034220609813928604
1696958332863919600,2.047919677734375,-0.011850717477500439,0.0106523297727108,-0.031823836266994476
1696958332873932800,2.057932861328125,-0.009720250964164734,-0.012782796286046505,0.03848154470324516
1696958332883946200,2.0679462890625,-0.022503048181533813,-0.0053261648863554,-0.041410934180021286
1696958332893959400,2.07795947265625,-0.018242115154862404,0.04367455467581749,0.060851436108350754
1696958332903972900,2.087972900390625,-0.008655018173158169,-0.0639139786362648,-0.043541401624679565
1696958332913986300,2.097986328125,-0.012915950268507004,-0.01491326279938221,0.031024912372231483
1696958332923999500,2.10799951171875,-0.019307348877191544,-0.04154408723115921,-0.010519175790250301
1696958332934013000,2.118012939453125,-0.012915950268507004,0.00852186419069767,-0.0009320789249613881
1696958332944026400,2.1280263671875,-0.009720250964164734,-0.04580501839518547,0.020372580736875534
1696958332954039600,2.13803955078125,-0.021437814459204674,-0.04580501839518547,-0.028628136962652206
1696958332964053000,2.148052978515625,-0.018242115154862404,0.03515268862247467,0.028894444927573204
1696958332974066400,2.15806640625,-0.009720250964164734,-0.02876129187643528,-0.005193010903894901
1696958332984080000,2.168079833984375,-0.015046416781842709,-0.02450035884976387,0.0033288532868027687
1696958332994093000,2.178093017578125,-0.022503048181533813,0.00852186419069767,0.010785484686493874
1696958333004106500,2.1881064453125,-0.013981183059513569,0.0319569893181324,0.010785484686493874
1696958333014120000,2.198119873046875,-0.008655018173158169,-0.03302222490310669,0.020372580736875534
1696958333024133400,2.20813330078125,-0.021437814459204674,0.0031956990715116262,0.004394086077809334
1696958333034146800,2.218146728515625,-0.022503048181533813,0.03089175745844841,0.016111649572849274
1696958333044160300,2.22816015625,-0.0011983871227130294,-0.0063913981430232525,0.031024912372231483
1696958333054173700,2.238173583984375,-0.012915950268507004,-0.0639139786362648,-0.015845341607928276
1696958333064187100,2.248187255859375,-0.020372580736875534,0.03621792420744896,0.037416309118270874
1696958333074200600,2.25820068359375,-0.006524552125483751,-0.02876129187643528,0.015046416781842709
1696958333084214000,2.268214111328125,-0.004394086077809334,-0.0213046595454216,0.00226362026296556
1696958333094227500,2.2782275390625,-0.013981183059513569,-0.02769605815410614,0.020372580736875534
1696958333104241000,2.288240966796875,-0.013981183059513569,0.00852186419069767,-0.004127778112888336
1696958333114254300,2.29825439453125,-0.00226362026296556,-0.00852186419069767,0.024633513763546944
1696958333124267800,2.308267822265625,-0.007589785382151604,-0.0532616525888443,-0.005193010903894901
1696958333134281200,2.31828125,-0.016111649572849274,0.007456631399691105,0.011850717477500439
1696958333144294700,2.328294677734375,-0.009720250964164734,0.0213046595454216,0.021437814459204674
1696958333154308000,2.33830810546875,-0.006524552125483751,-0.004260932095348835,0.006524552125483751
1696958333164321500,2.348321533203125,-0.015046416781842709,-0.03302222490310669,-0.004127778112888336
1696958333174335000,2.3583349609375,-0.018242115154862404,0.0639139786362648,0.016111649572849274
1696958333184348200,2.36834814453125,-0.005459319334477186,-0.03408745676279068,0.028894444927573204
1696958333194361600,2.378361572265625,-0.008655018173158169,-0.02769605815410614,-0.024367205798625946
1696958333204375000,2.388375,-0.021437814459204674,0.03302222490310669,0.04593817517161369
1696958333214388500,2.398388427734375,-0.010785484686493874,-0.0106523297727108,-0.010519175790250301
1696958333224402000,2.40840185546875,-0.00226362026296556,-0.04047885537147522,0.028894444927573204
1696958333234415400,2.418415283203125,-0.015046416781842709,-0.01171756349503994,0.005459319334477186
1696958333244428800,2.4284287109375,-0.019307348877191544,0.0010652330238372087,0.005459319334477186
1696958333254442200,2.438442138671875,-0.0033288532868027687,-0.02236989326775074,0.036351077258586884
1696958333264456400,2.44845654296875,-0.009720250964164734,-0.0532616525888443,-0.019041040912270546
1696958333274469400,2.458469482421875,-0.017176883295178413,-0.007456631399691105,0.047003407031297684
1696958333284482600,2.468482666015625,-0.013981183059513569,-0.00852186419069767,-0.025432437658309937
1696958333294495500,2.47849560546875,-0.0033288532868027687,-0.0159784946590662,0.06511236727237701
1696958333304508400,2.48850830078125,-0.013981183059513569,-0.04047885537147522,-0.035019535571336746
1696958333314521600,2.498521484375,-0.019307348877191544,0.03941362351179123,0.054460037499666214
1696958333324534800,2.50853466796875,-0.009720250964164734,0.0053261648863554,-0.013714875094592571
1696958333334548000,2.5185478515625,-0.010785484686493874,0.012782796286046505,0.04274247586727142
1696958333344561200,2.52856103515625,-0.017176883295178413,-0.0063913981430232525,-0.016910573467612267
1696958333354574300,2.53857421875,-0.015046416781842709,0.06497921794652939,0.047003407031297684
1696958333364587800,2.548587890625,-0.006524552125483751,-0.007456631399691105,-0.006258244160562754
1696958333374601200,2.558601318359375,-0.013981183059513569,-0.00852186419069767,0.017176883295178413
1696958333384614700,2.56861474609375,-0.016111649572849274,0.03408745676279068,0.010785484686493874
1696958333394628000,2.578628173828125,-0.007589785382151604,0.00852186419069767,0.010785484686493874
1696958333404641500,2.5886416015625,-0.007589785382151604,-0.01917419396340847,0.006524552125483751
1696958333414655200,2.5986552734375,-0.012915950268507004,-0.0010652330238372087,0.006524552125483751
1696958333424669000,2.6086689453125,-0.012915950268507004,0.02769605815410614,-0.0030625448562204838
1696958333434682600,2.6186826171875,-0.00226362026296556,-0.0213046595454216,0.028894444927573204
1696958333444696300,2.6286962890625,-0.009720250964164734,-0.0053261648863554,-0.021171506494283676
1696958333454710000,2.6387099609375,-0.017176883295178413,0.02450035884976387,0.021437814459204674
1696958333464723700,2.6487236328125,-0.011850717477500439,0.03515268862247467,-0.004127778112888336
1696958333474737400,2.6587373046875,-0.004394086077809334,-0.0021304660476744175,0.026763979345560074
1696958333484750800,2.668750732421875,-0.017176883295178413,-0.0010652330238372087,-0.022236740216612816
1696958333494764300,2.678764404296875,-0.020372580736875534,0.06497921794652939,0.022503048181533813
1696958333504777500,2.688777587890625,-0.004394086077809334,0.0031956990715116262,0.015046416781842709
1696958333514791400,2.69879150390625,-0.013981183059513569,0.004260932095348835,-0.024367205798625946
1696958333524804400,2.708804443359375,-0.019307348877191544,0.0213046595454216,0.011850717477500439
1696958333534817300,2.7188173828125,-0.011850717477500439,0.03089175745844841,0.0011983871227130294
1696958333544830000,2.728829833984375,-0.008655018173158169,-0.03302222490310669,-0.012649642303586006
1696958333554843000,2.7388427734375,-0.016111649572849274,-0.007456631399691105,-0.011584409512579441
1696958333564856000,2.74885595703125,-0.015046416781842709,-0.01704372838139534,0.007589785382151604
1696958333574869000,2.758868896484375,-0.007589785382151604,-0.01171756349503994,-0.011584409512579441
1696958333584882200,2.768882080078125,-0.006524552125483751,-0.07030537724494934,0.009720250964164734
1696958333594895400,2.778895263671875,-0.020372580736875534,-0.0159784946590662,-0.008388710208237171
1696958333604908500,2.788908447265625,-0.013981183059513569,0,0.03209014609456062
1696958333614922000,2.798921875,-0.006524552125483751,-0.05858781561255455,0.03209014609456062
1696958333624935700,2.808935791015625,-0.022503048181533813,-0.01810896210372448,-0.006258244160562754
1696958333634949000,2.81894921875,-0.023568280041217804,0.0106523297727108,0.06830807030200958
1696958333644962800,2.828962890625,-0.004394086077809334,-0.05219641700387001,0.043807707726955414
1696958333654976500,2.8389765625,-0.012915950268507004,-0.0319569893181324,0.029959678649902344
1696958333664990200,2.848990234375,-0.027829213067889214,0.02450035884976387,0.08002562820911407
1696958333675004200,2.859004150390625,-0.009720250964164734,-0.04047885537147522,0.05978620424866676
1696958333685017900,2.869017822265625,-0.007589785382151604,0.0010652330238372087,0.08641702681779861
1696958333695031600,2.879031494140625,-0.022503048181533813,-0.03621792420744896,0.067242830991745
1696958333705045200,2.889045166015625,-0.021437814459204674,0.01384802907705307,0.09387365728616714
1696958333715059000,2.899058837890625,-0.004394086077809334,-0.0213046595454216,0.13222205638885498
1696958333725072400,2.909072265625,-0.010785484686493874,-0.07243584841489792,0.06937330216169357
1696958333735085600,2.91908544921875,-0.017176883295178413,0.02023942768573761,0.13541774451732635
1696958333745099000,2.92909912109375,-0.005459319334477186,-0.02876129187643528,0.14393961429595947
1696958333755112400,2.939112548828125,-0.0001331541279796511,-0.06924014538526535,0.1311568170785904
1696958333765126400,2.94912646484375,-0.015046416781842709,-0.01491326279938221,0.14607007801532745
1696958333775139300,2.959139404296875,-0.012915950268507004,0.0053261648863554,0.16417904198169708
1696958333785152000,2.969152099609375,0.001997311832383275,-0.01171756349503994,0.1822880059480667
1696958333795165000,2.9791650390625,-0.009720250964164734,-0.03728315606713295,0.14607007801532745
1696958333805177900,2.989177734375,-0.025698747485876083,0.03941362351179123,0.17802706360816956
1696958333815190800,2.999190673828125,-0.008655018173158169,0.0159784946590662,0.2046578973531723
1696958333825203700,3.00920361328125,-0.009720250964164734,-0.01491326279938221,0.151396244764328
1696958333835217000,3.019216796875,-0.022503048181533813,0.00852186419069767,0.18015754222869873
1696958333845230000,3.02922998046875,-0.020372580736875534,0.03408745676279068,0.16843996942043304
1696958333855243300,3.0392431640625,-0.012915950268507004,0.01491326279938221,0.16630950570106506
1696958333865256700,3.049256591796875,-0.020372580736875534,-0.03834838792681694,0.1300915777683258
1696958333875270400,3.0592705078125,-0.024633513763546944,0.02236989326775074,0.16098333895206451
1696958333885284000,3.0692841796875,-0.021437814459204674,0.007456631399691105,0.12263495475053787
1696958333895297800,3.0792978515625,-0.021437814459204674,-0.0021304660476744175,0.12583065032958984
1696958333905311500,3.0893115234375,-0.019307348877191544,-0.01384802907705307,0.09067796170711517
1696958333915325200,3.0993251953125,-0.017176883295178413,0.009587096981704235,0.09706936031579971
1696958333925339100,3.109339111328125,-0.021437814459204674,0.00852186419069767,0.058720968663692474
1696958333935352800,3.119352783203125,-0.025698747485876083,0.01491326279938221,0.048068638890981674
1696958333945366800,3.12936669921875,-0.025698747485876083,0.01171756349503994,0.03954677656292915
1696958333955380500,3.13938037109375,-0.023568280041217804,0.01810896210372448,-0.001997311832383275
1696958333965393700,3.1493935546875,-0.021437814459204674,0.0106523297727108,0.012915950268507004
1696958333975407000,3.159406982421875,-0.025698747485876083,0.0010652330238372087,-0.06697652488946915
1696958333985420500,3.169420654296875,-0.017176883295178413,0.03408745676279068,-0.021171506494283676
1696958333995434000,3.17943408203125,-0.012915950268507004,-0.04047885537147522,-0.0925421193242073
1696958334005447400,3.189447509765625,-0.019307348877191544,0.02769605815410614,-0.12343387305736542
1696958334015460600,3.199460693359375,-0.019307348877191544,0.02343512699007988,-0.12236864119768143
1696958334025474000,3.20947412109375,-0.011850717477500439,-0.02023942768573761,-0.16604319214820862
1696958334035487500,3.219487548828125,-0.005459319334477186,-0.00852186419069767,-0.1894783228635788
1696958334045501000,3.2295009765625,-0.0033288532868027687,-0.01810896210372448,-0.2118482142686844
1696958334055514000,3.23951416015625,-0.0011983871227130294,-0.0021304660476744175,-0.210782989859581
1696958334065527600,3.249527587890625,0.0009320789249613881,0.0063913981430232525,-0.2310224175453186
1696958334075541000,3.259541015625,0.0009320789249613881,-0.02556559257209301,-0.24060951173305511
1696958334085554400,3.269554443359375,-0.0011983871227130294,0.03621792420744896,-0.25658801198005676
1696958334095568000,3.27956787109375,0.004127778112888336,-0.0010652330238372087,-0.2533923089504242
1696958334105581000,3.2895810546875,0.006258244160562754,-0.01810896210372448,-0.2768274247646332
1696958334115594500,3.299594482421875,-0.0001331541279796511,0.04154408723115921,-0.2725664973258972
1696958334125608000,3.30960791015625,0.0009320789249613881,-0.01704372838139534,-0.22250054776668549
1696958334135621400,3.319621337890625,0.001997311832383275,0.02236989326775074,-0.26724034547805786
1696958334145634800,3.329634765625,-0.005459319334477186,0.0159784946590662,-0.24380521476268768
1696958334155648000,3.33964794921875,-0.004394086077809334,0.02023942768573761,-0.24380521476268768
1696958334165661400,3.349661376953125,-0.0001331541279796511,-0.0031956990715116262,-0.23315288126468658
1696958334175675000,3.3596748046875,-0.007589785382151604,0,-0.2427399754524231
1696958334185688300,3.369688232421875,-0.012915950268507004,0.0319569893181324,-0.19160878658294678
1696958334195701500,3.379701416015625,0.0009320789249613881,-0.02769605815410614,-0.18734785914421082
1696958334205715000,3.38971484375,-0.009720250964164734,0.0031956990715116262,-0.21397867798805237
1696958334215728400,3.399728271484375,-0.018242115154862404,0.02769605815410614,-0.17030413448810577
1696958334225741800,3.409741943359375,-0.007589785382151604,-0.0213046595454216,-0.1671084314584732
1696958334235755300,3.41975537109375,-0.005459319334477186,-0.007456631399691105,-0.14154283702373505
1696958334245768400,3.4297685546875,-0.028894444927573204,0.004260932095348835,-0.1671084314584732
1696958334255782000,3.439781982421875,-0.021437814459204674,0.02769605815410614,-0.0925421193242073
1696958334265795300,3.44979541015625,-0.006524552125483751,-0.01810896210372448,-0.0936073511838913
1696958334275808800,3.459808837890625,-0.022503048181533813,0.0053261648863554,-0.13408620655536652
1696958334285822200,3.469822265625,-0.028894444927573204,0.02663082629442215,-0.052063263952732086
1696958334295835400,3.47983544921875,-0.010785484686493874,-0.0106523297727108,-0.047802332788705826
1696958334305848800,3.489848876953125,-0.015046416781842709,-0.0010652330238372087,-0.045671865344047546
1696958334315862300,3.4998623046875,-0.031024912372231483,0.01917419396340847,-0.026497671380639076
1696958334325875700,3.509875732421875,-0.018242115154862404,0.01171756349503994,0.011850717477500439
1696958334335889000,3.519888916015625,-0.011850717477500439,0.0031956990715116262,0.021437814459204674
1696958334345902300,3.52990234375,-0.028894444927573204,0.0063913981430232525,0.017176883295178413
1696958334355915800,3.539915771484375,-0.021437814459204674,0,0.07043853402137756
1696958334365929200,3.54992919921875,-0.009720250964164734,0.0159784946590662,0.07043853402137756
1696958334375942700,3.559942626953125,-0.017176883295178413,-0.03408745676279068,0.06511236727237701
1696958334385955800,3.569955810546875,-0.021437814459204674,-0.0159784946590662,0.0768299326300621
1696958334395969300,3.57996923828125,-0.013981183059513569,0.0063913981430232525,0.11091738939285278
1696958334405982700,3.589982666015625,-0.010785484686493874,-0.04900071769952774,0.061916667968034744
1696958334415996200,3.59999609375,-0.015046416781842709,-0.04580501839518547,0.1087869256734848
1696958334426009600,3.610009521484375,-0.025698747485876083,-0.0106523297727108,0.06404713541269302
1696958334436022800,3.620022705078125,-0.010785484686493874,-0.02769605815410614,0.11304785311222076
1696958334446036200,3.6300361328125,-0.009720250964164734,-0.08734910935163498,0.05978620424866676
1696958334456049700,3.640049560546875,-0.025698747485876083,-0.004260932095348835,0.07363422960042953
1696958334466063000,3.65006298828125,-0.018242115154862404,-0.03302222490310669,0.08535179495811462
1696958334476076300,3.660076171875,-0.009720250964164734,-0.0532616525888443,0.058720968663692474
1696958334486089700,3.67008984375,-0.021437814459204674,-0.02982652559876442,0.037416309118270874
1696958334496103200,3.680103271484375,-0.029959678649902344,0,0.061916667968034744
1696958334506116600,3.69011669921875,-0.017176883295178413,0.0021304660476744175,0.03209014609456062
1696958334516130000,3.700130126953125,-0.019307348877191544,-0.04473978653550148,0.015046416781842709
1696958334526143200,3.710143310546875,-0.027829213067889214,0.004260932095348835,0.010785484686493874
1696958334536156700,3.72015673828125,-0.023568280041217804,0.03515268862247467,-0.0030625448562204838
1696958334546170000,3.730170166015625,-0.021437814459204674,-0.02769605815410614,-0.021171506494283676
1696958334556183600,3.74018359375,-0.024633513763546944,-0.01810896210372448,-0.06484606117010117
1696958334566197000,3.750197021484375,-0.025698747485876083,0.0063913981430232525,-0.029693370684981346
1696958334576210200,3.760210205078125,-0.018242115154862404,-0.01491326279938221,-0.08508548885583878
1696958334586223600,3.7702236328125,-0.022503048181533813,-0.04900071769952774,-0.09041165560483932
1696958334596237000,3.780237060546875,-0.024633513763546944,-0.0010652330238372087,-0.10958584398031235
1696958334606250500,3.79025048828125,-0.018242115154862404,-0.007456631399691105,-0.1031944528222084
1696958334616263700,3.800263671875,-0.021437814459204674,-0.01917419396340847,-0.15006470680236816
1696958334626277000,3.810277099609375,-0.024633513763546944,0.0106523297727108,-0.1362166702747345
1696958334636290600,3.82029052734375,-0.018242115154862404,0.0159784946590662,-0.12130340933799744
1696958334646304000,3.830303955078125,-0.021437814459204674,0.007456631399691105,-0.17456506192684174
1696958334656317400,3.8403173828125,-0.025698747485876083,0.0319569893181324,-0.12876003980636597
1696958334666330600,3.85033056640625,-0.022503048181533813,-0.0010652330238372087,-0.15326039493083954
1696958334676344000,3.860343994140625,-0.018242115154862404,0.02982652559876442,-0.12982527911663055
1696958334686357500,3.870357421875,-0.025698747485876083,-0.0021304660476744175,-0.15112993121147156
1696958334696371000,3.880370849609375,-0.033155377954244614,0.0319569893181324,-0.12236864119768143
1696958334706384400,3.89038427734375,-0.023568280041217804,0.012782796286046505,-0.09573781490325928
1696958334716397600,3.9003974609375,-0.031024912372231483,0.0010652330238372087,-0.14367330074310303
1696958334726411000,3.910410888671875,-0.033155377954244614,0.004260932095348835,-0.061650361865758896
1696958334736424400,3.920424560546875,-0.026763979345560074,-0.01917419396340847,-0.08934641629457474
1696958334746438000,3.93043798828125,-0.034220609813928604,0.01171756349503994,-0.08402025699615479
1696958334756451300,3.940451416015625,-0.041677240282297134,-0.03302222490310669,-0.045671865344047546
1696958334766464500,3.950464599609375,-0.036351077258586884,-0.0053261648863554,-0.014780107885599136
1696958334776478000,3.96047802734375,-0.047003407031297684,0.0053261648863554,-0.040345702320337296
1696958334786491400,3.970491455078125,-0.053394805639982224,0.0010652330238372087,0.026763979345560074
1696958334796504600,3.980504638671875,-0.047003407031297684,0.0063913981430232525,0.041677240282297134
1696958334806518000,3.99051806640625,-0.058720968663692474,0.02663082629442215,0.033155377954244614
1696958334816531200,4.00053125,-0.067242830991745,0.004260932095348835,0.08002562820911407
1696958334826544600,4.010544677734375,-0.058720968663692474,-0.004260932095348835,0.1290263533592224
1696958334836558000,4.02055810546875,-0.06830807030200958,0.05006595328450203,0.11091738939285278
1696958334846571300,4.0305712890625,-0.07896039634943008,0.007456631399691105,0.16417904198169708
1696958334856584700,4.040584716796875,-0.06830807030200958,-0.01171756349503994,0.20146219432353973
1696958334866598000,4.050597900390625,-0.07576470077037811,0.0319569893181324,0.19294032454490662
1696958334876611300,4.060611328125,-0.08215609937906265,-0.02769605815410614,0.23022349178791046
1696958334886624800,4.070624755859375,-0.06830807030200958,-0.0639139786362648,0.28561559319496155
1696958334896638000,4.080637939453125,-0.0778951644897461,-0.02450035884976387,0.2483324557542801
1696958334906651400,4.0906513671875,-0.08641702681779861,-0.06710968166589737,0.30478981137275696
1696958334916664600,4.10066455078125,-0.06830807030200958,-0.07776200771331787,0.32715970277786255
1696958334926678000,4.110677978515625,-0.07896039634943008,-0.03408745676279068,0.28241991996765137
1696958334936691200,4.120691162109375,-0.08322133123874664,-0.05539211630821228,0.3101159632205963
1696958334946704600,4.13070458984375,-0.06830807030200958,-0.07030537724494934,0.35698622465133667
1696958334956718000,4.140718017578125,-0.0778951644897461,-0.05539211630821228,0.23981058597564697
1696958334966731300,4.150731201171875,-0.0778951644897461,-0.02450035884976387,0.33674678206443787
1696958334976744700,4.16074462890625,-0.06511236727237701,-0.1171756312251091,0.2920069992542267
1696958334986758000,4.1707578125,-0.07576470077037811,-0.01384802907705307,0.22063638269901276
1696958334996771300,4.180771240234375,-0.06511236727237701,-0.09906667470932007,0.3101159632205963
1696958335006784800,4.19078466796875,-0.0555252730846405,-0.10332760214805603,0.2142449915409088
1696958335016798000,4.2007978515625,-0.067242830991745,-0.02236989326775074,0.2259625494480133
1696958335026811400,4.210811279296875,-0.058720968663692474,-0.11291470378637314,0.22383208572864532
1696958335036824600,4.220824462890625,-0.05232957378029823,-0.05432688444852829,0.1950708031654358
1696958335046838000,4.230838134765625,-0.06404713541269302,-0.0639139786362648,0.15352670848369598
1696958335056851500,4.2408515625,-0.058720968663692474,-0.04154408723115921,0.1737661361694336
1696958335066864600,4.25086474609375,-0.053394805639982224,-0.04154408723115921,0.151396244764328
1696958335076878000,4.260878173828125,-0.067242830991745,-0.0426093190908432,0.07896039634943008
1696958335086891500,4.2708916015625,-0.05659050494432449,-0.02876129187643528,0.14820054173469543
1696958335096905000,4.280905029296875,-0.057655736804008484,-0.03302222490310669,0.050199106335639954
1696958335106918400,4.29091845703125,-0.07363422960042953,0.04367455467581749,0.0555252730846405
1696958335116931600,4.300931640625,-0.06404713541269302,-0.04473978653550148,0.06937330216169357
1696958335126945000,4.310945068359375,-0.067242830991745,0.04473978653550148,-0.010519175790250301
1696958335136958500,4.32095849609375,-0.0768299326300621,0.03515268862247467,0.007589785382151604
1696958335146972000,4.330971923828125,-0.06404713541269302,-0.0010652330238372087,0.009720250964164734
1696958335156985000,4.340985107421875,-0.07256899774074554,0.03515268862247467,-0.07443315535783768
1696958335166998500,4.35099853515625,-0.08002562820911407,0.03728315606713295,-0.059519894421100616
1696958335177012000,4.361011962890625,-0.06298190355300903,-0.0021304660476744175,-0.026497671380639076
1696958335187025400,4.371025390625,-0.07363422960042953,-0.0021304660476744175,-0.13195574283599854
1696958335197038800,4.381038818359375,-0.0768299326300621,0.05539211630821228,-0.07975932210683823
1696958335207052000,4.391052001953125,-0.060851436108350754,-0.05219641700387001,-0.07656362652778625
1696958335217065500,4.4010654296875,-0.0778951644897461,0.04154408723115921,-0.17456506192684174
1696958335227079000,4.411078857421875,-0.07469946891069412,-0.0031956990715116262,-0.06804175674915314
1696958335237092400,4.42109228515625,-0.06511236727237701,-0.03515268862247467,-0.11597724258899689
1696958335247105800,4.431105712890625,-0.08002562820911407,0.03941362351179123,-0.15432563424110413
1696958335257119000,4.441118896484375,-0.07363422960042953,-0.02876129187643528,-0.08188978582620621
1696958335267132400,4.45113232421875,-0.06298190355300903,-0.02876129187643528,-0.11917294561862946
1696958335277145900,4.461145751953125,-0.08109086751937866,0.02663082629442215,-0.1553908735513687
1696958335287159300,4.4711591796875,-0.07150376588106155,-0.03941362351179123,-0.08188978582620621
1696958335297172700,4.4811728515625,-0.067242830991745,-0.02236989326775074,-0.11917294561862946
1696958335307186000,4.49118603515625,-0.08002562820911407,0.0159784946590662,-0.15006470680236816
1696958335317199400,4.501199462890625,-0.06511236727237701,-0.04367455467581749,-0.060585130006074905
1696958335327212800,4.511212890625,-0.07256899774074554,-0.009587096981704235,-0.15965180099010468
1696958335337226200,4.521226318359375,-0.07469946891069412,0.01384802907705307,-0.1042596846818924
1696958335347239400,4.531239501953125,-0.060851436108350754,-0.05113118514418602,-0.07549838721752167
1696958335357252900,4.5412529296875,-0.07576470077037811,0.009587096981704235,-0.15006470680236816
1696958335367266300,4.551266357421875,-0.07150376588106155,0.009587096981704235,-0.06804175674915314
1696958335377279700,4.56127978515625,-0.06298190355300903,-0.02769605815410614,-0.08188978582620621
1696958335387293200,4.571293212890625,-0.08002562820911407,0.02982652559876442,-0.13089050352573395
1696958335397306400,4.581306396484375,-0.07150376588106155,0.007456631399691105,-0.016910573467612267
1696958335407319800,4.59131982421875,-0.07256899774074554,-0.01491326279938221,-0.1031944528222084
1696958335417333200,4.601333251953125,-0.08215609937906265,0.0426093190908432,-0.044606633484363556
1696958335427346700,4.6113466796875,-0.07043853402137756,-0.03302222490310669,-0.030758604407310486
1696958335437360000,4.621360107421875,-0.08428656309843063,0.01917419396340847,-0.05312849581241608
1696958335447373300,4.631373291015625,-0.07896039634943008,0.0031956990715116262,-0.021171506494283676
1696958335457386800,4.64138671875,-0.0768299326300621,-0.03408745676279068,0.008655018173158169
1696958335467400200,4.651400146484375,-0.09067796170711517,0.0053261648863554,-0.059519894421100616
1696958335477413600,4.66141357421875,-0.07469946891069412,-0.04473978653550148,0.04913387447595596
1696958335487426800,4.6714267578125,-0.0874822586774826,-0.02769605815410614,-0.037150003015995026
1696958335497440300,4.681440185546875,-0.09067796170711517,-0.004260932095348835,0.009720250964164734
1696958335507453700,4.69145361328125,-0.08109086751937866,-0.0426093190908432,0.027829213067889214
1696958335517467100,4.701467041015625,-0.09280842542648315,-0.004260932095348835,-0.013714875094592571
1696958335527480600,4.71148046875,-0.09067796170711517,-0.00852186419069767,0.010785484686493874
1696958335537493800,4.72149365234375,-0.09387365728616714,0.0010652330238372087,0.040612008422613144
1696958335547507200,4.731507080078125,-0.09387365728616714,-0.0106523297727108,-0.030758604407310486
1696958335557520600,4.741520751953125,-0.09600412845611572,0.04687025398015976,0.048068638890981674
1696958335567534000,4.7515341796875,-0.09493889659643173,-0.04047885537147522,0.0011983871227130294
1696958335577547500,4.761547607421875,-0.0991998240351677,0.03834838792681694,0.011850717477500439
1696958335587560700,4.771560791015625,-0.0981345921754837,-0.02236989326775074,0.023568280041217804
1696958335597574100,4.78157421875,-0.09600412845611572,0.0063913981430232525,0.020372580736875534
1696958335607587600,4.791587646484375,-0.10026505589485168,-0.01810896210372448,-0.005193010903894901
1696958335617601000,4.80160107421875,-0.09387365728616714,-0.01917419396340847,0.047003407031297684
1696958335627614200,4.8116142578125,-0.10026505589485168,-0.0106523297727108,-0.017975807189941406
1696958335637627600,4.821627685546875,-0.09493889659643173,-0.04580501839518547,0.040612008422613144
1696958335647641000,4.83164111328125,-0.10026505589485168,0.007456631399691105,-0.009453942999243736
1696958335657654500,4.841654541015625,-0.09174319356679916,-0.04154408723115921,0.034220609813928604
1696958335667668000,4.85166796875,-0.0991998240351677,0.0106523297727108,-0.014780107885599136
1696958335677681200,4.86168115234375,-0.09387365728616714,-0.01810896210372448,0.026763979345560074
1696958335687694600,4.871694580078125,-0.09706936031579971,0.01810896210372448,-0.016910573467612267
1696958335697708000,4.8817080078125,-0.09174319356679916,-0.004260932095348835,0.018242115154862404
1696958335707721500,4.891721435546875,-0.09493889659643173,0.02023942768573761,-0.013714875094592571
1696958335717735000,4.90173486328125,-0.09280842542648315,0.0031956990715116262,0.00226362026296556
1696958335727748000,4.911748046875,-0.09387365728616714,0.04473978653550148,-0.012649642303586006
1696958335737761500,4.921761474609375,-0.09280842542648315,-0.0031956990715116262,0.004394086077809334
1696958335747775000,4.93177490234375,-0.09174319356679916,0.02450035884976387,-0.023301972076296806
1696958335757788400,4.941788330078125,-0.08961272984743118,-0.0031956990715116262,0.0011983871227130294
1696958335767801600,4.951801513671875,-0.08961272984743118,0.004260932095348835,-0.017975807189941406
1696958335777815000,4.96181494140625,-0.08854749798774719,-0.009587096981704235,-0.009453942999243736
1696958335787828500,4.971828369140625,-0.08961272984743118,-0.01171756349503994,-0.015845341607928276
1696958335797842000,4.981842041015625,-0.08961272984743118,-0.00852186419069767,-0.007323476951569319
1696958335807855400,4.99185546875,-0.08961272984743118,-0.0213046595454216,-0.026497671380639076
1696958335817868500,5.00186865234375,-0.08535179495811462,-0.0213046595454216,0.018242115154862404
1696958335827882000,5.011882080078125,-0.09174319356679916,-0.012782796286046505,-0.033954303711652756
1696958335837895400,5.0218955078125,-0.09067796170711517,-0.01171756349503994,0.015046416781842709
1696958335847908900,5.031908935546875,-0.08854749798774719,-0.0159784946590662,-0.009453942999243736
1696958335857922300,5.04192236328125,-0.0874822586774826,-0.02982652559876442,0.005459319334477186
1696958335867935500,5.051935546875,-0.09174319356679916,-0.00852186419069767,-0.006258244160562754
1696958335877949000,5.061948974609375,-0.0874822586774826,-0.01810896210372448,0.018242115154862404
1696958335887962400,5.07196240234375,-0.08961272984743118,-0.02343512699007988,-0.004127778112888336
1696958335897975800,5.081975830078125,-0.08641702681779861,-0.04473978653550148,0.037416309118270874
1696958335907989000,5.091989013671875,-0.09174319356679916,0.0031956990715116262,-0.029693370684981346
1696958335918002400,5.10200244140625,-0.08961272984743118,-0.03302222490310669,0.057655736804008484
1696958335928016000,5.112015869140625,-0.08641702681779861,-0.05539211630821228,-0.016910573467612267
1696958335938029300,5.122029296875,-0.08854749798774719,0.0031956990715116262,0.03954677656292915
1696958335948042800,5.132042724609375,-0.08641702681779861,-0.07989247888326645,-0.008388710208237171
1696958335958056000,5.142055908203125,-0.08854749798774719,0.00852186419069767,0.03954677656292915
1696958335968069400,5.1520693359375,-0.08535179495811462,-0.03621792420744896,-0.0030625448562204838
1696958335978082800,5.162082763671875,-0.08535179495811462,-0.01810896210372448,0.019307348877191544
1696958335988096300,5.17209619140625,-0.08428656309843063,-0.01704372838139534,0.011850717477500439
1696958335998109700,5.182109619140625,-0.08854749798774719,0.02769605815410614,-0.001997311832383275
1696958336008123000,5.192122802734375,-0.08215609937906265,-0.007456631399691105,0.022503048181533813
1696958336018136300,5.20213623046875,-0.08215609937906265,0,-0.029693370684981346
1696958336028149800,5.212149658203125,-0.08428656309843063,0.02556559257209301,0.03848154470324516
1696958336038163200,5.2221630859375,-0.0768299326300621,0.0021304660476744175,-0.03928046673536301
1696958336048176600,5.2321767578125,-0.0778951644897461,0.0063913981430232525,0.024633513763546944
1696958336058189800,5.24218994140625,-0.0768299326300621,0.004260932095348835,-0.03288906812667847
1696958336068203300,5.252203369140625,-0.07469946891069412,0.02982652559876442,0.019307348877191544
1696958336078216700,5.262216796875,-0.07256899774074554,-0.01171756349503994,-0.013714875094592571
1696958336088230100,5.272230224609375,-0.06830807030200958,-0.0063913981430232525,-0.015845341607928276
1696958336098243300,5.282243408203125,-0.07150376588106155,0.004260932095348835,0.016111649572849274
1696958336108256800,5.2922568359375,-0.06511236727237701,-0.012782796286046505,-0.021171506494283676
1696958336118270200,5.302270263671875,-0.06830807030200958,-0.0010652330238372087,0.017176883295178413
1696958336128283600,5.31228369140625,-0.06404713541269302,-0.01917419396340847,-0.011584409512579441
1696958336138297000,5.322297119140625,-0.067242830991745,0.0010652330238372087,0.017176883295178413
1696958336148310300,5.332310302734375,-0.06298190355300903,0.02343512699007988,0.00226362026296556
1696958336158323700,5.34232373046875,-0.06404713541269302,-0.02450035884976387,-0.0009320789249613881
1696958336168337200,5.352337158203125,-0.06511236727237701,0.03089175745844841,0.022503048181533813
1696958336178350600,5.3623505859375,-0.060851436108350754,0.0106523297727108,-0.011584409512579441
1696958336188364000,5.372364013671875,-0.06404713541269302,0.03621792420744896,0.026763979345560074
1696958336198377200,5.382377197265625,-0.0555252730846405,0.0053261648863554,0.0001331541279796511
1696958336208390700,5.392390625,-0.05978620424866676,0.02450035884976387,0.004394086077809334
1696958336218404000,5.402404052734375,-0.05232957378029823,0.02876129187643528,0.017176883295178413
1696958336228417500,5.41241748046875,-0.051264338195323944,-0.0063913981430232525,-0.015845341607928276
1696958336238430700,5.4224306640625,-0.051264338195323944,0.04047885537147522,0.019307348877191544
1696958336248444200,5.432444091796875,-0.043807707726955414,-0.01384802907705307,-0.021171506494283676
1696958336258457600,5.44245751953125,-0.044872939586639404,0.02982652559876442,0.017176883295178413
1696958336268471000,5.452470947265625,-0.041677240282297134,-0.02556559257209301,-0.030758604407310486
1696958336278484500,5.462484375,-0.03848154470324516,0.0031956990715116262,0.018242115154862404
1696958336288497700,5.47249755859375,-0.03528584539890289,-0.0159784946590662,-0.012649642303586006
1696958336298511000,5.482510986328125,-0.037416309118270874,-0.0159784946590662,-0.015845341607928276
1696958336308524500,5.492524658203125,-0.03848154470324516,0,0.010785484686493874
1696958336318538000,5.5025380859375,-0.031024912372231483,-0.02769605815410614,-0.014780107885599136
1696958336328551400,5.512551513671875,-0.036351077258586884,0.01704372838139534,0.0011983871227130294
1696958336338564600,5.522564697265625,-0.033155377954244614,-0.02876129187643528,-0.008388710208237171
1696958336348578000,5.532578125,-0.036351077258586884,0.03941362351179123,-0.005193010903894901
1696958336358591500,5.542591552734375,-0.037416309118270874,0.0031956990715116262,-0.0030625448562204838
1696958336368605000,5.55260498046875,-0.036351077258586884,0.0106523297727108,-0.019041040912270546
1696958336378618000,5.5626181640625,-0.034220609813928604,0.02556559257209301,0.013981183059513569
1696958336388631600,5.572631591796875,-0.028894444927573204,-0.04047885537147522,-0.035019535571336746
1696958336398645000,5.58264501953125,-0.036351077258586884,0.03515268862247467,0.027829213067889214
1696958336408658200,5.592658203125,-0.027829213067889214,-0.03834838792681694,-0.03608476743102074
1696958336418671600,5.602671630859375,-0.028894444927573204,-0.0319569893181324,0.005459319334477186
1696958336428684800,5.612684814453125,-0.028894444927573204,-0.00852186419069767,0.011850717477500439
1696958336438698200,5.6226982421875,-0.025698747485876083,-0.04367455467581749,-0.031823836266994476
1696958336448711700,5.632711669921875,-0.028894444927573204,-0.01491326279938221,0.028894444927573204
1696958336458724900,5.642724853515625,-0.023568280041217804,-0.04473978653550148,-0.009453942999243736
1696958336468738300,5.65273828125,-0.03209014609456062,0.02343512699007988,0.004394086077809334
1696958336478751500,5.66275146484375,-0.027829213067889214,-0.00852186419069767,0.026763979345560074
1696958336488765000,5.672764892578125,-0.027829213067889214,-0.0021304660476744175,-0.016910573467612267
1696958336498778000,5.682778076171875,-0.031024912372231483,0.02876129187643528,0.033155377954244614
1696958336508791600,5.69279150390625,-0.022503048181533813,-0.02343512699007988,-0.019041040912270546
1696958336518805000,5.702804931640625,-0.03209014609456062,0.03515268862247467,0.028894444927573204
1696958336528818200,5.712818115234375,-0.021437814459204674,-0.0159784946590662,-0.001997311832383275
1696958336538831600,5.72283154296875,-0.025698747485876083,0.01171756349503994,0.004394086077809334
1696958336548844800,5.7328447265625,-0.026763979345560074,0.03089175745844841,0.008655018173158169
1696958336558858200,5.742858154296875,-0.022503048181533813,-0.01491326279938221,0.006524552125483751
1696958336568871700,5.75287158203125,-0.024633513763546944,0.03408745676279068,0.0033288532868027687
1696958336578884900,5.762884765625,-0.023568280041217804,0.0010652330238372087,-0.009453942999243736
1696958336588898300,5.772898193359375,-0.027829213067889214,0.03834838792681694,0.006524552125483751
1696958336598911500,5.782911376953125,-0.022503048181533813,0.03621792420744896,-0.0030625448562204838
1696958336608925000,5.792925048828125,-0.027829213067889214,-0.0031956990715116262,-0.010519175790250301
1696958336618938000,5.802938232421875,-0.026763979345560074,0.0639139786362648,-0.0030625448562204838
1696958336628951600,5.81295166015625,-0.022503048181533813,-0.004260932095348835,-0.0009320789249613881
1696958336638965000,5.822965087890625,-0.025698747485876083,0.04154408723115921,-0.014780107885599136
1696958336648978200,5.832978271484375,-0.024633513763546944,0,-0.001997311832383275
1696958336658991600,5.84299169921875,-0.022503048181533813,0.01384802907705307,-0.017975807189941406
1696958336669004800,5.8530048828125,-0.019307348877191544,0.00852186419069767,0.011850717477500439
1696958336679018200,5.863018310546875,-0.020372580736875534,-0.007456631399691105,-0.031823836266994476
1696958336689031700,5.87303173828125,-0.022503048181533813,0.04580501839518547,0.025698747485876083
1696958336699044900,5.883044921875,-0.016111649572849274,-0.007456631399691105,-0.025432437658309937
1696958336709058300,5.893058349609375,-0.020372580736875534,0.06284874677658081,0.007589785382151604
1696958336719071500,5.903071533203125,-0.019307348877191544,0.0213046595454216,0.019307348877191544
1696958336729085000,5.9130849609375,-0.017176883295178413,0.04580501839518547,-0.03288906812667847
1696958336739098400,5.923098388671875,-0.018242115154862404,0.08415340632200241,0.061916667968034744
1696958336749111600,5.933111572265625,-0.017176883295178413,0.02450035884976387,-0.052063263952732086
1696958336759125000,5.943125,-0.019307348877191544,0.09480573982000351,0.048068638890981674
1696958336769138400,5.953138427734375,-0.009720250964164734,0.01171756349503994,-0.011584409512579441
1696958336779152000,5.96315185546875,-0.012915950268507004,0.04473978653550148,-0.007323476951569319
1696958336789165300,5.973165283203125,-0.015046416781842709,0.04154408723115921,0.023568280041217804
1696958336799178500,5.983178466796875,-0.005459319334477186,-0.0063913981430232525,-0.017975807189941406
1696958336809192000,5.99319189453125,-0.007589785382151604,0.02343512699007988,0.022503048181533813
1696958336819205400,6.003205322265625,-0.006524552125483751,-0.004260932095348835,-0.012649642303586006
1696958336829218800,6.01321875,-0.005459319334477186,0.012782796286046505,0.017176883295178413
1696958336839232300,6.023232177734375,-0.004394086077809334,0.01171756349503994,0.013981183059513569
1696958336849245400,6.033245361328125,-0.00226362026296556,-0.01171756349503994,-0.011584409512579441
1696958336859259000,6.0432587890625,-0.008655018173158169,0.04367455467581749,0.041677240282297134
1696958336869272300,6.053272216796875,0.001997311832383275,-0.02556559257209301,-0.012649642303586006
1696958336879285800,6.06328564453125,-0.005459319334477186,0.03515268862247467,0.040612008422613144
1696958336889299000,6.073298828125,-0.005459319334477186,0,0.0001331541279796511
1696958336899312400,6.0833125,-0.0001331541279796511,0.01704372838139534,0.022503048181533813
1696958336909325800,6.093325927734375,-0.0033288532868027687,0.01384802907705307,0.029959678649902344
1696958336919339300,6.10333935546875,-0.00226362026296556,-0.0053261648863554,-0.005193010903894901
1696958336929352700,6.113352783203125,-0.0001331541279796511,-0.01384802907705307,0.050199106335639954
1696958336939366000,6.123365966796875,0.0009320789249613881,0.0106523297727108,-0.010519175790250301
1696958336949379300,6.13337939453125,0.0009320789249613881,-0.02343512699007988,0.044872939586639404
1696958336959392800,6.143392822265625,-0.00226362026296556,-0.0031956990715116262,-0.001997311832383275
1696958336969406200,6.15340625,0.005193010903894901,0.007456631399691105,0.027829213067889214
