time,seconds_elapsed,z,y,x
1696965224907227600,0.1502275390625,-0.8494529724121094,0.34960633516311646,0.27154457569122314
1696965224917169700,0.160169677734375,-0.5675191879272461,0.3307041525840759,0.613276481628418
1696965224927147800,0.170147705078125,-0.7397632598876953,-0.14985081553459167,0.07389238476753235
1696965224937162200,0.180162353515625,-1.1339235305786133,0.06455004215240479,-0.059356026351451874
1696965224947211800,0.190211669921875,-0.9906272888183594,0.22884535789489746,0.10430537164211273
1696965224957293000,0.20029296875,-0.04356861114501953,0.49860137701034546,0.5097976326942444
1696965224967402500,0.210402587890625,-0.5798234939575195,-0.25610455870628357,0.11529731750488281
1696965224977535200,0.22053515625,-1.7359790802001953,-0.029716849327087402,-0.03244800865650177
1696965224987685400,0.230685302734375,0.7902307510375977,0.5016246438026428,0.269443154335022
1696965224997846500,0.240846435546875,-1.7204132080078125,0.22979485988616943,-0.014089912176132202
1696965225008013000,0.251012939453125,0.3636322021484375,-0.29552581906318665,0.09643381834030151
1696965225018147800,0.26114794921875,-1.214177131652832,0.3762734532356262,-0.20631426572799683
1696965225028162000,0.271162109375,0.9948902130126953,-0.03305482864379883,0.3345472812652588
1696965225038176300,0.28117626953125,-0.4918966293334961,0.03747814893722534,0.13997028768062592
1696965225048190500,0.2911904296875,-0.3887615203857422,-0.1795218288898468,-0.28908732533454895
1696965225058204700,0.30120458984375,-0.11084747314453125,0.5768120288848877,0.8465406894683838
1696965225068219000,0.311218994140625,1.238429069519043,-0.2554489076137543,0.1356694996356964
1696965225078233300,0.3212333984375,-0.5468530654907227,-0.07857286930084229,0.22403162717819214
1696965225088247600,0.33124755859375,1.366715431213379,-0.19054487347602844,0.23641765117645264
1696965225098261800,0.34126171875,-0.24384307861328125,0.3059347867965698,0.3793042302131653
1696965225108276000,0.35127587890625,1.7742061614990234,0.008677065372467041,0.35873711109161377
1696965225118290200,0.361290283203125,-1.5145740509033203,-0.2470400035381317,-0.15357598662376404
1696965225128304400,0.371304443359375,1.5031471252441406,0.043870508670806885,0.5101774334907532
1696965225138318600,0.381318603515625,0.12410163879394531,-0.1247672438621521,0.18862435221672058
1696965225148332800,0.391332763671875,1.1248321533203125,-0.06089228391647339,-0.0944996327161789
1696965225158347000,0.401346923828125,-0.1871938705444336,0.04734694957733154,-0.048187971115112305
1696965225168361200,0.411361328125,0.2887706756591797,-0.07696694135665894,0.16120123863220215
1696965225178375400,0.42137548828125,1.0220098495483398,-0.08913636207580566,-0.13215371966362
1696965225188389600,0.4313896484375,-1.3792171478271484,-0.3718853294849396,-0.41971755027770996
1696965225198403800,0.44140380859375,0.2201976776123047,0.12612855434417725,0.27784109115600586
1696965225208418000,0.45141796875,0.023229598999023438,0.5849574208259583,-0.6454809904098511
1696965225218432300,0.461432373046875,-0.4214334487915039,-0.896973192691803,-0.6465250253677368
1696965225228446500,0.471446533203125,-0.6872167587280273,0.06904029846191406,-0.5837281942367554
1696965225238460700,0.481460693359375,0.20409107208251953,0.02867269515991211,0.04616069793701172
1696965225248475000,0.491474853515625,0.8272075653076172,0.23665934801101685,0.13080495595932007
1696965225258489000,0.501489013671875,-0.5540370941162109,-0.1265813708305359,-0.1552145779132843
1696965225268503300,0.51150341796875,-0.012166976928710938,0.40943294763565063,-0.08189946413040161
1696965225278517500,0.521517578125,0.40548038482666016,0.22222405672073364,0.2090672254562378
1696965225288531700,0.53153173828125,0.08281326293945312,-0.8437566161155701,-0.10056109726428986
1696965225298546000,0.5415458984375,-0.7681608200073242,-0.09575456380844116,-0.35502558946609497
1696965225308560100,0.55156005859375,0.13967418670654297,0.5511740446090698,0.32606205344200134
1696965225318574600,0.56157470703125,0.3017244338989258,-0.05920279026031494,-0.1231955736875534
1696965225328588800,0.5715888671875,-0.9207525253295898,-0.15915626287460327,-0.05537724494934082
1696965225338603000,0.58160302734375,-0.2967252731323242,-0.23836961388587952,-0.03952997922897339
1696965225348617200,0.5916171875,-0.6105890274047852,0.08754134178161621,0.34545788168907166
1696965225358631400,0.60163134765625,-0.20389652252197266,-0.2049889862537384,0.5262171030044556
1696965225368645600,0.611645751953125,-0.4538869857788086,0.02562737464904785,0.3413049578666687
1696965225378659800,0.621659912109375,-0.5490703582763672,0.1821957230567932,0.6593458652496338
1696965225388674000,0.631674072265625,0.20463085174560547,0.3036566972732544,0.5030613541603088
1696965225398688300,0.641688232421875,-0.8489532470703125,-0.10875493288040161,0.08465424180030823
1696965225408702700,0.65170263671875,-0.7496681213378906,-0.19375047087669373,0.5164574384689331
1696965225418717000,0.661717041015625,-0.11968708038330078,0.2590368390083313,0.8054543733596802
1696965225428731100,0.671731201171875,0.7026023864746094,-0.10065317153930664,0.7680031061172485
1696965225438745300,0.681745361328125,-0.6804323196411133,-0.2045714557170868,0.4014934003353119
1696965225448759800,0.691759765625,0.3868751525878906,0.3716700077056885,1.0153942108154297
1696965225458774000,0.70177392578125,0.9470252990722656,-0.05102747678756714,0.6434350609779358
1696965225468788200,0.711788330078125,-1.5350055694580078,-0.2079181969165802,0.0038841068744659424
1696965225478802400,0.721802490234375,1.5462665557861328,0.15202820301055908,0.9565821886062622
1696965225488817000,0.73181689453125,-0.8131256103515625,-0.3668508231639862,0.20463204383850098
1696965225498831000,0.7418310546875,0.9976692199707031,-0.3254399001598358,0.06493937969207764
1696965225508845300,0.75184521484375,0.09547138214111328,-0.015495896339416504,-0.10596978664398193
1696965225518859500,0.761859619140625,-0.9067506790161133,-0.7462208867073059,0.3391149044036865
1696965225528874000,0.7718740234375,2.417999267578125,0.4606664180755615,0.41276228427886963
1696965225538888200,0.78188818359375,-0.5969104766845703,-0.5638025999069214,-0.3956252932548523
1696965225548902400,0.79190234375,-0.22436141967773438,0.05975586175918579,0.3826756477355957
1696965225558916600,0.80191650390625,0.5543670654296875,0.14371657371520996,0.8948624134063721
1696965225568931000,0.81193115234375,0.5943889617919922,-0.23909810185432434,-0.016879498958587646
1696965225578945300,0.8219453125,-0.9126501083374023,-0.5395992994308472,-0.6806556582450867
1696965225588959500,0.83195947265625,0.0500335693359375,0.7082650065422058,-0.00782465934753418
1696965225598973700,0.8419736328125,0.3194761276245117,-0.14259123802185059,0.43464231491088867
1696965225608988200,0.85198828125,-0.7912788391113281,-0.30451902747154236,-0.514255940914154
1696965225619002400,0.86200244140625,-0.5355863571166992,-0.03230476379394531,-0.4040887653827667
1696965225629016600,0.8720166015625,-0.722905158996582,0.5010021328926086,-0.22503989934921265
1696965225639030800,0.88203076171875,-0.5481748580932617,-0.2985113561153412,-0.22503799200057983
1696965225649045200,0.892045166015625,-0.9533023834228516,-0.4339977502822876,-1.014310598373413
1696965225659059500,0.9020595703125,-0.5679893493652344,0.2383204698562622,-0.47290706634521484
1696965225669073700,0.91207373046875,0.39062976837158203,0.19192802906036377,-0.06343799829483032
1696965225679087900,0.922087890625,-0.4470663070678711,-0.5318737030029297,-0.7342400550842285
1696965225689102300,0.932102294921875,-0.8250646591186523,0.05474269390106201,-0.46966609358787537
1696965225699116500,0.942116455078125,0.4351034164428711,0.02449500560760498,-0.01866328716278076
1696965225709130800,0.952130859375,-0.4649162292480469,0.2604086399078369,-0.027177125215530396
1696965225719145200,0.962145263671875,0.8766393661499023,-0.6295329332351685,0.3676818013191223
1696965225729159400,0.972159423828125,0.11855316162109375,0.32467371225357056,0.07147076725959778
1696965225739174000,0.982173828125,1.022627830505371,0.04586803913116455,0.12116819620132446
1696965225749188000,0.99218798828125,0.80804443359375,-0.1067352294921875,-0.07138249278068542
1696965225759202600,1.00220263671875,0.09795475006103516,-0.3612913191318512,-0.3937382102012634
1696965225769216800,1.012216796875,-0.4242820739746094,-0.04554206132888794,-0.1714421808719635
1696965225779231200,1.022231201171875,1.3914756774902344,-0.18300384283065796,0.3693872094154358
1696965225789245400,1.032245361328125,0.03070354461669922,-0.34774503111839294,-0.03999096155166626
1696965225799260000,1.042260009765625,0.2536497116088867,0.17167586088180542,-0.026113152503967285
1696965225809274000,1.052274169921875,1.0957202911376953,-0.4100649952888489,0.386802613735199
1696965225819288300,1.062288330078125,0.3258705139160156,-0.6723129749298096,-0.1703580617904663
1696965225829302800,1.072302734375,-0.03757667541503906,-0.3823351562023163,-0.14406687021255493
1696965225839317000,1.08231689453125,0.09127330780029297,0.2030646800994873,-0.16644001007080078
1696965225849331500,1.09233154296875,0.2238473892211914,-0.25280192494392395,0.7154847383499146
1696965225859345700,1.102345703125,0.5446834564208984,-0.5374646782875061,0.18930000066757202
1696965225869360000,1.112360107421875,-0.7322759628295898,-0.8469987511634827,-0.23853355646133423
1696965225879374300,1.122374267578125,0.015257835388183594,0.1507556438446045,0.15988200902938843
1696965225889388800,1.132388916015625,-0.17428112030029297,0.012308835983276367,0.193311870098114
1696965225899403000,1.142403076171875,-0.49518299102783203,-0.4510093629360199,-0.13776320219039917
1696965225909417200,1.152417236328125,-0.8226661682128906,-0.1354852318763733,-0.13530755043029785
1696965225919431700,1.162431640625,-0.4450063705444336,0.2964681386947632,-0.06442111730575562
1696965225929446000,1.17244580078125,-0.5642166137695312,-0.3721928298473358,-0.0006000995635986328
1696965225939460400,1.18246044921875,-0.6161613464355469,-0.29916736483573914,-0.5644955635070801
1696965225949474600,1.192474609375,-1.1802597045898438,0.024926960468292236,-0.24143260717391968
1696965225959489000,1.202489013671875,0.5305185317993164,-0.0574985146522522,0.07595252990722656
1696965225969503200,1.212503173828125,-1.6348609924316406,-0.19624114036560059,-0.5073604583740234
1696965225979517700,1.222517578125,-0.21468639373779297,0.13311928510665894,-0.6537770628929138
1696965225989532000,1.232531982421875,-0.24129581451416016,-0.5335622429847717,0.5054408311843872
1696965225999546000,1.242546142578125,0.725346565246582,0.2779722809791565,0.0513339638710022
1696965226009560600,1.252560546875,-1.0909013748168945,-0.44692638516426086,-0.5365680456161499
1696965226019574800,1.26257470703125,0.025681495666503906,0.02645188570022583,-0.01280820369720459
1696965226029589200,1.27258935546875,0.5292491912841797,-0.11761212348937988,0.2485666275024414
1696965226039603500,1.282603515625,-0.8670167922973633,-0.33651408553123474,-0.19089996814727783
1696965226049618000,1.292617919921875,0.5516567230224609,-0.03070080280303955,0.17362356185913086
1696965226059632000,1.302632080078125,-0.3792762756347656,-0.15573745965957642,0.23670470714569092
1696965226069646300,1.312646240234375,0.4176826477050781,0.06789076328277588,0.061350226402282715
1696965226079660500,1.32266064453125,-0.8261137008666992,-0.3897263705730438,-0.39596158266067505
1696965226089675000,1.332675048828125,0.5210113525390625,0.1742168664932251,0.04140794277191162
1696965226099689200,1.342689208984375,-0.25298309326171875,0.029147744178771973,0.0871918797492981
1696965226109703400,1.352703369140625,-0.060459136962890625,-0.21039211750030518,-0.08496958017349243
1696965226119717600,1.362717529296875,-0.8014278411865234,0.38507211208343506,-0.35434889793395996
1696965226129732000,1.372732177734375,-0.034557342529296875,-0.34979918599128723,0.2556834816932678
1696965226139746300,1.382746337890625,-0.8614950180053711,-0.5700856447219849,-0.3392804265022278
1696965226149760500,1.392760498046875,1.037363052368164,0.06823420524597168,-0.24125325679779053
1696965226159774700,1.402774658203125,-0.9151468276977539,-0.2788226902484894,-0.32854002714157104
1696965226169789200,1.4127890625,0.1194467544555664,0.29821717739105225,0.07284975051879883
1696965226179803400,1.422803466796875,1.5216741561889648,-0.17404168844223022,0.3601422905921936
1696965226189817600,1.432817626953125,-0.8006534576416016,-0.6763687133789062,-0.13687396049499512
1696965226199831800,1.442831787109375,0.6131620407104492,-0.07597553730010986,0.4505656361579895
1696965226209846300,1.45284619140625,1.3171329498291016,-0.4730263352394104,-0.02404242753982544
1696965226219860500,1.462860595703125,-0.7233819961547852,-0.4928140938282013,-0.03506755828857422
1696965226229874700,1.472874755859375,1.5891475677490234,-0.40368080139160156,-0.3185577392578125
1696965226239889000,1.482888916015625,-1.1430158615112305,-0.45889782905578613,-0.14745301008224487
1696965226249903400,1.4929033203125,1.4390220642089844,0.09618538618087769,-0.13054150342941284
1696965226259917600,1.50291748046875,-0.2885322570800781,-0.570783793926239,-0.19565021991729736
1696965226269931800,1.512931884765625,-0.4957437515258789,-0.5330935716629028,-0.33085140585899353
1696965226279946000,1.522946044921875,0.6691951751708984,-0.2127530872821808,0.6073930859565735
1696965226289960400,1.53296044921875,-0.22042560577392578,-0.12134629487991333,-0.4383227229118347
1696965226299974700,1.542974609375,-0.7233057022094727,-0.32892557978630066,-0.6518089771270752
1696965226309988900,1.55298876953125,0.8423938751220703,-0.18805739283561707,-0.07106953859329224
1696965226320003000,1.563003173828125,-0.5001869201660156,-0.3728340268135071,-0.20414471626281738
1696965226330017500,1.573017578125,-0.17798805236816406,-0.6459639072418213,-0.7891383767127991
1696965226340031700,1.58303173828125,-0.5381278991699219,0.048390746116638184,-0.03411507606506348
1696965226350046000,1.5930458984375,1.3504915237426758,0.019338905811309814,0.23400038480758667
1696965226360060200,1.60306005859375,-1.1665582656860352,-0.9711697697639465,-0.15606939792633057
1696965226370074600,1.61307470703125,1.8352222442626953,-0.4455064833164215,-0.14785438776016235
1696965226380088800,1.6230888671875,-0.732940673828125,-0.25656309723854065,-0.22647857666015625
1696965226390103000,1.63310302734375,1.2143754959106445,-0.51799476146698,0.27075499296188354
1696965226400117200,1.6431171875,-0.2547006607055664,-0.5494069457054138,-0.24107259511947632
1696965226410131700,1.653131591796875,0.5468616485595703,-0.43714001774787903,-0.25503432750701904
1696965226420146000,1.66314599609375,0.2912712097167969,-0.5551888942718506,0.5316073894500732
1696965226430160100,1.67316015625,0.23729515075683594,-0.2919910252094269,0.3226820230484009
1696965226440174300,1.68317431640625,0.6023750305175781,-0.4772495627403259,0.052331626415252686
1696965226450188800,1.693188720703125,-0.3107633590698242,-0.06614291667938232,-0.1423068642616272
1696965226460203000,1.703203125,-0.018385887145996094,-0.5054057836532593,0.17422223091125488
1696965226470217200,1.71321728515625,-0.05160713195800781,-0.03723573684692383,0.012841761112213135
1696965226480231400,1.7232314453125,-1.0846948623657227,-0.8953084945678711,-0.45303845405578613
1696965226490246000,1.733245849609375,0.5836277008056641,-0.08031737804412842,-0.08487015962600708
1696965226500260000,1.743260009765625,-1.1245994567871094,-0.2862701117992401,0.23738718032836914
1696965226510274600,1.753274658203125,0.6539745330810547,-0.5381305813789368,-0.1995221972465515
1696965226520288800,1.763288818359375,-2.012354850769043,-0.47311824560165405,-0.5456673502922058
1696965226530303200,1.77330322265625,1.0716562271118164,0.20171421766281128,0.036360740661621094
1696965226540317400,1.7833173828125,-0.7349348068237305,-0.6380677819252014,0.020277738571166992
1696965226550332000,1.793331787109375,0.0648050308227539,-0.7340695858001709,-0.5998551845550537
1696965226560346000,1.80334619140625,-0.0071258544921875,-0.22403362393379211,-0.11929374933242798
1696965226570360600,1.813360595703125,-0.392578125,-0.7290343046188354,0.6200038194656372
1696965226580374800,1.823374755859375,1.6535358428955078,-0.25414058566093445,0.45245134830474854
1696965226590389000,1.833388916015625,-0.7761058807373047,-0.6722587943077087,-0.44674503803253174
1696965226600403500,1.843403564453125,1.0194549560546875,-0.42518696188926697,-0.1664997935295105
1696965226610417700,1.853417724609375,-0.5824260711669922,-0.580910325050354,-0.1716340184211731
1696965226620432100,1.86343212890625,0.059173583984375,-0.902204155921936,-0.6313866376876831
1696965226630446300,1.8734462890625,-0.1224212646484375,-0.34481969475746155,-0.4145587086677551
1696965226640460800,1.883460693359375,-0.7361993789672852,-0.4783972203731537,-0.18011361360549927
1696965226650475000,1.89347509765625,1.0977983474731445,-0.19208106398582458,-0.08593958616256714
1696965226660489500,1.903489501953125,-0.7189731597900391,-0.6595644354820251,-0.5823785066604614
1696965226670503700,1.913503662109375,0.20955276489257812,-0.25616076588630676,-0.4202568531036377
1696965226680518000,1.923517822265625,-0.2203502655029297,-0.41439124941825867,0.4024081230163574
1696965226690532400,1.933532470703125,0.8724708557128906,-0.4907752275466919,-0.2703036069869995
1696965226700546600,1.943546630859375,-1.638936996459961,-0.20385149121284485,-0.28973388671875
1696965226710561000,1.95356103515625,0.666956901550293,-0.2181016504764557,-0.2567448019981384
1696965226720575200,1.9635751953125,-1.357295036315918,-0.02770817279815674,0.04675859212875366
1696965226730589700,1.973589599609375,2.229076385498047,-0.39527592062950134,-0.1915721893310547
1696965226740604000,1.98360400390625,-2.6438441276550293,-0.7861316800117493,-0.6950620412826538
1696965226750618400,1.993618408203125,2.346085548400879,0.017540574073791504,-0.009343445301055908
1696965226760632600,2.003632568359375,-1.2977895736694336,0.024132847785949707,0.1485527753829956
1696965226770647000,2.01364697265625,0.8112497329711914,-0.33078140020370483,-0.49987542629241943
1696965226780661200,2.0236611328125,-1.2666282653808594,-0.2770593464374542,-0.220750629901886
1696965226790675500,2.033675537109375,1.0232458114624023,-0.5438266396522522,0.5219801068305969
1696965226800690000,2.04368994140625,-0.4261951446533203,-0.4196060001850128,-0.027420759201049805
1696965226810704100,2.0537041015625,0.7533493041992188,-0.35709908604621887,-0.7020012140274048
1696965226820718600,2.063718505859375,-0.44715213775634766,0.010842084884643555,-0.303239643573761
1696965226830732800,2.07373291015625,0.30420398712158203,-0.23121729493141174,0.4772353172302246
1696965226840747300,2.083747314453125,1.699589729309082,-0.10878419876098633,-0.004678249359130859
1696965226850761500,2.093761474609375,-2.0512681007385254,-0.8054118156433105,-0.8558616042137146
1696965226860776000,2.10377587890625,1.5439529418945312,-0.13514313101768494,0.5942426919937134
1696965226870790100,2.1137900390625,0.1300802230834961,0.3114566206932068,0.18211334943771362
1696965226880804400,2.123804443359375,-0.16109561920166016,-0.5320130586624146,-0.31647077202796936
1696965226890818800,2.13381884765625,-0.1462869644165039,-0.5055893659591675,-0.4391913115978241
1696965226900833000,2.1438330078125,-0.5745716094970703,0.05863368511199951,0.22898495197296143
1696965226910847500,2.153847412109375,2.288926124572754,0.17691707611083984,0.15913116931915283
1696965226920861700,2.16386181640625,-1.8131494522094727,-1.1071951389312744,-0.6981135606765747
1696965226930876200,2.173876220703125,1.4568758010864258,-0.08564269542694092,0.09744364023208618
1696965226940890400,2.183890380859375,-0.47615909576416016,-0.3875446915626526,0.18988120555877686
1696965226950904800,2.19390478515625,0.7705259323120117,-0.4955372214317322,0.019780516624450684
1696965226960919000,2.2039189453125,-0.13486480712890625,-0.6345979571342468,-0.49286970496177673
1696965226970933200,2.213933349609375,0.0038204193115234375,-0.29242002964019775,-0.19634169340133667
1696965226980947700,2.22394775390625,1.1721906661987305,-0.8782527446746826,-0.633741557598114
1696965226990962000,2.2339619140625,-0.8745002746582031,-0.8364779353141785,-0.5364319086074829
1696965227000976400,2.243976318359375,0.17891502380371094,-0.6232606172561646,-0.7282506227493286
1696965227010990600,2.253990478515625,-0.21286678314208984,-0.07350122928619385,-0.152856707572937
1696965227021005000,2.264005126953125,0.9185886383056641,-0.9705779552459717,-0.5406947135925293
1696965227031019300,2.274019287109375,-1.0460176467895508,-0.7610729932785034,-0.7150110006332397
1696965227041033700,2.28403369140625,0.656956672668457,-0.2764652371406555,-0.9083131551742554
1696965227051048000,2.2940478515625,-0.9246921539306641,-0.6966727375984192,-0.3541104197502136
1696965227061062400,2.3040625,0.8971347808837891,-0.7280203104019165,-0.102367103099823
1696965227071076600,2.31407666015625,-0.6188735961914062,-0.04425513744354248,-0.505262553691864
1696965227081090800,2.3240908203125,-0.4631843566894531,-0.5071307420730591,-0.3367653489112854
1696965227091105300,2.334105224609375,0.3595294952392578,-0.3067115247249603,0.5735419988632202
1696965227101119500,2.344119384765625,0.14328575134277344,-0.5972403883934021,0.0905996561050415
1696965227111134000,2.354134033203125,-0.7922573089599609,-0.46164369583129883,-0.1815277338027954
1696965227121148200,2.364148193359375,1.1284637451171875,-0.22606387734413147,-0.026720106601715088
1696965227131162600,2.37416259765625,-1.2567806243896484,-0.38857999444007874,-0.015738606452941895
1696965227141176800,2.3841767578125,0.7284364700317383,-0.5649313926696777,0.07462364435195923
1696965227151191000,2.39419091796875,-0.9062910079956055,-0.6062271595001221,-0.4142654538154602
1696965227161205500,2.40420556640625,-0.06287765502929688,-0.12205073237419128,-0.17256617546081543
1696965227171219700,2.4142197265625,0.638615608215332,-0.5377796292304993,0.06430763006210327
1696965227181234000,2.42423388671875,-0.46601390838623047,-0.7322860956192017,-0.5711522698402405
1696965227191248100,2.434248046875,0.1944293975830078,-0.5155568718910217,-0.059201598167419434
1696965227201262600,2.4442626953125,0.6806840896606445,-0.13002142310142517,0.6043211817741394
1696965227211276800,2.45427685546875,0.5109853744506836,-0.6471149325370789,0.15362894535064697
1696965227221291000,2.464291015625,0.1652975082397461,-0.4687669277191162,-0.14575475454330444
1696965227231305200,2.47430517578125,0.5222988128662109,-0.15302935242652893,-0.1316605806350708
1696965227241319700,2.484319580078125,0.6731128692626953,0.16459131240844727,0.42480212450027466
1696965227251334000,2.494333984375,0.5129261016845703,-0.8596339225769043,-0.2236328125
1696965227261348000,2.50434814453125,-0.6773195266723633,-0.08403626084327698,-0.5639889240264893
1696965227271362300,2.5143623046875,0.6664371490478516,-0.0055550336837768555,0.49681371450424194
1696965227281376800,2.524376708984375,0.15343570709228516,-0.5576131343841553,0.28384560346603394
1696965227291391000,2.534390869140625,0.6392803192138672,-0.48928698897361755,-1.1005723476409912
1696965227301405200,2.5444052734375,-1.2675056457519531,-0.0725255012512207,-1.137819766998291
1696965227311419400,2.55441943359375,1.2815122604370117,0.6254177093505859,0.1102132797241211
1696965227321433900,2.564433837890625,0.5133380889892578,-0.6509846448898315,-0.08399474620819092
1696965227331448000,2.574447998046875,-1.5115118026733398,-0.7519179582595825,-0.23703891038894653
1696965227341462300,2.584462158203125,1.6581268310546875,0.4623403549194336,-0.33676713705062866
1696965227351476500,2.5944765625,-1.5409307479858398,0.028558671474456787,0.4260680079460144
1696965227361491000,2.604490966796875,1.8917970657348633,-0.0791354775428772,0.05488675832748413
1696965227371505200,2.614505126953125,-1.5851716995239258,-0.6397963762283325,-0.5931821465492249
1696965227381519400,2.624519287109375,0.40159034729003906,0.08213818073272705,-0.36202549934387207
1696965227391533600,2.634533447265625,-0.33957958221435547,0.12144094705581665,0.051644742488861084
1696965227401547800,2.6445478515625,-0.12821102142333984,-0.3870728313922882,-0.2957404851913452
1696965227411562200,2.654562255859375,-1.0058441162109375,-0.22481802105903625,-0.6798028945922852
1696965227421576400,2.664576416015625,-0.2670106887817383,0.14735639095306396,-0.37061187624931335
1696965227431590700,2.674590576171875,0.0110015869140625,-0.2084064781665802,-0.112498939037323
1696965227441604900,2.68460498046875,-0.17999935150146484,-0.31835097074508667,-1.2554240226745605
1696965227451619300,2.694619384765625,-1.4201278686523438,0.016267359256744385,-1.1662927865982056
1696965227461633500,2.704633544921875,1.0914525985717773,-0.1150149405002594,0.12064015865325928
1696965227471647700,2.714647705078125,-0.6398048400878906,-0.18508687615394592,-0.2650379538536072
1696965227481662000,2.724661865234375,0.21715354919433594,-0.14774760603904724,-0.28497302532196045
1696965227491676400,2.734676513671875,-0.7570037841796875,0.3805636763572693,0.012328624725341797
1696965227501690600,2.744690673828125,0.9499483108520508,0.30565720796585083,0.4751681089401245
1696965227511704800,2.754704833984375,-0.6571931838989258,0.12590348720550537,-0.07166969776153564
1696965227521719000,2.764718994140625,-0.20606422424316406,0.08154165744781494,-0.07536113262176514
1696965227531733500,2.7747333984375,-0.5967197418212891,0.14700567722320557,0.15530025959014893
1696965227541747700,2.784747802734375,-0.13635826110839844,0.40791529417037964,0.40083450078964233
1696965227551762000,2.794761962890625,-0.5415840148925781,0.29088473320007324,-0.04378992319107056
1696965227561776400,2.8047763671875,-0.9503011703491211,0.23718971014022827,0.040790557861328125
1696965227571790600,2.81479052734375,-0.5650882720947266,0.050342679023742676,0.07608044147491455
1696965227581805000,2.82480517578125,0.10006237030029297,0.6528473496437073,-0.04154747724533081
1696965227591819300,2.8348193359375,-1.1893301010131836,0.07826238870620728,-0.3308855891227722
1696965227601833500,2.84483349609375,-0.8317956924438477,0.306909441947937,0.23840373754501343
1696965227611848000,2.854847900390625,0.6795902252197266,0.14875614643096924,0.40638065338134766
1696965227621862100,2.864862060546875,-1.299586296081543,0.23546499013900757,-0.08613544702529907
1696965227631876600,2.874876708984375,0.13702964782714844,0.31267601251602173,-0.22277525067329407
1696965227641890800,2.884890869140625,-0.2219696044921875,0.3802732825279236,-0.0385059118270874
1696965227651905300,2.8949052734375,0.4568748474121094,0.23621660470962524,0.277996301651001
1696965227661919500,2.90491943359375,0.2258167266845703,-0.06459802389144897,-0.3434871435165405
1696965227671934000,2.914933837890625,-0.4673290252685547,-0.03383368253707886,-0.5242074728012085
1696965227681948200,2.9249482421875,1.529658317565918,0.254097580909729,0.20254448056221008
1696965227691962400,2.93496240234375,-0.5285453796386719,-0.13840875029563904,-0.17651253938674927
1696965227701976800,2.944976806640625,2.208904266357422,0.3732175827026367,-0.08832201361656189
1696965227711992300,2.954992431640625,-0.02378082275390625,-0.32003945112228394,-0.4857925474643707
1696965227722006300,2.96500634765625,0.3346281051635742,0.18590235710144043,-0.048173218965530396
1696965227732020200,2.975020263671875,1.1213760375976562,0.1308254599571228,-0.14765572547912598
1696965227742034400,2.985034423828125,0.6351251602172852,0.1299527883529663,-0.9161773920059204
1696965227752048400,2.99504833984375,-0.7755641937255859,-0.3293406367301941,-0.8836703300476074
1696965227762062300,3.005062255859375,0.9939126968383789,0.624851644039154,-0.25214874744415283
1696965227772076300,3.015076171875,0.20304012298583984,-0.024790465831756592,-0.44504043459892273
1696965227782090500,3.025090576171875,0.39809131622314453,-0.19262751936912537,-1.2009356021881104
1696965227792104700,3.035104736328125,-1.040334701538086,0.2178959846496582,-0.8361347913742065
1696965227802119000,3.045118896484375,0.8783493041992188,0.009171724319458008,-0.3045031428337097
1696965227812133000,3.055133056640625,-0.1460580825805664,-0.05999326705932617,-0.6327477097511292
1696965227822147300,3.065147216796875,0.5754966735839844,-0.4087165594100952,-0.9031628370285034
1696965227832161800,3.075161865234375,-0.19496536254882812,0.1745505928993225,-0.6081380844116211
1696965227842176300,3.08517626953125,1.0668106079101562,-0.2585645020008087,-0.4693688154220581
1696965227852190700,3.095190673828125,0.5383129119873047,-0.16883757710456848,-1.0489521026611328
1696965227862205200,3.105205078125,0.5080480575561523,-0.7610582113265991,-1.1575950384140015
1696965227872220000,3.115219970703125,-0.22364521026611328,-0.42195624113082886,-0.9525488615036011
1696965227882234400,3.125234375,0.9382572174072266,-0.6012002825737,-0.6254514455795288
1696965227892248800,3.135248779296875,0.8832235336303711,-0.41123706102371216,-1.3609695434570312
1696965227902263300,3.14526318359375,0.7995033264160156,-0.7357982993125916,-1.772153615951538
1696965227912278000,3.155278076171875,-0.5295877456665039,-0.5035159587860107,-1.066144347190857
1696965227922292500,3.16529248046875,1.6081266403198242,-0.7372662425041199,-0.703402042388916
1696965227932306700,3.175306640625,1.1408586502075195,-0.37249523401260376,-1.4700913429260254
1696965227942321200,3.185321044921875,0.6031923294067383,-0.61354660987854,-1.5341585874557495
1696965227952335400,3.19533544921875,0.5934877395629883,-0.5659964680671692,-0.34931156039237976
1696965227962349600,3.205349609375,2.455927848815918,-0.1958305537700653,-0.11079895496368408
1696965227972363800,3.21536376953125,2.1582679748535156,-0.532280683517456,-0.7754457592964172
1696965227982378200,3.225378173828125,1.0781965255737305,-0.4753694236278534,-0.49058008193969727
1696965227992392400,3.235392333984375,2.418802261352539,-0.5564303398132324,0.7331957221031189
1696965228002406700,3.24540673828125,3.133866310119629,-0.9053940176963806,0.7062668800354004
1696965228012420900,3.2554208984375,2.2130613327026367,-1.1470247507095337,0.09052711725234985
1696965228022435300,3.265435302734375,2.063852310180664,-1.1930063962936401,0.9620680212974548
1696965228032449500,3.275449462890625,2.2266969680786133,-0.4897056221961975,2.5508999824523926
1696965228042463700,3.285463623046875,2.569718360900879,0.07809293270111084,1.7832036018371582
1696965228052478000,3.29547802734375,1.196432113647461,-0.5088157653808594,1.3634028434753418
1696965228062492400,3.305492431640625,0.6059665679931641,-0.37895551323890686,1.7292585372924805
1696965228072506600,3.315506591796875,0.5238456726074219,-0.36069628596305847,2.082768440246582
1696965228082520800,3.325520751953125,0.10724353790283203,-0.5573737621307373,1.8109419345855713
1696965228092535000,3.33553515625,-0.7144050598144531,-0.006093144416809082,1.3085393905639648
1696965228102549500,3.345549560546875,-1.3084468841552734,0.2840085029602051,1.8514342308044434
1696965228112563700,3.355563720703125,-1.2128314971923828,0.38139116764068604,1.867802381515503
1696965228122578000,3.365577880859375,-3.009158134460449,0.4086238741874695,1.6696534156799316
1696965228132592000,3.375592041015625,-2.187896728515625,-0.01971501111984253,1.8112514019012451
1696965228142606600,3.385606689453125,-3.9530563354492188,0.26493650674819946,1.0661780834197998
1696965228152620800,3.395620849609375,-3.0425233840942383,0.7924433946609497,1.9330475330352783
1696965228162635000,3.405635009765625,-2.2694039344787598,0.7198193669319153,1.6418430805206299
1696965228172649200,3.415649169921875,-3.7243447303771973,0.5911588668823242,1.2276039123535156
1696965228182663700,3.42566357421875,-3.574760913848877,0.6209145188331604,1.2054152488708496
1696965228192678000,3.435677978515625,-3.3735404014587402,0.600542426109314,1.334786295890808
1696965228202692000,3.445692138671875,-2.6671667098999023,0.6590369343757629,0.9347282648086548
1696965228212706800,3.455706787109375,-4.198703289031982,0.8286970257759094,0.36612755060195923
1696965228222721500,3.465721435546875,-3.7858171463012695,0.44898563623428345,0.3865489959716797
1696965228232736000,3.475736083984375,-3.260100841522217,0.8461011648178101,0.41917848587036133
1696965228242750200,3.485750244140625,-4.131078720092773,0.6761098504066467,-0.08721494674682617
1696965228252764400,3.495764404296875,-3.733983039855957,0.30884939432144165,-0.4659188687801361
1696965228262778600,3.505778564453125,-4.193119525909424,0.09669530391693115,-1.0414915084838867
1696965228272793000,3.51579296875,-3.0844225883483887,0.5470432043075562,-1.4878408908843994
1696965228282807300,3.525807373046875,-2.919921875,0.6342474818229675,-2.008310317993164
1696965228292821500,3.535821533203125,-4.031255722045898,0.21956020593643188,-2.783080577850342
1696965228302835700,3.545835693359375,-4.121395111083984,0.2940424680709839,-1.9920992851257324
1696965228312850200,3.55585009765625,-2.309920310974121,0.7503904700279236,-2.1017489433288574
1696965228322864400,3.565864501953125,-4.463918209075928,0.007629871368408203,-2.536271572113037
1696965228332878600,3.575878662109375,-1.3617877960205078,0.20669198036193848,-2.057563543319702
1696965228342892800,3.585892822265625,-2.04286527633667,0.4494438171386719,-2.568493366241455
1696965228352907300,3.5959072265625,-0.3093748092651367,0.47271543741226196,-2.1589431762695312
1696965228362921500,3.60592138671875,-1.4709558486938477,0.23714184761047363,-2.4740896224975586
1696965228372935700,3.615935791015625,-2.5808935165405273,0.25890421867370605,-1.559854507446289
1696965228382950000,3.625949951171875,0.07698345184326172,0.25649505853652954,-0.924270510673523
1696965228392964400,3.63596435546875,-0.12055587768554688,0.07012176513671875,-1.5451469421386719
1696965228402978600,3.645978515625,0.6041030883789062,-0.3512662351131439,-1.1979005336761475
1696965228412992800,3.65599267578125,1.2601299285888672,0.36935955286026,-1.5193718671798706
1696965228423007000,3.666007080078125,1.0834712982177734,-0.17608773708343506,-1.1862564086914062
1696965228433021400,3.676021484375,0.9557094573974609,-0.08727151155471802,-0.7169532179832458
1696965228443035600,3.68603564453125,0.38368701934814453,-0.48022034764289856,-0.3277338147163391
1696965228453049900,3.6960498046875,0.8785982131958008,-0.2444457709789276,-0.2448655217885971
1696965228463064000,3.70606396484375,2.5517492294311523,-0.04144102334976196,-0.22570893168449402
1696965228473078500,3.71607861328125,2.429210662841797,-0.12750467658042908,-0.757195234298706
1696965228483092700,3.7260927734375,0.9029827117919922,-0.3645375669002533,-0.839697003364563
1696965228493107000,3.73610693359375,2.2862138748168945,0.13359284400939941,0.014728426933288574
1696965228503121200,3.74612109375,3.1731910705566406,-0.032674193382263184,0.10196748375892639
1696965228513135600,3.756135498046875,2.175196647644043,-0.5408258438110352,-0.39358100295066833
1696965228523149800,3.76614990234375,2.6806163787841797,-0.1752348244190216,-0.23860163986682892
1696965228533164000,3.7761640625,3.461893081665039,-0.32779017090797424,0.36121252179145813
1696965228543178200,3.78617822265625,3.147188186645508,-0.13637667894363403,-0.4540761709213257
1696965228553192700,3.796192626953125,2.4842491149902344,-0.4310704171657562,-0.7697772979736328
1696965228563207000,3.80620703125,2.817704200744629,-0.3839327096939087,-0.2780892252922058
1696965228573221000,3.81622119140625,4.588135719299316,-0.54726642370224,-0.08005177974700928
1696965228583235300,3.8262353515625,3.339284896850586,-0.24211826920509338,-0.4962131679058075
1696965228593249800,3.836249755859375,2.791187286376953,-0.6691974401473999,-0.3761141896247864
1696965228603264000,3.846263916015625,3.243929862976074,-0.25145596265792847,0.3987521529197693
1696965228613278200,3.8562783203125,3.4797744750976562,-0.44133272767066956,0.528980553150177
1696965228623292400,3.86629248046875,3.2993879318237305,-0.8733556270599365,-0.4556948244571686
1696965228633307000,3.876306884765625,2.3067893981933594,-0.20031961798667908,0.3172387480735779
1696965228643321000,3.886321044921875,3.7832889556884766,-1.3241193294525146,0.6101891994476318
1696965228653335300,3.896335205078125,1.915278434753418,-0.47591567039489746,1.0776971578598022
1696965228663349800,3.906349853515625,4.476845741271973,-0.8758671879768372,0.7723293900489807
1696965228673364000,3.916364013671875,0.08822250366210938,-0.309284508228302,0.8694866895675659
1696965228683378400,3.92637841796875,3.084610939025879,-1.0399701595306396,1.5025570392608643
1696965228693392600,3.936392578125,0.28114891052246094,-0.6506975889205933,1.6436384916305542
1696965228703406800,3.94640673828125,2.5020751953125,-1.0626250505447388,0.8951320648193359
1696965228713421300,3.95642138671875,-1.1606063842773438,-0.6754891872406006,0.753044068813324
1696965228723435500,3.966435546875,1.7668657302856445,-0.7023547887802124,1.3652009963989258
1696965228733450000,3.976449951171875,0.18030643463134766,-0.6053472757339478,1.333935022354126
1696965228743464200,3.986464111328125,-0.22174644470214844,-1.0815343856811523,1.129207968711853
1696965228753478700,3.996478759765625,-0.6897096633911133,-0.6970205307006836,1.3749247789382935
1696965228763492900,4.006492919921875,-0.11011505126953125,-0.7490990161895752,1.919046401977539
1696965228773507300,4.01650732421875,0.2336721420288086,-0.9453331828117371,1.8670934438705444
1696965228783521500,4.026521484375,-0.9482154846191406,-1.007768988609314,1.0506099462509155
1696965228793536000,4.036535888671875,-0.31577301025390625,-0.7367727160453796,1.1664798259735107
1696965228803550200,4.04655029296875,-0.33940696716308594,-0.6372603178024292,2.168853282928467
1696965228813564400,4.056564453125,-0.23372936248779297,-0.8513725399971008,1.5607001781463623
1696965228823579000,4.066578857421875,-0.59747314453125,-0.8875217437744141,1.146421194076538
1696965228833593000,4.076593017578125,-1.414219856262207,-0.6861229538917542,1.0001733303070068
1696965228843607600,4.086607666015625,-0.3079242706298828,-0.7462277412414551,1.8178383111953735
1696965228853621800,4.096621826171875,-1.0821456909179688,-0.6900638341903687,1.0377720594406128
1696965228863636200,4.10663623046875,-1.2384881973266602,-0.9360867142677307,0.4591549038887024
1696965228873650400,4.116650390625,-1.7048301696777344,-0.9681141376495361,0.4865061640739441
1696965228883665000,4.126664794921875,-0.5405311584472656,-0.5724382400512695,0.8139135241508484
1696965228893679000,4.13667919921875,-1.4145431518554688,-0.9695669412612915,0.5382227897644043
1696965228903693300,4.146693359375,-1.2877273559570312,-1.0902085304260254,-0.28222036361694336
1696965228913707800,4.156707763671875,-1.8828001022338867,-0.6806581020355225,-0.5647133588790894
1696965228923722000,4.166721923828125,-1.3768606185913086,-0.8487507104873657,-0.17598718404769897
1696965228933736400,4.176736328125,-0.900700569152832,-0.20492851734161377,-0.7449262738227844
1696965228943750700,4.186750732421875,-2.0981602668762207,-1.2184828519821167,-1.1892139911651611
1696965228953765000,4.19676513671875,-2.3172802925109863,-0.3379088044166565,-1.5142061710357666
1696965228963779300,4.206779296875,-1.2643613815307617,-0.5134161710739136,-0.7461422681808472
1696965228973793800,4.216793701171875,-1.1794357299804688,-0.39725348353385925,-1.7126142978668213
1696965228983808000,4.22680810546875,-2.8100500106811523,-0.40129151940345764,-1.825631022453308
1696965228993822200,4.236822265625,-1.5924139022827148,-0.07791933417320251,-1.0835113525390625
1696965229003836700,4.246836669921875,-0.9270343780517578,0.37609830498695374,-0.2365567684173584
1696965229013851000,4.256850830078125,-0.1823863983154297,0.10446321964263916,-1.2008497714996338
1696965229023865300,4.266865234375,-3.095834255218506,-0.2690637409687042,-1.9227821826934814
1696965229033879600,4.276879638671875,-0.8689441680908203,-0.005443155765533447,-1.226728081703186
1696965229043894000,4.28689404296875,-1.3906679153442383,0.8819563984870911,-0.8314847350120544
1696965229053908200,4.296908203125,-1.2415962219238281,0.26701492071151733,-1.5393459796905518
1696965229063922700,4.306922607421875,-1.3944120407104492,0.11015862226486206,-1.8172390460968018
1696965229073937000,4.31693701171875,-0.6290369033813477,0.33795005083084106,-1.3028297424316406
1696965229083951400,4.326951416015625,-0.7064599990844727,0.20537489652633667,-1.0582950115203857
1696965229093965600,4.336965576171875,-0.23395061492919922,0.46172869205474854,-1.4682891368865967
1696965229103979800,4.346979736328125,-1.2251272201538086,-0.07467013597488403,-1.172288179397583
1696965229113994200,4.356994140625,-0.29254627227783203,0.7401647567749023,-0.7959128618240356
1696965229124008400,4.367008544921875,0.31740570068359375,0.8558363318443298,-0.3558996617794037
1696965229134023000,4.37702294921875,0.3280363082885742,0.4393448829650879,-1.0314581394195557
1696965229144037000,4.387037109375,-0.04369544982910156,0.3264612555503845,-0.6840168237686157
1696965229154051600,4.397051513671875,0.8232898712158203,0.6878266930580139,-0.501295804977417
1696965229164065800,4.407065673828125,0.5604896545410156,0.9771052598953247,-0.2085750699043274
1696965229174080300,4.417080322265625,0.833282470703125,0.6035821437835693,-0.3916979730129242
1696965229184094500,4.427094482421875,-0.3668785095214844,0.5827851295471191,-0.5056059956550598
1696965229194108700,4.437108642578125,1.236313819885254,0.9174525141716003,0.17377418279647827
1696965229204123100,4.447123046875,0.9525089263916016,1.1137020587921143,0.05330103635787964
1696965229214137300,4.457137451171875,1.276036262512207,0.7910518050193787,-0.20879316329956055
1696965229224151800,4.46715185546875,0.39913082122802734,0.7719645500183105,-0.060108840465545654
1696965229234166000,4.477166015625,1.9519319534301758,0.9409362077713013,0.3998192548751831
1696965229244180500,4.487180419921875,0.7336149215698242,0.8246897459030151,0.33336567878723145
1696965229254194700,4.497194580078125,1.2575750350952148,0.16600525379180908,0.3168473243713379
1696965229264209200,4.507209228515625,0.4802103042602539,0.8774101734161377,0.24749219417572021
1696965229274223400,4.517223388671875,1.5255260467529297,0.5840349793434143,0.8521920442581177
1696965229284237800,4.52723779296875,1.2776689529418945,0.8711730241775513,0.5297598242759705
1696965229294252000,4.537251953125,0.6956195831298828,-0.03081148862838745,0.4731597900390625
1696965229304266200,4.547266357421875,0.7839126586914062,0.27978450059890747,0.22169935703277588
1696965229314280700,4.55728076171875,0.3702964782714844,0.402972936630249,0.8729913234710693
1696965229324295000,4.567294921875,1.3531923294067383,0.3350778818130493,0.5519214868545532
1696965229334309400,4.577309326171875,-0.7682561874389648,-0.6201660633087158,0.07237327098846436
1696965229344323600,4.587323486328125,0.7429008483886719,-0.129034161567688,0.012978971004486084
1696965229354338000,4.597338134765625,-0.7173824310302734,-0.18012267351150513,0.642134428024292
1696965229364352300,4.607352294921875,1.8885316848754883,-0.012213945388793945,0.39524340629577637
1696965229374366700,4.61736669921875,-0.6022605895996094,-0.29300206899642944,0.17080581188201904
1696965229384381000,4.627380859375,0.674891471862793,-0.10065525770187378,0.4305127263069153
1696965229394395100,4.63739501953125,0.4479637145996094,0.06638526916503906,1.1491003036499023
1696965229404409600,4.64740966796875,0.5562801361083984,-0.7226969003677368,0.5495748519897461
1696965229414423800,4.657423828125,-0.26844310760498047,-0.6526802778244019,-0.2194197177886963
1696965229424438300,4.667438232421875,0.5676126480102539,-0.12963366508483887,0.14614540338516235
1696965229434452500,4.677452392578125,0.011432647705078125,-0.12275451421737671,0.5406408309936523
1696965229444466700,4.687466796875,0.6134538650512695,-0.5132877826690674,0.09447038173675537
1696965229454481000,4.69748095703125,-0.7459888458251953,-0.37162622809410095,-0.151927649974823
1696965229464495400,4.707495361328125,0.4979743957519531,-0.08735114336013794,0.26361072063446045
1696965229474509600,4.717509521484375,-0.4019603729248047,-0.011338472366333008,0.2953323721885681
1696965229484523800,4.727523681640625,0.45896244049072266,-0.40373948216438293,-0.19800281524658203
1696965229494538000,4.7375380859375,-1.000335693359375,-0.27379223704338074,-0.5768875479698181
1696965229504552400,4.747552490234375,-0.26192760467529297,-0.1836479902267456,-0.10048466920852661
1696965229514566700,4.757566650390625,-0.008040428161621094,-0.2958618104457855,0.2615469694137573
1696965229524580900,4.767580810546875,-0.49074268341064453,-0.7659907341003418,-0.41470685601234436
1696965229534595000,4.777594970703125,-1.2637615203857422,0.012285351753234863,-0.6064134836196899
1696965229544609500,4.787609619140625,0.11601734161376953,-0.16877418756484985,0.19825953245162964
1696965229554623700,4.797623779296875,-0.6104307174682617,0.11382895708084106,-0.3220946192741394
1696965229564638000,4.807637939453125,-0.5609712600708008,-0.73189377784729,-0.2186402678489685
1696965229574652200,4.817652099609375,-0.8269033432006836,0.07274115085601807,-0.5900533199310303
1696965229584666600,4.82766650390625,0.016585350036621094,-0.10528606176376343,0.115273118019104
1696965229594680800,4.837680908203125,0.3275909423828125,-0.16832131147384644,-0.3005543351173401
1696965229604695000,4.847695068359375,-1.6655759811401367,-0.4278603196144104,-0.54352205991745
1696965229614709200,4.857709228515625,0.3420686721801758,1.0700316429138184,0.26878035068511963
1696965229624723500,4.867723388671875,0.47530555725097656,-0.9617149829864502,0.42963194847106934
1696965229634738000,4.877738037109375,-0.44297218322753906,-0.08229851722717285,0.14255690574645996
1696965229644752100,4.887752197265625,-0.2887258529663086,-0.11845862865447998,0.04194486141204834
1696965229654766300,4.897766357421875,0.03315258026123047,0.5227158665657043,0.5350792407989502
1696965229664780500,4.907780517578125,1.3760051727294922,-0.4518272876739502,0.36906903982162476
1696965229674795000,4.917794921875,-1.571000099182129,-0.3148880898952484,-0.08204299211502075
1696965229684809200,4.927809326171875,0.039379119873046875,0.5138679146766663,0.433258056640625
1696965229694823400,4.937823486328125,-0.05584144592285156,0.25532108545303345,0.4588857889175415
1696965229704837600,4.947837646484375,0.24054908752441406,-0.6263059377670288,-0.02741628885269165
1696965229714852000,4.95785205078125,-1.8100175857543945,-0.41705062985420227,-0.12314039468765259
1696965229724866300,4.9678662109375,0.4414863586425781,0.4935759902000427,0.35189467668533325
1696965229734880500,4.977880615234375,-0.24255752563476562,0.1542302966117859,0.45868390798568726
1696965229744894700,4.987894775390625,0.2889871597290039,-0.38360121846199036,-0.14845377206802368
1696965229754909200,4.9979091796875,-1.7041454315185547,-0.0697406530380249,-0.08408313989639282
1696965229764923400,5.00792333984375,1.1159849166870117,0.2902648448944092,0.8476090431213379
1696965229774937900,5.017937744140625,0.4061555862426758,-0.14329200983047485,0.448424756526947
1696965229784952000,5.0279521484375,-0.5549612045288086,-0.412737101316452,-0.010470032691955566
1696965229794966500,5.037966552734375,0.18793773651123047,0.3303656578063965,0.7814877033233643
1696965229804980700,5.047980712890625,1.3205909729003906,0.2399795651435852,0.633429229259491
1696965229814995200,5.0579951171875,-0.3073854446411133,-0.15001016855239868,0.21616274118423462
1696965229825009400,5.068009521484375,0.24789905548095703,-0.43851974606513977,-0.0708581805229187
1696965229835023600,5.078023681640625,-0.47871875762939453,0.300711452960968,0.4812701940536499
1696965229845038000,5.0880380859375,1.3008975982666016,0.07134175300598145,0.5049121975898743
1696965229855052300,5.09805224609375,0.15997600555419922,-0.26528728008270264,-0.24617165327072144
1696965229865066800,5.108066650390625,-0.37033653259277344,-0.4442512094974518,0.13756459951400757
1696965229875081000,5.1180810546875,0.6395120620727539,0.27945154905319214,0.4353242516517639
1696965229885095400,5.128095458984375,0.9536628723144531,0.0029408931732177734,0.05125880241394043
1696965229895109600,5.138109619140625,0.32059192657470703,-0.4016675651073456,0.13865721225738525
1696965229905124000,5.1481240234375,0.11501121520996094,0.2404158115386963,0.11462312936782837
1696965229915138300,5.15813818359375,1.1951732635498047,0.06828683614730835,0.3193078637123108
