time,seconds_elapsed,z,y,x
1696965224907227600,0.1502275390625,-0.10559122264385223,-0.0063913981430232525,-0.004127778112888336
1696965224917169700,0.160169677734375,-0.11091738939285278,0,0.0011983871227130294
1696965224927147800,0.170147705078125,-0.11091738939285278,-0.01491326279938221,0.005459319334477186
1696965224937162200,0.180162353515625,-0.1087869256734848,0.0010652330238372087,0.004394086077809334
1696965224947211800,0.190211669921875,-0.10452599078416824,-0.01384802907705307,0.0001331541279796511
1696965224957293000,0.20029296875,-0.10772168636322021,-0.0426093190908432,0.010785484686493874
1696965224967402500,0.210402587890625,-0.10985215753316879,0.0053261648863554,0.00226362026296556
1696965224977535200,0.22053515625,-0.10133028775453568,-0.06604444980621338,0.004394086077809334
1696965224987685400,0.230685302734375,-0.10772168636322021,0.00852186419069767,-0.005193010903894901
1696965224997846500,0.240846435546875,-0.10772168636322021,-0.02343512699007988,0.0011983871227130294
1696965225008013000,0.251012939453125,-0.10665645450353622,-0.0010652330238372087,-0.007323476951569319
1696965225018147800,0.26114794921875,-0.10452599078416824,-0.02343512699007988,-0.009453942999243736
1696965225028162000,0.271162109375,-0.1087869256734848,0.0031956990715116262,-0.013714875094592571
1696965225038176300,0.28117626953125,-0.10985215753316879,-0.0213046595454216,-0.006258244160562754
1696965225048190500,0.2911904296875,-0.10665645450353622,-0.0159784946590662,-0.006258244160562754
1696965225058204700,0.30120458984375,-0.10452599078416824,-0.0852186381816864,0.0033288532868027687
1696965225068219000,0.311218994140625,-0.11624355614185333,0.02876129187643528,-0.010519175790250301
1696965225078233300,0.3212333984375,-0.10985215753316879,0.004260932095348835,-0.016910573467612267
1696965225088247600,0.33124755859375,-0.10772168636322021,0.012782796286046505,-0.010519175790250301
1696965225098261800,0.34126171875,-0.11411308497190475,-0.02450035884976387,0.0011983871227130294
1696965225108276000,0.35127587890625,-0.11198262125253677,0.0063913981430232525,-0.004127778112888336
1696965225118290200,0.361290283203125,-0.1087869256734848,-0.007456631399691105,0.0011983871227130294
1696965225128304400,0.371304443359375,-0.11091738939285278,-0.00852186419069767,-0.004127778112888336
1696965225138318600,0.381318603515625,-0.11730878800153732,0.04580501839518547,-0.0030625448562204838
1696965225148332800,0.391332763671875,-0.10985215753316879,0.007456631399691105,-0.0009320789249613881
1696965225158347000,0.401346923828125,-0.10772168636322021,0.0106523297727108,0.00226362026296556
1696965225168361200,0.411361328125,-0.10985215753316879,-0.07137060910463333,0.016111649572849274
1696965225178375400,0.42137548828125,-0.11517832428216934,0.04047885537147522,-0.0009320789249613881
1696965225188389600,0.4313896484375,-0.10452599078416824,-0.02556559257209301,0.00226362026296556
1696965225198403800,0.44140380859375,-0.10665645450353622,-0.04900071769952774,0.013981183059513569
1696965225208418000,0.45141796875,-0.11411308497190475,-0.0159784946590662,0.0011983871227130294
1696965225218432300,0.461432373046875,-0.10133028775453568,0.012782796286046505,-0.0030625448562204838
1696965225228446500,0.471446533203125,-0.0981345921754837,-0.04793548583984375,-0.001997311832383275
1696965225238460700,0.481460693359375,-0.10452599078416824,-0.06924014538526535,0.010785484686493874
1696965225248475000,0.491474853515625,-0.10239552706480026,-0.08841434121131897,0.018242115154862404
1696965225258489000,0.501489013671875,-0.10026505589485168,-0.07563154399394989,0.017176883295178413
1696965225268503300,0.51150341796875,-0.10239552706480026,-0.05858781561255455,0.007589785382151604
1696965225278517500,0.521517578125,-0.10452599078416824,-0.02236989326775074,0.0001331541279796511
1696965225288531700,0.53153173828125,-0.10452599078416824,-0.0106523297727108,0.008655018173158169
1696965225298546000,0.5415458984375,-0.10239552706480026,-0.03834838792681694,0.010785484686493874
1696965225308560100,0.55156005859375,-0.10452599078416824,-0.07669677585363388,0.026763979345560074
1696965225318574600,0.56157470703125,-0.1087869256734848,-0.06924014538526535,0.027829213067889214
1696965225328588800,0.5715888671875,-0.10452599078416824,-0.05858781561255455,0.021437814459204674
1696965225338603000,0.58160302734375,-0.10239552706480026,-0.04793548583984375,0.020372580736875534
1696965225348617200,0.5916171875,-0.10985215753316879,-0.06924014538526535,0.026763979345560074
1696965225358631400,0.60163134765625,-0.1087869256734848,-0.06710968166589737,0.037416309118270874
1696965225368645600,0.611645751953125,-0.10985215753316879,-0.07030537724494934,0.033155377954244614
1696965225378659800,0.621659912109375,-0.11517832428216934,-0.0639139786362648,0.026763979345560074
1696965225388674000,0.631674072265625,-0.11730878800153732,-0.04580501839518547,0.021437814459204674
1696965225398688300,0.641688232421875,-0.11730878800153732,-0.009587096981704235,0.018242115154862404
1696965225408702700,0.65170263671875,-0.11411308497190475,-0.05858781561255455,0.016111649572849274
1696965225418717000,0.661717041015625,-0.12263495475053787,-0.05113118514418602,0.023568280041217804
1696965225428731100,0.671731201171875,-0.12583065032958984,-0.01810896210372448,0.015046416781842709
1696965225438745300,0.681745361328125,-0.12370018661022186,-0.0159784946590662,0.012915950268507004
1696965225448759800,0.691759765625,-0.12476541846990585,-0.03302222490310669,0.018242115154862404
1696965225458774000,0.70177392578125,-0.13328728079795837,0.012782796286046505,0.012915950268507004
1696965225468788200,0.711788330078125,-0.1290263533592224,0.0159784946590662,0.013981183059513569
1696965225478802400,0.721802490234375,-0.12583065032958984,-0.01491326279938221,0.012915950268507004
1696965225488817000,0.73181689453125,-0.13541774451732635,0.02343512699007988,0.015046416781842709
1696965225498831000,0.7418310546875,-0.13222205638885498,-0.007456631399691105,0.010785484686493874
1696965225508845300,0.75184521484375,-0.1300915777683258,0.03941362351179123,0.010785484686493874
1696965225518859500,0.761859619140625,-0.12796111404895782,-0.06178351491689682,0.029959678649902344
1696965225528874000,0.7718740234375,-0.13754820823669434,-0.02982652559876442,0.028894444927573204
1696965225538888200,0.78188818359375,-0.1311568170785904,0.04473978653550148,0.016111649572849274
1696965225548902400,0.79190234375,-0.1205044835805893,-0.07882724702358246,0.026763979345560074
1696965225558916600,0.80191650390625,-0.13648298382759094,-0.03728315606713295,0.044872939586639404
1696965225568931000,0.81193115234375,-0.13861344754695892,0.0213046595454216,0.020372580736875534
1696965225578945300,0.8219453125,-0.1290263533592224,0.06710968166589737,0.0033288532868027687
1696965225588959500,0.83195947265625,-0.12689588963985443,-0.03728315606713295,0.023568280041217804
1696965225598973700,0.8419736328125,-0.13328728079795837,-0.03302222490310669,0.040612008422613144
1696965225608988200,0.85198828125,-0.1311568170785904,-0.02982652559876442,0.022503048181533813
1696965225619002400,0.86200244140625,-0.12689588963985443,0.03621792420744896,0.006524552125483751
1696965225629016600,0.8720166015625,-0.12476541846990585,-0.01917419396340847,0.012915950268507004
1696965225639030800,0.88203076171875,-0.1290263533592224,-0.03728315606713295,0.024633513763546944
1696965225649045200,0.892045166015625,-0.12476541846990585,-0.02343512699007988,0.011850717477500439
1696965225659059500,0.9020595703125,-0.1194392517209053,-0.01704372838139534,-0.001997311832383275
1696965225669073700,0.91207373046875,-0.12370018661022186,-0.0426093190908432,0.004394086077809334
1696965225679087900,0.922087890625,-0.12476541846990585,-0.04793548583984375,0.011850717477500439
1696965225689102300,0.932102294921875,-0.11837401986122131,-0.10119713842868805,0.015046416781842709
1696965225699116500,0.942116455078125,-0.12263495475053787,-0.0532616525888443,0.006524552125483751
1696965225709130800,0.952130859375,-0.12370018661022186,-0.05006595328450203,0.0011983871227130294
1696965225719145200,0.962145263671875,-0.12370018661022186,-0.04473978653550148,0.004394086077809334
1696965225729159400,0.972159423828125,-0.12583065032958984,-0.04154408723115921,-0.001997311832383275
1696965225739174000,0.982173828125,-0.12796111404895782,-0.02663082629442215,-0.001997311832383275
1696965225749188000,0.99218798828125,-0.1290263533592224,-0.02663082629442215,-0.001997311832383275
1696965225759202600,1.00220263671875,-0.12583065032958984,-0.01704372838139534,-0.009453942999243736
1696965225769216800,1.012216796875,-0.12263495475053787,-0.05645735189318657,0.0033288532868027687
1696965225779231200,1.022231201171875,-0.12689588963985443,-0.02450035884976387,-0.001997311832383275
1696965225789245400,1.032245361328125,-0.12583065032958984,-0.03515268862247467,0.0001331541279796511
1696965225799260000,1.042260009765625,-0.1205044835805893,-0.06497921794652939,0.004394086077809334
1696965225809274000,1.052274169921875,-0.12476541846990585,-0.05752258375287056,0.007589785382151604
1696965225819288300,1.062288330078125,-0.1290263533592224,0.007456631399691105,0.0001331541279796511
1696965225829302800,1.072302734375,-0.1205044835805893,-0.04793548583984375,0.006524552125483751
1696965225839317000,1.08231689453125,-0.1194392517209053,-0.05752258375287056,0.012915950268507004
1696965225849331500,1.09233154296875,-0.12156971544027328,-0.07989247888326645,0.025698747485876083
1696965225859345700,1.102345703125,-0.12583065032958984,-0.03089175745844841,0.017176883295178413
1696965225869360000,1.112360107421875,-0.1205044835805893,0.0021304660476744175,0.007589785382151604
1696965225879374300,1.122374267578125,-0.1205044835805893,-0.03408745676279068,0.015046416781842709
1696965225889388800,1.132388916015625,-0.12796111404895782,-0.04047885537147522,0.03528584539890289
1696965225899403000,1.142403076171875,-0.1194392517209053,-0.02663082629442215,0.021437814459204674
1696965225909417200,1.152417236328125,-0.11837401986122131,-0.04473978653550148,0.012915950268507004
1696965225919431700,1.162431640625,-0.12583065032958984,0.02343512699007988,0.006524552125483751
1696965225929446000,1.17244580078125,-0.11730878800153732,-0.04154408723115921,0.006524552125483751
1696965225939460400,1.18246044921875,-0.1205044835805893,0.0031956990715116262,0.008655018173158169
1696965225949474600,1.192474609375,-0.11411308497190475,-0.05752258375287056,0.008655018173158169
1696965225959489000,1.202489013671875,-0.11624355614185333,-0.03834838792681694,0.008655018173158169
1696965225969503200,1.212503173828125,-0.1205044835805893,-0.04154408723115921,0.008655018173158169
1696965225979517700,1.222517578125,-0.10665645450353622,-0.04367455467581749,-0.005193010903894901
1696965225989532000,1.232531982421875,-0.11091738939285278,-0.01491326279938221,-0.0009320789249613881
1696965225999546000,1.242546142578125,-0.12156971544027328,-0.0426093190908432,-0.0009320789249613881
1696965226009560600,1.252560546875,-0.11411308497190475,0.00852186419069767,-0.001997311832383275
1696965226019574800,1.26257470703125,-0.10772168636322021,-0.09054480493068695,0.0011983871227130294
1696965226029589200,1.27258935546875,-0.1205044835805893,-0.009587096981704235,0.006524552125483751
1696965226039603500,1.282603515625,-0.11411308497190475,-0.05965305119752884,0.006524552125483751
1696965226049618000,1.292617919921875,-0.11198262125253677,-0.03834838792681694,0.004394086077809334
1696965226059632000,1.302632080078125,-0.11837401986122131,-0.02982652559876442,0.010785484686493874
1696965226069646300,1.312646240234375,-0.1194392517209053,-0.03302222490310669,0.0033288532868027687
1696965226079660500,1.32266064453125,-0.11624355614185333,-0.01384802907705307,0.0011983871227130294
1696965226089675000,1.332675048828125,-0.11198262125253677,-0.03941362351179123,-0.006258244160562754
1696965226099689200,1.342689208984375,-0.1194392517209053,-0.02343512699007988,0.004394086077809334
1696965226109703400,1.352703369140625,-0.11624355614185333,-0.06071828305721283,0.009720250964164734
1696965226119717600,1.362717529296875,-0.11091738939285278,-0.04687025398015976,-0.001997311832383275
1696965226129732000,1.372732177734375,-0.11517832428216934,-0.0213046595454216,-0.009453942999243736
1696965226139746300,1.382746337890625,-0.11624355614185333,-0.04367455467581749,-0.012649642303586006
1696965226149760500,1.392760498046875,-0.11304785311222076,-0.004260932095348835,-0.023301972076296806
1696965226159774700,1.402774658203125,-0.11091738939285278,-0.04367455467581749,-0.012649642303586006
1696965226169789200,1.4127890625,-0.11198262125253677,-0.11078423261642456,-0.001997311832383275
1696965226179803400,1.422803466796875,-0.11624355614185333,-0.0319569893181324,-0.014780107885599136
1696965226189817600,1.432817626953125,-0.11198262125253677,-0.05432688444852829,-0.012649642303586006
1696965226199831800,1.442831787109375,-0.11517832428216934,-0.0426093190908432,-0.016910573467612267
1696965226209846300,1.45284619140625,-0.1205044835805893,0.03515268862247467,-0.027562905102968216
1696965226219860500,1.462860595703125,-0.11730878800153732,-0.02556559257209301,-0.013714875094592571
1696965226229874700,1.472874755859375,-0.11411308497190475,-0.03941362351179123,-0.007323476951569319
1696965226239889000,1.482888916015625,-0.12156971544027328,-0.03302222490310669,0.00226362026296556
1696965226249903400,1.4929033203125,-0.11837401986122131,-0.04047885537147522,-0.007323476951569319
1696965226259917600,1.50291748046875,-0.11730878800153732,-0.0021304660476744175,-0.005193010903894901
1696965226269931800,1.512931884765625,-0.10985215753316879,-0.04154408723115921,-0.011584409512579441
1696965226279946000,1.522946044921875,-0.1205044835805893,-0.07137060910463333,0.013981183059513569
1696965226289960400,1.53296044921875,-0.12156971544027328,-0.0031956990715116262,-0.0030625448562204838
1696965226299974700,1.542974609375,-0.1087869256734848,-0.03089175745844841,-0.016910573467612267
1696965226309988900,1.55298876953125,-0.11198262125253677,-0.0021304660476744175,-0.013714875094592571
1696965226320003000,1.563003173828125,-0.11730878800153732,-0.05965305119752884,-0.0030625448562204838
1696965226330017500,1.573017578125,-0.10985215753316879,-0.01704372838139534,-0.011584409512579441
1696965226340031700,1.58303173828125,-0.10346075892448425,-0.07776200771331787,-0.006258244160562754
1696965226350046000,1.5930458984375,-0.11198262125253677,-0.0426093190908432,-0.005193010903894901
1696965226360060200,1.60306005859375,-0.11304785311222076,-0.03834838792681694,-0.004127778112888336
1696965226370074600,1.61307470703125,-0.10772168636322021,-0.03089175745844841,-0.012649642303586006
1696965226380088800,1.6230888671875,-0.11091738939285278,0.0063913981430232525,-0.011584409512579441
1696965226390103000,1.63310302734375,-0.11091738939285278,-0.04900071769952774,0.005459319334477186
1696965226400117200,1.6431171875,-0.11304785311222076,-0.01491326279938221,0.006524552125483751
1696965226410131700,1.653131591796875,-0.10559122264385223,-0.01917419396340847,0.0001331541279796511
1696965226420146000,1.66314599609375,-0.1087869256734848,-0.012782796286046505,0.010785484686493874
1696965226430160100,1.67316015625,-0.11730878800153732,-0.01704372838139534,0.013981183059513569
1696965226440174300,1.68317431640625,-0.11304785311222076,0.02343512699007988,0.006524552125483751
1696965226450188800,1.693188720703125,-0.10772168636322021,0.0021304660476744175,0.006524552125483751
1696965226460203000,1.703203125,-0.11517832428216934,0.0063913981430232525,0.008655018173158169
1696965226470217200,1.71321728515625,-0.11411308497190475,0.00852186419069767,0.008655018173158169
1696965226480231400,1.7232314453125,-0.10559122264385223,0.0021304660476744175,0.004394086077809334
1696965226490246000,1.733245849609375,-0.1087869256734848,0.02876129187643528,-0.007323476951569319
1696965226500260000,1.743260009765625,-0.11091738939285278,-0.02876129187643528,0.009720250964164734
1696965226510274600,1.753274658203125,-0.11091738939285278,-0.02876129187643528,0.004394086077809334
1696965226520288800,1.763288818359375,-0.10772168636322021,-0.0031956990715116262,-0.006258244160562754
1696965226530303200,1.77330322265625,-0.10559122264385223,-0.02982652559876442,-0.011584409512579441
1696965226540317400,1.7833173828125,-0.11091738939285278,-0.02343512699007988,-0.004127778112888336
1696965226550332000,1.793331787109375,-0.10772168636322021,-0.01491326279938221,-0.010519175790250301
1696965226560346000,1.80334619140625,-0.10559122264385223,0.0010652330238372087,-0.015845341607928276
1696965226570360600,1.813360595703125,-0.10985215753316879,-0.0532616525888443,0.006524552125483751
1696965226580374800,1.823374755859375,-0.11730878800153732,-0.02876129187643528,0.0011983871227130294
1696965226590389000,1.833388916015625,-0.11411308497190475,0.03089175745844841,-0.004127778112888336
1696965226600403500,1.843403564453125,-0.11091738939285278,0.007456631399691105,-0.010519175790250301
1696965226610417700,1.853417724609375,-0.1205044835805893,0.02769605815410614,0.0011983871227130294
1696965226620432100,1.86343212890625,-0.11624355614185333,0.007456631399691105,-0.001997311832383275
1696965226630446300,1.8734462890625,-0.11091738939285278,0.03089175745844841,-0.004127778112888336
1696965226640460800,1.883460693359375,-0.11198262125253677,-0.02023942768573761,0.013981183059513569
1696965226650475000,1.89347509765625,-0.11624355614185333,-0.02876129187643528,0.015046416781842709
1696965226660489500,1.903489501953125,-0.11517832428216934,0.02769605815410614,0.008655018173158169
1696965226670503700,1.913503662109375,-0.10239552706480026,-0.03728315606713295,-0.001997311832383275
1696965226680518000,1.923517822265625,-0.10985215753316879,0.0010652330238372087,0.017176883295178413
1696965226690532400,1.933532470703125,-0.1087869256734848,-0.04154408723115921,0.017176883295178413
1696965226700546600,1.943546630859375,-0.1087869256734848,0.02343512699007988,0.009720250964164734
1696965226710561000,1.95356103515625,-0.0991998240351677,-0.02556559257209301,0.004394086077809334
1696965226720575200,1.9635751953125,-0.10665645450353622,0.012782796286046505,0.007589785382151604
1696965226730589700,1.973589599609375,-0.10239552706480026,-0.004260932095348835,0.0011983871227130294
1696965226740604000,1.98360400390625,-0.10133028775453568,0.0010652330238372087,0.015046416781842709
1696965226750618400,1.993618408203125,-0.09706936031579971,-0.04900071769952774,0.005459319334477186
1696965226760632600,2.003632568359375,-0.10772168636322021,-0.0010652330238372087,0.022503048181533813
1696965226770647000,2.01364697265625,-0.0991998240351677,-0.04900071769952774,0.015046416781842709
1696965226780661200,2.0236611328125,-0.0981345921754837,0.04367455467581749,-0.001997311832383275
1696965226790675500,2.033675537109375,-0.0991998240351677,-0.02663082629442215,0.006524552125483751
1696965226800690000,2.04368994140625,-0.11091738939285278,0.007456631399691105,0.018242115154862404
1696965226810704100,2.0537041015625,-0.10239552706480026,0.0159784946590662,0.009720250964164734
1696965226820718600,2.063718505859375,-0.0981345921754837,0.03834838792681694,0.0033288532868027687
1696965226830732800,2.07373291015625,-0.10239552706480026,-0.08415340632200241,0.031024912372231483
1696965226840747300,2.083747314453125,-0.11091738939285278,0.012782796286046505,0.020372580736875534
1696965226850761500,2.093761474609375,-0.09706936031579971,0.0159784946590662,0.005459319334477186
1696965226860776000,2.10377587890625,-0.10026505589485168,0.007456631399691105,0.005459319334477186
1696965226870790100,2.1137900390625,-0.1087869256734848,0.0010652330238372087,0.016111649572849274
1696965226880804400,2.123804443359375,-0.10559122264385223,-0.02556559257209301,0.022503048181533813
1696965226890818800,2.13381884765625,-0.10026505589485168,0.03941362351179123,-0.006258244160562754
1696965226900833000,2.1438330078125,-0.10346075892448425,-0.0213046595454216,0.00226362026296556
1696965226910847500,2.153847412109375,-0.10772168636322021,0.0213046595454216,0.0001331541279796511
1696965226920861700,2.16386181640625,-0.10346075892448425,0.01171756349503994,0.0001331541279796511
1696965226930876200,2.173876220703125,-0.0991998240351677,0.0010652330238372087,-0.012649642303586006
1696965226940890400,2.183890380859375,-0.10772168636322021,-0.0319569893181324,0.012915950268507004
1696965226950904800,2.19390478515625,-0.10985215753316879,0.01810896210372448,-0.005193010903894901
1696965226960919000,2.2039189453125,-0.10346075892448425,0.06710968166589737,-0.023301972076296806
1696965226970933200,2.213933349609375,-0.10346075892448425,0.02769605815410614,-0.012649642303586006
1696965226980947700,2.22394775390625,-0.10559122264385223,-0.0021304660476744175,0.0001331541279796511
1696965226990962000,2.2339619140625,-0.10772168636322021,0.0319569893181324,-0.001997311832383275
1696965227000976400,2.243976318359375,-0.09600412845611572,-0.04154408723115921,-0.0009320789249613881
1696965227010990600,2.253990478515625,-0.10346075892448425,-0.00852186419069767,0.009720250964164734
1696965227021005000,2.264005126953125,-0.10133028775453568,-0.02876129187643528,0.00226362026296556
1696965227031019300,2.274019287109375,-0.10239552706480026,0.03941362351179123,-0.006258244160562754
1696965227041033700,2.28403369140625,-0.09280842542648315,-0.0639139786362648,0.0001331541279796511
1696965227051048000,2.2940478515625,-0.10133028775453568,0.0106523297727108,0.011850717477500439
1696965227061062400,2.3040625,-0.09493889659643173,-0.08095771074295044,0.005459319334477186
1696965227071076600,2.31407666015625,-0.10452599078416824,0.01491326279938221,0.009720250964164734
1696965227081090800,2.3240908203125,-0.08854749798774719,-0.06071828305721283,-0.0009320789249613881
1696965227091105300,2.334105224609375,-0.10133028775453568,-0.02876129187643528,0.016111649572849274
1696965227101119500,2.344119384765625,-0.10239552706480026,0.007456631399691105,0.0033288532868027687
1696965227111134000,2.354134033203125,-0.0991998240351677,-0.004260932095348835,0.0001331541279796511
1696965227121148200,2.364148193359375,-0.10239552706480026,0.05645735189318657,-0.004127778112888336
1696965227131162600,2.37416259765625,-0.10133028775453568,0.007456631399691105,0.007589785382151604
1696965227141176800,2.3841767578125,-0.10239552706480026,-0.009587096981704235,0.009720250964164734
1696965227151191000,2.39419091796875,-0.10133028775453568,0.02236989326775074,0.00226362026296556
1696965227161205500,2.40420556640625,-0.0981345921754837,0.00852186419069767,-0.0030625448562204838
1696965227171219700,2.4142197265625,-0.10346075892448425,0.01810896210372448,0.006524552125483751
1696965227181234000,2.42423388671875,-0.0991998240351677,-0.012782796286046505,0.006524552125483751
1696965227191248100,2.434248046875,-0.09280842542648315,-0.01491326279938221,0.005459319334477186
1696965227201262600,2.4442626953125,-0.10026505589485168,-0.0532616525888443,0.025698747485876083
1696965227211276800,2.45427685546875,-0.10559122264385223,-0.0031956990715116262,0.018242115154862404
1696965227221291000,2.464291015625,-0.0991998240351677,0.012782796286046505,0.0033288532868027687
1696965227231305200,2.47430517578125,-0.10346075892448425,0.03408745676279068,0.005459319334477186
1696965227241319700,2.484319580078125,-0.10665645450353622,-0.02982652559876442,0.021437814459204674
1696965227251334000,2.494333984375,-0.1087869256734848,0.0159784946590662,0.019307348877191544
1696965227261348000,2.50434814453125,-0.10239552706480026,0.01704372838139534,0.0033288532868027687
1696965227271362300,2.5143623046875,-0.10346075892448425,-0.01384802907705307,0.024633513763546944
1696965227281376800,2.524376708984375,-0.11411308497190475,-0.01704372838139534,0.027829213067889214
1696965227291391000,2.534390869140625,-0.11304785311222076,0.04687025398015976,0.0011983871227130294
1696965227301405200,2.5444052734375,-0.10239552706480026,0.05539211630821228,-0.001997311832383275
1696965227311419400,2.55441943359375,-0.10346075892448425,-0.0745663121342659,0.033155377954244614
1696965227321433900,2.564433837890625,-0.11304785311222076,-0.03621792420744896,0.040612008422613144
1696965227331448000,2.574447998046875,-0.10665645450353622,-0.06178351491689682,0.027829213067889214
1696965227341462300,2.584462158203125,-0.10985215753316879,0.03728315606713295,0.00226362026296556
1696965227351476500,2.5944765625,-0.1087869256734848,0.0213046595454216,0.019307348877191544
1696965227361491000,2.604490966796875,-0.11198262125253677,-0.02769605815410614,0.020372580736875534
1696965227371505200,2.614505126953125,-0.11624355614185333,0.0532616525888443,0.020372580736875534
1696965227381519400,2.624519287109375,-0.10239552706480026,-0.00852186419069767,0.006524552125483751
1696965227391533600,2.634533447265625,-0.11411308497190475,0.01171756349503994,0.027829213067889214
1696965227401547800,2.6445478515625,-0.11198262125253677,0.0053261648863554,0.016111649572849274
1696965227411562200,2.654562255859375,-0.10559122264385223,0.007456631399691105,0.009720250964164734
1696965227421576400,2.664576416015625,-0.10133028775453568,0.0053261648863554,0.004394086077809334
1696965227431590700,2.674590576171875,-0.10665645450353622,-0.01704372838139534,0.015046416781842709
1696965227441604900,2.68460498046875,-0.10452599078416824,0.01491326279938221,0.004394086077809334
1696965227451619300,2.694619384765625,-0.09174319356679916,-0.0213046595454216,0.00226362026296556
1696965227461633500,2.704633544921875,-0.09067796170711517,-0.06817491352558136,0.019307348877191544
1696965227471647700,2.714647705078125,-0.10346075892448425,-0.08947957307100296,0.03209014609456062
1696965227481662000,2.724661865234375,-0.09280842542648315,-0.02450035884976387,0.010785484686493874
1696965227491676400,2.734676513671875,-0.09067796170711517,-0.05113118514418602,0.016111649572849274
1696965227501690600,2.744690673828125,-0.10026505589485168,-0.007456631399691105,0.013981183059513569
1696965227511704800,2.754704833984375,-0.10239552706480026,-0.0159784946590662,0.015046416781842709
1696965227521719000,2.764718994140625,-0.09706936031579971,0.0021304660476744175,0.004394086077809334
1696965227531733500,2.7747333984375,-0.10133028775453568,0.0063913981430232525,0.005459319334477186
1696965227541747700,2.784747802734375,-0.10665645450353622,0.02023942768573761,0.005459319334477186
1696965227551762000,2.794761962890625,-0.10559122264385223,0.0010652330238372087,0.004394086077809334
1696965227561776400,2.8047763671875,-0.10346075892448425,0.02663082629442215,-0.004127778112888336
1696965227571790600,2.81479052734375,-0.10452599078416824,0.01384802907705307,-0.007323476951569319
1696965227581805000,2.82480517578125,-0.10985215753316879,0.06178351491689682,-0.017975807189941406
1696965227591819300,2.8348193359375,-0.10452599078416824,0.0106523297727108,-0.011584409512579441
1696965227601833500,2.84483349609375,-0.10239552706480026,-0.0063913981430232525,-0.0030625448562204838
1696965227611848000,2.854847900390625,-0.10985215753316879,0.0106523297727108,-0.010519175790250301
1696965227621862100,2.864862060546875,-0.11198262125253677,0.04793548583984375,-0.019041040912270546
1696965227631876600,2.874876708984375,-0.10452599078416824,0.00852186419069767,-0.022236740216612816
1696965227641890800,2.884890869140625,-0.10665645450353622,0.06284874677658081,-0.024367205798625946
1696965227651905300,2.8949052734375,-0.10772168636322021,-0.0426093190908432,-0.010519175790250301
1696965227661919500,2.90491943359375,-0.11411308497190475,0.0426093190908432,-0.013714875094592571
1696965227671934000,2.914933837890625,-0.10239552706480026,-0.01171756349503994,-0.024367205798625946
1696965227681948200,2.9249482421875,-0.10559122264385223,0.03408745676279068,-0.019041040912270546
1696965227691962400,2.93496240234375,-0.11091738939285278,-0.01917419396340847,-0.004127778112888336
1696965227701976800,2.944976806640625,-0.11091738939285278,0.009587096981704235,-0.008388710208237171
1696965227711992300,2.954992431640625,-0.10452599078416824,0.02663082629442215,-0.008388710208237171
1696965227722006300,2.96500634765625,-0.10665645450353622,-0.04047885537147522,0.007589785382151604
1696965227732020200,2.975020263671875,-0.11411308497190475,-0.0010652330238372087,0.013981183059513569
1696965227742034400,2.985034423828125,-0.1087869256734848,0.03834838792681694,-0.0009320789249613881
1696965227752048400,2.99504833984375,-0.10026505589485168,0.0010652330238372087,0.0001331541279796511
1696965227762062300,3.005062255859375,-0.10559122264385223,-0.02450035884976387,0.013981183059513569
1696965227772076300,3.015076171875,-0.10985215753316879,-0.03515268862247467,0.024633513763546944
1696965227782090500,3.025090576171875,-0.10133028775453568,0.01171756349503994,0.0033288532868027687
1696965227792104700,3.035104736328125,-0.09387365728616714,-0.02769605815410614,0.0033288532868027687
1696965227802119000,3.045118896484375,-0.0991998240351677,-0.06710968166589737,0.022503048181533813
1696965227812133000,3.055133056640625,-0.10452599078416824,-0.0532616525888443,0.018242115154862404
1696965227822147300,3.065147216796875,-0.09280842542648315,-0.009587096981704235,-0.0009320789249613881
1696965227832161800,3.075161865234375,-0.09067796170711517,-0.04687025398015976,0.00226362026296556
1696965227842176300,3.08517626953125,-0.09706936031579971,-0.07243584841489792,0.023568280041217804
1696965227852190700,3.095190673828125,-0.10026505589485168,-0.04047885537147522,0.013981183059513569
1696965227862205200,3.105205078125,-0.08854749798774719,-0.02876129187643528,0.00226362026296556
1696965227872220000,3.115219970703125,-0.08961272984743118,-0.0958709716796875,0.020372580736875534
1696965227882234400,3.125234375,-0.09493889659643173,-0.11078423261642456,0.03528584539890289
1696965227892248800,3.135248779296875,-0.09706936031579971,-0.07669677585363388,0.025698747485876083
1696965227902263300,3.14526318359375,-0.08428656309843063,-0.05539211630821228,0.007589785382151604
1696965227912278000,3.155278076171875,-0.08215609937906265,-0.16830681264400482,0.037416309118270874
1696965227922292500,3.16529248046875,-0.09174319356679916,-0.18854624032974243,0.057655736804008484
1696965227932306700,3.175306640625,-0.09067796170711517,-0.15232832729816437,0.04913387447595596
1696965227942321200,3.185321044921875,-0.07576470077037811,-0.12143656611442566,0.031024912372231483
1696965227952335400,3.19533544921875,-0.0768299326300621,-0.2439383566379547,0.066177599132061
1696965227962349600,3.205349609375,-0.08961272984743118,-0.2141118347644806,0.08535179495811462
1696965227972363800,3.21536376953125,-0.08428656309843063,-0.16298064589500427,0.07150376588106155
1696965227982378200,3.225378173828125,-0.07256899774074554,-0.14380645751953125,0.06511236727237701
1696965227992392400,3.235392333984375,-0.08215609937906265,-0.2034595012664795,0.10559122264385223
1696965228002406700,3.24540673828125,-0.08961272984743118,-0.11078423261642456,0.11198262125253677
1696965228012420900,3.2554208984375,-0.08322133123874664,-0.07669677585363388,0.10026505589485168
1696965228022435300,3.265435302734375,-0.07576470077037811,-0.02769605815410614,0.10985215753316879
1696965228032449500,3.275449462890625,-0.08854749798774719,-0.1374150663614273,0.16417904198169708
1696965228042463700,3.285463623046875,-0.10239552706480026,-0.01171756349503994,0.15885287523269653
1696965228052478000,3.29547802734375,-0.09600412845611572,0.0532616525888443,0.1300915777683258
1696965228062492400,3.305492431640625,-0.09387365728616714,0.0639139786362648,0.14500483870506287
1696965228072506600,3.315506591796875,-0.10559122264385223,0.04580501839518547,0.15778763592243195
1696965228082520800,3.325520751953125,-0.11304785311222076,0.10758853703737259,0.15672241151332855
1696965228092535000,3.33553515625,-0.1087869256734848,0.13421936333179474,0.13435252010822296
1696965228102549500,3.345549560546875,-0.10985215753316879,0.06284874677658081,0.15033100545406342
1696965228112563700,3.355563720703125,-0.11837401986122131,0.06710968166589737,0.15778763592243195
1696965228122578000,3.365577880859375,-0.1205044835805893,0.07137060910463333,0.1396786868572235
1696965228132592000,3.375592041015625,-0.12370018661022186,0.11930610239505768,0.1087869256734848
1696965228142606600,3.385606689453125,-0.12689588963985443,0.09267527610063553,0.1087869256734848
1696965228152620800,3.395620849609375,-0.1311568170785904,0.04367455467581749,0.10772168636322021
1696965228162635000,3.405635009765625,-0.14393961429595947,0.14380645751953125,0.07363422960042953
1696965228172649200,3.415649169921875,-0.14500483870506287,0.09800143539905548,0.06298190355300903
1696965228182663700,3.42566357421875,-0.151396244764328,0.08841434121131897,0.058720968663692474
1696965228192678000,3.435677978515625,-0.15672241151332855,0.12250179797410965,0.033155377954244614
1696965228202692000,3.445692138671875,-0.16630950570106506,0.1821548491716385,0.008655018173158169
1696965228212706800,3.455706787109375,-0.1716356724500656,0.20452474057674408,-0.006258244160562754
1696965228222721500,3.465721435546875,-0.16843996942043304,0.10545806586742401,-0.010519175790250301
1696965228232736000,3.475736083984375,-0.17802706360816956,0.1810896098613739,-0.029693370684981346
1696965228242750200,3.485750244140625,-0.1833532303571701,0.18961147964000702,-0.055258963257074356
1696965228252764400,3.495764404296875,-0.17909230291843414,0.21091613173484802,-0.08402025699615479
1696965228262778600,3.505778564453125,-0.18015754222869873,0.18961147964000702,-0.09573781490325928
1696965228272793000,3.51579296875,-0.17696183919906616,0.2247641682624817,-0.12236864119768143
1696965228282807300,3.525807373046875,-0.16950520873069763,0.18748101592063904,-0.13408620655536652
1696965228292821500,3.535821533203125,-0.1620485782623291,0.16191542148590088,-0.13302096724510193
1696965228302835700,3.545835693359375,-0.14607007801532745,0.03089175745844841,-0.13941237330436707
1696965228312850200,3.55585009765625,-0.14607007801532745,0.02876129187643528,-0.13834713399410248
1696965228322864400,3.565864501953125,-0.13435252010822296,-0.02236989326775074,-0.15112993121147156
1696965228332878600,3.575878662109375,-0.1194392517209053,-0.02556559257209301,-0.18521739542484283
1696965228342892800,3.585892822265625,-0.11624355614185333,0.03089175745844841,-0.19800019264221191
1696965228352907300,3.5959072265625,-0.10772168636322021,0.0010652330238372087,-0.20758728682994843
1696965228362921500,3.60592138671875,-0.10239552706480026,-0.02023942768573761,-0.1990654170513153
1696965228372935700,3.615935791015625,-0.09174319356679916,-0.1597849577665329,-0.18521739542484283
1696965228382950000,3.625949951171875,-0.09067796170711517,-0.1491326242685318,-0.18308693170547485
1696965228392964400,3.63596435546875,-0.09600412845611572,-0.0319569893181324,-0.20758728682994843
1696965228402978600,3.645978515625,-0.08641702681779861,0.0319569893181324,-0.2416747361421585
1696965228412992800,3.65599267578125,-0.08428656309843063,-0.0053261648863554,-0.2310224175453186
1696965228423007000,3.666007080078125,-0.08215609937906265,-0.06284874677658081,-0.20226112008094788
1696965228433021400,3.676021484375,-0.08002562820911407,-0.17576344311237335,-0.17456506192684174
1696965228443035600,3.68603564453125,-0.07896039634943008,-0.10119713842868805,-0.18521739542484283
1696965228453049900,3.6960498046875,-0.07896039634943008,-0.0958709716796875,-0.20332635939121246
1696965228463064000,3.70606396484375,-0.08641702681779861,0.03728315606713295,-0.21717438101768494
1696965228473078500,3.71607861328125,-0.08535179495811462,-0.07243584841489792,-0.19800019264221191
1696965228483092700,3.7260927734375,-0.08109086751937866,-0.18641577661037445,-0.16604319214820862
1696965228493107000,3.73610693359375,-0.0874822586774826,-0.2332860380411148,-0.15326039493083954
1696965228503121200,3.74612109375,-0.0981345921754837,-0.1395455300807953,-0.16497796773910522
1696965228513135600,3.756135498046875,-0.09387365728616714,-0.13528458774089813,-0.18202169239521027
1696965228523149800,3.76614990234375,-0.10026505589485168,-0.1906767040491104,-0.16178226470947266
1696965228533164000,3.7761640625,-0.11837401986122131,-0.1821548491716385,-0.15112993121147156
1696965228543178200,3.78617822265625,-0.12583065032958984,-0.2226337045431137,-0.1468690037727356
1696965228553192700,3.796192626953125,-0.12263495475053787,-0.16830681264400482,-0.16497796773910522
1696965228563207000,3.80620703125,-0.13222205638885498,-0.275895357131958,-0.1351514458656311
1696965228573221000,3.81622119140625,-0.14713531732559204,-0.18748101592063904,-0.1351514458656311
1696965228583235300,3.8262353515625,-0.14607007801532745,-0.256721168756485,-0.13302096724510193
1696965228593249800,3.836249755859375,-0.14713531732559204,-0.20772044360637665,-0.12982527911663055
1696965228603264000,3.846263916015625,-0.15565717220306396,-0.3003957271575928,-0.10958584398031235
1696965228613278200,3.8562783203125,-0.16417904198169708,-0.17789392173290253,-0.1138467788696289
1696965228623292400,3.86629248046875,-0.15991811454296112,-0.18961147964000702,-0.12449911236763
1696965228633307000,3.876306884765625,-0.15565717220306396,-0.1267627328634262,-0.1255643367767334
1696965228643321000,3.886321044921875,-0.15459194779396057,-0.2247641682624817,-0.0936073511838913
1696965228653335300,3.896335205078125,-0.16098333895206451,-0.14274121820926666,-0.09786828607320786
1696965228663349800,3.906349853515625,-0.14607007801532745,-0.1171756312251091,-0.10958584398031235
1696965228673364000,3.916364013671875,-0.1418091505765915,-0.06497921794652939,-0.11171631515026093
1696965228683378400,3.92637841796875,-0.13541774451732635,-0.10332760214805603,-0.1031944528222084
1696965228693392600,3.936392578125,-0.13541774451732635,-0.03621792420744896,-0.10212921351194382
1696965228703406800,3.94640673828125,-0.12263495475053787,0.00852186419069767,-0.12769481539726257
1696965228713421300,3.95642138671875,-0.11304785311222076,0.03302222490310669,-0.12662957608699799
1696965228723435500,3.966435546875,-0.10346075892448425,-0.02663082629442215,-0.10532491654157639
1696965228733450000,3.976449951171875,-0.10559122264385223,0.0063913981430232525,-0.10106398165225983
1696965228743464200,3.986464111328125,-0.09387365728616714,-0.00852186419069767,-0.10532491654157639
1696965228753478700,3.996478759765625,-0.08641702681779861,-0.0010652330238372087,-0.09786828607320786
1696965228763492900,4.006492919921875,-0.08641702681779861,0.02663082629442215,-0.09041165560483932
1696965228773507300,4.01650732421875,-0.09600412845611572,0.0532616525888443,-0.08188978582620621
1696965228783521500,4.026521484375,-0.09280842542648315,0.10119713842868805,-0.07656362652778625
1696965228793536000,4.036535888671875,-0.09067796170711517,0.0852186381816864,-0.06378082931041718
1696965228803550200,4.04655029296875,-0.0991998240351677,0.0639139786362648,-0.028628136962652206
1696965228813564400,4.056564453125,-0.11304785311222076,0.04047885537147522,-0.001997311832383275
1696965228823579000,4.066578857421875,-0.11730878800153732,0.1491326242685318,-0.008388710208237171
1696965228833593000,4.076593017578125,-0.12156971544027328,0.14274121820926666,0.006524552125483751
1696965228843607600,4.086607666015625,-0.13648298382759094,0.17256775498390198,0.03528584539890289
1696965228853621800,4.096621826171875,-0.151396244764328,0.1288931965827942,0.06830807030200958
1696965228863636200,4.10663623046875,-0.15778763592243195,0.2130466103553772,0.0778951644897461
1696965228873650400,4.116650390625,-0.16098333895206451,0.18854624032974243,0.09493889659643173
1696965228883665000,4.126664794921875,-0.17589659988880157,0.22689463198184967,0.1194392517209053
1696965228893679000,4.13667919921875,-0.1844184696674347,0.17682868242263794,0.1524614691734314
1696965228903693300,4.146693359375,-0.19080986082553864,0.21837277710437775,0.16950520873069763
1696965228913707800,4.156707763671875,-0.18974463641643524,0.2247641682624817,0.17589659988880157
1696965228923722000,4.166721923828125,-0.19613602757453918,0.1906767040491104,0.20785360038280487
1696965228933736400,4.176736328125,-0.20146219432353973,0.1810896098613739,0.21744069457054138
1696965228943750700,4.186750732421875,-0.19613602757453918,0.1704372763633728,0.24087581038475037
1696965228953765000,4.19676513671875,-0.19294032454490662,0.10865376889705658,0.25046291947364807
1696965228963779300,4.206779296875,-0.19826649129390717,0.08628387749195099,0.27602851390838623
1696965228973793800,4.216793701171875,-0.19933173060417175,0.10758853703737259,0.2792242169380188
1696965228983808000,4.22680810546875,-0.18867939710617065,0.06284874677658081,0.28455036878585815
1696965228993822200,4.236822265625,-0.1833532303571701,-0.04047885537147522,0.3090507388114929
1696965229003836700,4.246836669921875,-0.19720126688480377,-0.0745663121342659,0.3324858546257019
1696965229013851000,4.256850830078125,-0.19826649129390717,-0.0053261648863554,0.3133116662502289
1696965229023865300,4.266865234375,-0.19080986082553864,0.0532616525888443,0.2877460718154907
1696965229033879600,4.276879638671875,-0.18122276663780212,-0.02769605815410614,0.28241991996765137
1696965229043894000,4.28689404296875,-0.19294032454490662,-0.00852186419069767,0.2983984053134918
1696965229053908200,4.296908203125,-0.1833532303571701,-0.08734910935163498,0.29413747787475586
1696965229063922700,4.306922607421875,-0.17802706360816956,-0.009587096981704235,0.2685718834400177
1696965229073937000,4.31693701171875,-0.16950520873069763,-0.07563154399394989,0.24939768016338348
1696965229083951400,4.326951416015625,-0.1737661361694336,-0.08628387749195099,0.26324570178985596
1696965229093965600,4.336965576171875,-0.16524426639080048,-0.1267627328634262,0.2483324557542801
1696965229103979800,4.346979736328125,-0.15352670848369598,-0.10119713842868805,0.2366148829460144
1696965229113994200,4.356994140625,-0.14713531732559204,-0.15126308798789978,0.2142449915409088
1696965229124008400,4.367008544921875,-0.14926578104496002,-0.1267627328634262,0.20785360038280487
1696965229134023000,4.37702294921875,-0.1396786868572235,-0.08734910935163498,0.1737661361694336
1696965229144037000,4.387037109375,-0.13222205638885498,-0.10119713842868805,0.15885287523269653
1696965229154051600,4.397051513671875,-0.12796111404895782,-0.11504516750574112,0.15033100545406342
1696965229164065800,4.407065673828125,-0.1290263533592224,-0.1587197184562683,0.14500483870506287
1696965229174080300,4.417080322265625,-0.12370018661022186,-0.12995843589305878,0.12263495475053787
1696965229184094500,4.427094482421875,-0.1194392517209053,-0.11078423261642456,0.09280842542648315
1696965229194108700,4.437108642578125,-0.11837401986122131,-0.11397993564605713,0.07469946891069412
1696965229204123100,4.447123046875,-0.12156971544027328,-0.11504516750574112,0.06404713541269302
1696965229214137300,4.457137451171875,-0.1194392517209053,-0.10013190656900406,0.03848154470324516
1696965229224151800,4.46715185546875,-0.11517832428216934,-0.10865376889705658,0.021437814459204674
1696965229234166000,4.477166015625,-0.1194392517209053,-0.09906667470932007,0.004394086077809334
1696965229244180500,4.487180419921875,-0.12370018661022186,-0.09480573982000351,-0.015845341607928276
1696965229254194700,4.497194580078125,-0.12370018661022186,-0.0745663121342659,-0.037150003015995026
1696965229264209200,4.507209228515625,-0.12476541846990585,-0.07776200771331787,-0.054193731397390366
1696965229274223400,4.517223388671875,-0.1300915777683258,-0.07776200771331787,-0.060585130006074905
1696965229284237800,4.52723779296875,-0.13541774451732635,-0.06284874677658081,-0.07656362652778625
1696965229294252000,4.537251953125,-0.13541774451732635,-0.04047885537147522,-0.0925421193242073
1696965229304266200,4.547266357421875,-0.13648298382759094,-0.03089175745844841,-0.10532491654157639
1696965229314280700,4.55728076171875,-0.14287437498569489,-0.0426093190908432,-0.1031944528222084
1696965229324295000,4.567294921875,-0.14713531732559204,-0.04900071769952774,-0.10745538026094437
1696965229334309400,4.577309326171875,-0.14500483870506287,-0.0159784946590662,-0.12130340933799744
1696965229344323600,4.587323486328125,-0.14393961429595947,-0.0319569893181324,-0.12876003980636597
1696965229354338000,4.597338134765625,-0.14820054173469543,-0.02982652559876442,-0.11917294561862946
1696965229364352300,4.607352294921875,-0.15033100545406342,-0.07776200771331787,-0.10958584398031235
1696965229374366700,4.61736669921875,-0.14926578104496002,-0.0010652330238372087,-0.11917294561862946
1696965229384381000,4.627380859375,-0.1418091505765915,-0.08841434121131897,-0.11171631515026093
1696965229394395100,4.63739501953125,-0.15459194779396057,-0.03302222490310669,-0.1031944528222084
1696965229404409600,4.64740966796875,-0.15565717220306396,-0.05432688444852829,-0.1042596846818924
1696965229414423800,4.657423828125,-0.15352670848369598,0.05432688444852829,-0.12130340933799744
1696965229424438300,4.667438232421875,-0.14926578104496002,0.0063913981430232525,-0.11278154700994492
1696965229434452500,4.677452392578125,-0.15778763592243195,-0.03089175745844841,-0.07762885838747025
1696965229444466700,4.687466796875,-0.15778763592243195,-0.06497921794652939,-0.07017222791910172
1696965229454481000,4.69748095703125,-0.15459194779396057,0.01171756349503994,-0.07762885838747025
1696965229464495400,4.707495361328125,-0.1524614691734314,-0.01810896210372448,-0.07336792349815369
1696965229474509600,4.717509521484375,-0.1620485782623291,-0.02343512699007988,-0.05312849581241608
1696965229484523800,4.727523681640625,-0.15991811454296112,-0.0159784946590662,-0.054193731397390366
1696965229494538000,4.7375380859375,-0.15459194779396057,0.01810896210372448,-0.058454662561416626
1696965229504552400,4.747552490234375,-0.15352670848369598,-0.04154408723115921,-0.045671865344047546
1696965229514566700,4.757566650390625,-0.16098333895206451,-0.02663082629442215,-0.031823836266994476
1696965229524580900,4.767580810546875,-0.15778763592243195,-0.02982652559876442,-0.033954303711652756
1696965229534595000,4.777594970703125,-0.15459194779396057,-0.02769605815410614,-0.03288906812667847
1696965229544609500,4.787609619140625,-0.15778763592243195,-0.05752258375287056,-0.016910573467612267
1696965229554623700,4.797623779296875,-0.1620485782623291,-0.05006595328450203,-0.013714875094592571
1696965229564638000,4.807637939453125,-0.15991811454296112,-0.03728315606713295,-0.015845341607928276
1696965229574652200,4.817652099609375,-0.15672241151332855,-0.05219641700387001,-0.010519175790250301
1696965229584666600,4.82766650390625,-0.15885287523269653,-0.04687025398015976,-0.0009320789249613881
1696965229594680800,4.837680908203125,-0.16417904198169708,-0.05858781561255455,0.0001331541279796511
1696965229604695000,4.847695068359375,-0.1620485782623291,-0.06071828305721283,0.007589785382151604
1696965229614709200,4.857709228515625,-0.16098333895206451,-0.12463226169347763,0.026763979345560074
1696965229624723500,4.867723388671875,-0.16630950570106506,-0.02236989326775074,0.016111649572849274
1696965229634738000,4.877738037109375,-0.1737661361694336,-0.05432688444852829,0.010785484686493874
1696965229644752100,4.887752197265625,-0.16843996942043304,-0.01171756349503994,0.017176883295178413
1696965229654766300,4.897766357421875,-0.16950520873069763,-0.10013190656900406,0.031024912372231483
1696965229664780500,4.907780517578125,-0.17802706360816956,0.012782796286046505,0.018242115154862404
1696965229674795000,4.917794921875,-0.17696183919906616,-0.02343512699007988,0.015046416781842709
1696965229684809200,4.927809326171875,-0.17057043313980103,-0.07243584841489792,0.023568280041217804
1696965229694823400,4.937823486328125,-0.18122276663780212,-0.03408745676279068,0.026763979345560074
1696965229704837600,4.947837646484375,-0.17802706360816956,0.009587096981704235,0.0033288532868027687
1696965229714852000,4.95785205078125,-0.17696183919906616,-0.0159784946590662,0.012915950268507004
1696965229724866300,4.9678662109375,-0.17483137547969818,-0.09480573982000351,0.019307348877191544
1696965229734880500,4.977880615234375,-0.1822880059480667,-0.03728315606713295,0.022503048181533813
1696965229744894700,4.987894775390625,-0.17802706360816956,-0.0532616525888443,0.008655018173158169
1696965229754909200,4.9979091796875,-0.17696183919906616,-0.04367455467581749,0.011850717477500439
1696965229764923400,5.00792333984375,-0.17909230291843414,-0.11611039936542511,0.020372580736875534
1696965229774937900,5.017937744140625,-0.18761417269706726,-0.01917419396340847,0.012915950268507004
1696965229784952000,5.0279521484375,-0.1844184696674347,-0.0532616525888443,0.007589785382151604
1696965229794966500,5.037966552734375,-0.18548369407653809,-0.07776200771331787,0.020372580736875534
1696965229804980700,5.047980712890625,-0.1950708031654358,-0.04367455467581749,0.020372580736875534
1696965229814995200,5.0579951171875,-0.1950708031654358,-0.01491326279938221,0.007589785382151604
1696965229825009400,5.068009521484375,-0.18974463641643524,-0.012782796286046505,0.006524552125483751
1696965229835023600,5.078023681640625,-0.1950708031654358,-0.04047885537147522,0.010785484686493874
1696965229845038000,5.0880380859375,-0.19933173060417175,-0.05539211630821228,0.024633513763546944
1696965229855052300,5.09805224609375,-0.19933173060417175,0.03728315606713295,0.0033288532868027687
1696965229865066800,5.108066650390625,-0.19294032454490662,-0.05645735189318657,0.012915950268507004
1696965229875081000,5.1180810546875,-0.20039696991443634,-0.04687025398015976,0.022503048181533813
1696965229885095400,5.128095458984375,-0.20146219432353973,-0.02343512699007988,0.018242115154862404
1696965229895109600,5.138109619140625,-0.19720126688480377,-0.0010652330238372087,0.016111649572849274
1696965229905124000,5.1481240234375,-0.1940055638551712,-0.06284874677658081,0.025698747485876083
1696965229915138300,5.15813818359375,-0.20252743363380432,-0.02236989326775074,0.026763979345560074
