time,seconds_elapsed,z,y,x
1696964978549298400,0.18329833984375,-1.1583833694458008,-0.11945831775665283,0.1851406693458557
1696964978559206400,0.193206298828125,0.08274173736572266,-0.3258689343929291,-0.019502177834510803
1696964978569149200,0.203149169921875,-0.0946359634399414,0.12520962953567505,0.3149937391281128
1696964978579128300,0.21312841796875,-0.275604248046875,-0.21466770768165588,0.08145049214363098
1696964978589143800,0.223143798828125,-0.8160381317138672,-0.017823755741119385,0.10783051699399948
1696964978599193900,0.23319384765625,0.23417186737060547,-0.054109275341033936,0.19763442873954773
1696964978609276000,0.24327587890625,0.27684497833251953,-0.2642747759819031,0.059801384806632996
1696964978619385900,0.2533857421875,-1.6000051498413086,-0.1348465383052826,0.16657404601573944
1696964978629518800,0.263518798828125,0.6855096817016602,-0.20316341519355774,0.15952791273593903
1696964978639669000,0.2736689453125,-0.4022235870361328,-0.07666453719139099,0.3830985724925995
1696964978649830400,0.283830322265625,-0.34021949768066406,0.017991602420806885,0.17850403487682343
1696964978659996700,0.29399658203125,-0.7327852249145508,-0.1660725176334381,0.414071649312973
1696964978670127600,0.304127685546875,0.9309673309326172,0.007273852825164795,0.4845418632030487
1696964978680141800,0.314141845703125,-0.6843032836914062,-0.11164966225624084,0.3913709223270416
1696964978690156000,0.324156005859375,-0.9296464920043945,0.037849485874176025,0.2962053716182709
1696964978700170000,0.334169921875,0.5599813461303711,-0.010187327861785889,0.6403976678848267
1696964978710184200,0.34418408203125,-1.150299072265625,-0.3376336097717285,0.18710291385650635
1696964978720198400,0.354198486328125,-0.7146158218383789,0.20775866508483887,0.14595353603363037
1696964978730212600,0.364212646484375,0.5851354598999023,0.15017986297607422,0.2513423562049866
1696964978740226800,0.374226806640625,-1.1265373229980469,-0.41561275720596313,0.16169658303260803
1696964978750241000,0.384240966796875,-0.45415210723876953,-0.11998167634010315,-0.03883543610572815
1696964978760255000,0.3942548828125,-0.1888742446899414,-0.38056570291519165,0.3673602044582367
1696964978770269200,0.404269287109375,-0.3822669982910156,-0.050518691539764404,0.09992978721857071
1696964978780283400,0.414283447265625,-0.09640884399414062,-0.19364237785339355,-0.13453777134418488
1696964978790297600,0.424297607421875,-0.9809036254882812,-0.17196586728096008,0.1556324064731598
1696964978800311800,0.434311767578125,1.4751758575439453,-0.09034168720245361,0.363972932100296
1696964978810326000,0.444325927734375,-0.41903018951416016,-0.413171648979187,-0.07472829520702362
1696964978820340200,0.45434033203125,-1.0922012329101562,0.010675191879272461,0.15446723997592926
1696964978830354200,0.464354248046875,1.314687728881836,-0.2692291736602783,0.23237796127796173
1696964978840368400,0.474368408203125,-0.3804454803466797,-0.171697199344635,-0.04179925471544266
1696964978850382600,0.484382568359375,-0.1559429168701172,0.03837716579437256,0.09725956618785858
1696964978860396800,0.494396728515625,0.4132251739501953,0.10182559490203857,0.27155739068984985
1696964978870411000,0.504410888671875,0.3004617691040039,-0.34279289841651917,0.01610572636127472
1696964978880425200,0.51442529296875,-1.1002540588378906,0.008790045976638794,-0.26216360926628113
1696964978890439200,0.524439208984375,0.15135860443115234,0.06520786881446838,0.27682918310165405
1696964978900453400,0.534453369140625,0.5928869247436523,-0.1365348994731903,-0.08555132150650024
1696964978910467600,0.544467529296875,-1.1112279891967773,0.06068238615989685,0.02588506042957306
1696964978920481800,0.554481689453125,0.34711265563964844,0.1852208971977234,-0.0020160973072052
1696964978930496000,0.56449609375,-0.053994178771972656,-0.018544495105743408,0.28745341300964355
1696964978940510200,0.57451025390625,-0.32955169677734375,0.04119095206260681,0.11618304252624512
1696964978950524200,0.584524169921875,-0.6746730804443359,0.11265912652015686,-0.14020520448684692
1696964978960538400,0.594538330078125,-0.3090629577636719,0.2330382764339447,0.5288528203964233
1696964978970552600,0.604552490234375,1.1156072616577148,0.0708838403224945,0.07316894829273224
1696964978980566800,0.61456689453125,-1.7249679565429688,-0.013675838708877563,0.306124746799469
1696964978990581000,0.6245810546875,0.6154298782348633,0.3128224015235901,0.17517174780368805
1696964979000595200,0.63459521484375,0.021119117736816406,0.1577262282371521,0.5865296125411987
1696964979010609200,0.644609130859375,-0.5296573638916016,0.07490843534469604,-0.052290499210357666
1696964979020623400,0.654623291015625,-0.5154600143432617,0.4114390015602112,-0.0459597110748291
1696964979030637600,0.664637451171875,0.20890426635742188,0.14681929349899292,0.1365131288766861
1696964979040651800,0.67465185546875,-0.24654674530029297,0.13667774200439453,-0.15309113264083862
1696964979050666000,0.684666015625,-1.3916425704956055,0.33386844396591187,-0.07485852390527725
1696964979060680200,0.69468017578125,0.3369579315185547,0.03153085708618164,-0.04935173690319061
1696964979070694100,0.704694091796875,-0.9220046997070312,0.17639362812042236,-0.16783486306667328
1696964979080708400,0.714708251953125,-0.049282073974609375,0.08495891094207764,-0.37329310178756714
1696964979090722600,0.72472265625,-0.6424188613891602,-0.14957347512245178,-0.22373998165130615
1696964979100736800,0.73473681640625,-0.15614986419677734,0.4256279468536377,-0.1555783450603485
1696964979110751000,0.7447509765625,0.591766357421875,-0.17786040902137756,0.03266485035419464
1696964979120765200,0.75476513671875,-1.5922517776489258,0.10210365056991577,-0.09365925192832947
1696964979130779400,0.764779296875,1.0978212356567383,0.19800442457199097,0.0644417554140091
1696964979140793300,0.77479345703125,0.4683551788330078,0.043881773948669434,-0.04473796486854553
1696964979150807600,0.7848076171875,-1.0257349014282227,-0.12166926264762878,-0.11470749974250793
1696964979160821800,0.79482177734375,0.504908561706543,0.07749199867248535,0.05151878297328949
1696964979170836000,0.8048359375,0.5026283264160156,0.2867810130119324,0.14119677245616913
1696964979180850200,0.81485009765625,-0.5199546813964844,0.0345386266708374,-0.27670711278915405
1696964979190864400,0.824864501953125,-0.09223747253417969,0.06191575527191162,-0.13658373057842255
1696964979200878600,0.834878662109375,0.17843246459960938,0.1262192726135254,0.1504482477903366
1696964979210892800,0.844892822265625,0.09110355377197266,-0.06209555268287659,-0.38158339262008667
1696964979220907000,0.854906982421875,-0.8981647491455078,0.04182839393615723,-0.2213657945394516
1696964979230921200,0.864921142578125,0.5841302871704102,0.26818811893463135,-0.232014998793602
1696964979240935400,0.874935302734375,-0.12312507629394531,0.06332552433013916,-0.15133103728294373
1696964979250949600,0.88494970703125,-1.1527318954467773,-0.1034141480922699,-0.20742487907409668
1696964979260963800,0.8949638671875,0.20058345794677734,0.25306135416030884,-0.3108842968940735
1696964979270978000,0.90497802734375,-0.12354660034179688,0.18268615007400513,-0.234439417719841
1696964979280992300,0.9149921875,-0.590484619140625,-0.11332491040229797,-0.13082058727741241
1696964979291006500,0.92500634765625,0.12194538116455078,0.1625077724456787,-0.25112032890319824
1696964979301020700,0.935020751953125,-0.007279396057128906,0.16545331478118896,0.2269783914089203
1696964979311035000,0.945034912109375,0.08283042907714844,-0.030889391899108887,0.21666841208934784
1696964979321049000,0.955049072265625,-0.43418216705322266,0.07757937908172607,-0.24303948879241943
1696964979331063300,0.965063232421875,-0.3155374526977539,0.3380280137062073,0.3777676820755005
1696964979341077500,0.975077392578125,0.7490110397338867,0.045488834381103516,0.22677966952323914
1696964979351091700,0.985091796875,-0.2493886947631836,-0.29248374700546265,0.04845672845840454
1696964979361106000,0.99510595703125,-0.3366127014160156,-0.10897067189216614,-0.119762122631073
1696964979371120000,1.0051201171875,0.05077648162841797,0.28697896003723145,0.2904518246650696
1696964979381134300,1.01513427734375,0.5573415756225586,-0.1575694978237152,0.06849642097949982
1696964979391148500,1.0251484375,-0.8799858093261719,0.32303953170776367,-0.1639452874660492
1696964979401162800,1.035162841796875,-0.06007575988769531,-0.2964695394039154,0.05491413176059723
1696964979411177000,1.045177001953125,0.29596424102783203,0.1350916624069214,0.1078556627035141
1696964979421191400,1.05519140625,-0.2616004943847656,-0.28188836574554443,-0.13716724514961243
1696964979431205600,1.06520556640625,-0.25901222229003906,0.21119952201843262,-0.2446073740720749
1696964979441219800,1.0752197265625,0.1419963836669922,0.024131834506988525,0.3298988342285156
1696964979451234000,1.085234130859375,0.2686729431152344,-0.18548765778541565,-0.15349404513835907
1696964979461248300,1.095248291015625,-1.5410404205322266,0.02921193838119507,-0.28204262256622314
1696964979471262500,1.105262451171875,0.31456756591796875,-0.08218243718147278,0.3409856855869293
1696964979481276700,1.115276611328125,0.8855628967285156,0.24493420124053955,0.2428646683692932
1696964979491291000,1.125290771484375,-1.0491228103637695,-0.14802369475364685,0.009494557976722717
1696964979501305000,1.13530517578125,0.051756858825683594,0.19143778085708618,0.07128721475601196
1696964979511319300,1.1453193359375,0.008603096008300781,-0.08664122223854065,0.3333011269569397
1696964979521333500,1.15533349609375,-0.9311981201171875,-0.17978772521018982,0.04560871422290802
1696964979531347700,1.16534765625,0.28293514251708984,0.43077123165130615,0.17900045216083527
1696964979541362000,1.17536181640625,0.29933738708496094,-0.01558011770248413,0.2969422936439514
1696964979551376100,1.185376220703125,-0.5678825378417969,0.009272098541259766,0.2042563557624817
1696964979561390300,1.195390380859375,-0.07318401336669922,-0.29761961102485657,-0.04696662724018097
1696964979571404500,1.205404541015625,-0.3076200485229492,0.27873140573501587,0.17628192901611328
1696964979581418800,1.215418701171875,0.46063804626464844,0.005553603172302246,-0.31810462474823
1696964979591433000,1.225432861328125,-1.1436586380004883,-0.3843867778778076,0.15883736312389374
1696964979601447200,1.235447265625,0.40486621856689453,0.19094669818878174,-0.4295380711555481
1696964979611461400,1.24546142578125,-0.8095722198486328,-0.09816005825996399,0.0819597989320755
1696964979621475600,1.2554755859375,0.9043560028076172,-0.22409197688102722,0.07223333418369293
1696964979631489800,1.26548974609375,-0.04790973663330078,-0.21107187867164612,-0.5621342658996582
1696964979641504000,1.27550390625,-1.0554180145263672,0.09164208173751831,-0.11033067107200623
1696964979651518200,1.285518310546875,1.6422863006591797,-0.2834859788417816,-0.042656898498535156
1696964979661532700,1.29553271484375,-0.5993490219116211,-0.23301461338996887,-0.1349731683731079
1696964979671547000,1.305546875,0.3034343719482422,0.1995745301246643,-0.20491677522659302
1696964979681561000,1.31556103515625,0.8095865249633789,-0.09978213906288147,0.30840185284614563
1696964979691575300,1.3255751953125,0.0806131362915039,-0.14554378390312195,-0.05366457998752594
1696964979701589500,1.335589599609375,0.26552772521972656,-0.24294832348823547,-0.5533703565597534
1696964979711604200,1.345604248046875,-0.6871490478515625,0.38202595710754395,0.17832282185554504
1696964979721618700,1.35561865234375,1.647200584411621,-0.08244743943214417,0.15176579356193542
1696964979731633000,1.3656328125,-0.9417819976806641,-0.2377508580684662,-0.22585637867450714
1696964979741647000,1.375647216796875,-0.10268115997314453,0.3358082175254822,-0.38774895668029785
1696964979751661300,1.385661376953125,0.050330162048339844,0.15566867589950562,0.11928124725818634
1696964979761675500,1.395675537109375,-0.12602615356445312,-0.5582008361816406,-0.2359834909439087
1696964979771689700,1.405689697265625,-0.68121337890625,0.10032176971435547,-0.5150145888328552
1696964979781704000,1.415703857421875,0.1654815673828125,0.16669195890426636,-0.372830867767334
1696964979791718100,1.42571826171875,-0.19704818725585938,0.20226716995239258,0.06161986291408539
1696964979801732400,1.435732421875,-0.0006237030029296875,-0.46978217363357544,-0.4041488766670227
1696964979811746600,1.44574658203125,-0.44750308990478516,0.26949387788772583,-0.39007121324539185
1696964979821760800,1.4557607421875,-0.2825145721435547,-0.07939323782920837,0.039727017283439636
1696964979831775000,1.46577490234375,0.6992940902709961,-0.0029831528663635254,-0.1602342426776886
1696964979841789400,1.47578955078125,-0.8370227813720703,-0.1389959752559662,-0.2690091133117676
1696964979851803600,1.4858037109375,0.3913383483886719,0.34361064434051514,0.19002389907836914
1696964979861817900,1.49581787109375,0.12236690521240234,-0.008857309818267822,0.19130897521972656
1696964979871832000,1.50583203125,-0.1781787872314453,-0.21329882740974426,-0.06768675148487091
1696964979881846300,1.51584619140625,0.27994251251220703,0.15205663442611694,-0.29717880487442017
1696964979891860500,1.525860595703125,-0.6829633712768555,0.19322776794433594,0.4457859396934509
1696964979901874700,1.535874755859375,1.1106529235839844,-0.027143001556396484,0.1967548131942749
1696964979911889000,1.545888916015625,-0.8284177780151367,-0.14104971289634705,-0.36265048384666443
1696964979921903000,1.555903076171875,-0.6848516464233398,0.3042377829551697,0.03877383470535278
1696964979931917300,1.565917236328125,1.3326387405395508,-0.022517025470733643,0.21583504974842072
1696964979941931500,1.575931640625,-0.5986089706420898,-0.016051292419433594,-0.0062917619943618774
1696964979951945700,1.58594580078125,-0.6707944869995117,0.004168987274169922,-0.18718478083610535
1696964979961960000,1.5959599609375,0.3283958435058594,0.3788832426071167,0.027602508664131165
1696964979971974100,1.60597412109375,-0.13061904907226562,-0.004963040351867676,-0.03494662046432495
1696964979981988400,1.61598828125,-0.33432674407958984,-0.28219538927078247,-0.04031020402908325
1696964979992002600,1.62600244140625,-0.0179443359375,0.2284412384033203,-0.3130096197128296
1696964980002016800,1.636016845703125,-0.21775054931640625,0.2653806805610657,0.46902602910995483
1696964980012031000,1.646031005859375,1.1355352401733398,-0.21283212304115295,-0.35260140895843506
1696964980022045200,1.656045166015625,-1.9323391914367676,-0.052609384059906006,-0.28695136308670044
1696964980032059400,1.666059326171875,0.9121465682983398,0.3569837212562561,0.27206647396087646
1696964980042073600,1.676073486328125,0.7019052505493164,0.008228182792663574,0.14595812559127808
1696964980052087800,1.686087890625,-1.1877870559692383,-0.39159461855888367,-0.2891416549682617
1696964980062102000,1.69610205078125,0.17646312713623047,0.13109207153320312,-0.25485795736312866
1696964980072116200,1.7061162109375,0.4944143295288086,0.10101145505905151,0.08932612836360931
1696964980082130700,1.716130615234375,0.17706584930419922,0.03449225425720215,-0.035127848386764526
1696964980092145000,1.726144775390625,0.03322601318359375,-0.31949207186698914,-0.3733370006084442
1696964980102159000,1.7361591796875,-0.1289205551147461,0.2975989580154419,-0.07627877593040466
1696964980112173300,1.74617333984375,0.42902374267578125,-0.018972814083099365,0.06764659285545349
1696964980122187500,1.7561875,-0.3449563980102539,-0.2675856649875641,-0.40405207872390747
1696964980132201700,1.76620166015625,-0.4047737121582031,-0.17099681496620178,-0.4307878315448761
1696964980142216000,1.7762158203125,0.7691259384155273,0.2928674817085266,0.10129295289516449
1696964980152230100,1.786230224609375,0.33606529235839844,0.06991541385650635,-0.12765082716941833
1696964980162244400,1.796244384765625,-0.8851490020751953,-0.3075258731842041,-0.4738295078277588
1696964980172258600,1.806258544921875,0.22028541564941406,0.16576814651489258,-0.27670377492904663
1696964980182272800,1.816272705078125,0.14278888702392578,0.15471619367599487,0.07960249483585358
1696964980192287000,1.826286865234375,-0.3390073776245117,-0.1624654233455658,-0.24009069800376892
1696964980202301200,1.83630126953125,-0.7372522354125977,-0.10842767357826233,-0.5661426782608032
1696964980212315400,1.8463154296875,0.7341947555541992,0.19609761238098145,-0.1241391971707344
1696964980222329600,1.85632958984375,-0.4227724075317383,0.28008294105529785,-0.06088677793741226
1696964980232343800,1.86634375,-0.039229393005371094,-0.2751699984073639,-0.3879193663597107
1696964980242358000,1.87635791015625,-0.5868349075317383,0.12591755390167236,-0.37137627601623535
1696964980252372200,1.886372314453125,-0.021439552307128906,0.17336678504943848,-0.05332440882921219
1696964980262386400,1.896386474609375,0.4217796325683594,-0.07121264934539795,-0.3231654167175293
1696964980272400600,1.906400634765625,-1.1336441040039062,-0.23013290762901306,-0.43579766154289246
1696964980282414800,1.916414794921875,0.5829095840454102,0.31183141469955444,-0.21188025176525116
1696964980292429000,1.926428955078125,0.1463022232055664,0.11206012964248657,-0.12522198259830475
1696964980302443300,1.936443359375,-0.50262451171875,-0.21151044964790344,-0.37941592931747437
1696964980312457700,1.946457763671875,0.08153438568115234,0.10257303714752197,-0.5495113730430603
1696964980322472000,1.956471923828125,-0.5098934173583984,0.11758089065551758,0.09379041194915771
1696964980332486100,1.966486083984375,0.8175468444824219,0.007882893085479736,-0.19144758582115173
1696964980342500400,1.976500244140625,-0.9213132858276367,-0.23260554671287537,-0.7422809600830078
1696964980352514600,1.9865146484375,-0.0969400405883789,0.27195751667022705,-0.1376686692237854
1696964980362528800,1.99652880859375,1.2284812927246094,0.274267315864563,-0.5065620541572571
1696964980372543000,2.00654296875,-1.2513647079467773,-0.17141279578208923,-0.09488275647163391
1696964980382557200,2.01655712890625,1.009286880493164,0.22769594192504883,-0.44541221857070923
1696964980392571400,2.0265712890625,-0.4160623550415039,0.31407254934310913,-0.20013877749443054
1696964980402585600,2.036585693359375,0.06249809265136719,0.19168996810913086,-0.16945374011993408
1696964980412599800,2.046599853515625,0.4103202819824219,0.049278318881988525,-0.5351999998092651
1696964980422614000,2.056614013671875,-0.726222038269043,0.29723554849624634,-0.3898138999938965
1696964980432628200,2.066628173828125,0.8694276809692383,0.43037378787994385,-0.004833400249481201
1696964980442642400,2.076642333984375,0.41237640380859375,0.07267618179321289,-0.2579881250858307
1696964980452656600,2.08665673828125,-1.162705421447754,0.4812600612640381,-0.8666874766349792
1696964980462670800,2.0966708984375,0.27793312072753906,0.34615379571914673,-0.08590398728847504
1696964980472685000,2.10668505859375,0.6198186874389648,0.3771132230758667,0.029734529554843903
1696964980482699300,2.11669921875,-0.2888317108154297,-0.21410509943962097,-0.29475682973861694
1696964980492713500,2.12671337890625,-0.3160076141357422,0.2779321074485779,-0.49370527267456055
1696964980502727700,2.136727783203125,0.2767763137817383,0.7045401334762573,0.02376464754343033
1696964980512742000,2.146741943359375,0.4375419616699219,0.509924590587616,-0.003643043339252472
1696964980522756000,2.156756103515625,-0.23662090301513672,0.06563693284988403,-0.7330694794654846
1696964980532770300,2.166770263671875,-0.7933006286621094,0.42762434482574463,-0.1247255876660347
1696964980542784500,2.176784423828125,0.46445178985595703,0.22536808252334595,0.10676181316375732
1696964980552799000,2.186799072265625,-0.3338479995727539,-0.10736387968063354,-0.2998513877391815
1696964980562813200,2.196813232421875,-0.704167366027832,0.34120309352874756,-0.6222365498542786
1696964980572827400,2.206827392578125,0.24808311462402344,0.7445287704467773,0.018833160400390625
1696964980582841600,2.216841552734375,0.3279838562011719,0.36416566371917725,-0.22442330420017242
1696964980592855800,2.226855712890625,-0.7272396087646484,-0.3454068899154663,-0.4860685169696808
1696964980602870000,2.2368701171875,-0.6808910369873047,0.31899845600128174,-0.03383353725075722
1696964980612884200,2.24688427734375,0.16145992279052734,0.44270771741867065,0.2069624364376068
1696964980622898400,2.2568984375,0.1417865753173828,0.10025805234909058,-0.040029533207416534
1696964980632912600,2.26691259765625,-0.5074748992919922,0.2433437705039978,-0.4777678847312927
1696964980642926800,2.2769267578125,0.2817850112915039,0.5709317922592163,0.2752019166946411
1696964980652941000,2.286941162109375,0.49978065490722656,0.4406629204750061,-0.014977075159549713
1696964980662955300,2.296955322265625,-0.19384288787841797,-0.1503925323486328,-0.05909726023674011
1696964980672969500,2.306969482421875,-0.5316867828369141,0.3001236915588379,-0.12094022333621979
1696964980682983700,2.316983642578125,0.47225189208984375,0.6806936860084534,0.36122316122055054
1696964980692998000,2.326997802734375,0.4987001419067383,-0.013459503650665283,0.11817362159490585
1696964980703012000,2.33701220703125,-0.4763765335083008,0.003754913806915283,-0.2840394377708435
1696964980713026300,2.3470263671875,-0.1452798843383789,0.6828653812408447,0.05598362535238266
1696964980723040800,2.357040771484375,0.680537223815918,0.28369736671447754,0.2905304431915283
1696964980733055000,2.367054931640625,0.024080276489257812,-0.013434648513793945,0.11279153823852539
1696964980743069200,2.377069091796875,-0.38614368438720703,0.11877977848052979,-0.2979070246219635
1696964980753083400,2.38708349609375,-0.5991897583007812,0.5249185562133789,0.42339640855789185
1696964980763097900,2.397097900390625,0.6435785293579102,0.22767138481140137,0.19898834824562073
1696964980773112000,2.407112060546875,-0.48480224609375,0.038196861743927,-0.146025612950325
1696964980783126300,2.417126220703125,-0.5400285720825195,0.24425572156906128,0.02107715606689453
1696964980793140500,2.427140380859375,0.6882715225219727,0.4387401342391968,0.17019283771514893
1696964980803155000,2.437155029296875,-0.30204105377197266,0.2253437638282776,0.2928391098976135
1696964980813169200,2.447169189453125,-0.8064155578613281,0.02365565299987793,-0.2707537114620209
1696964980823183400,2.457183349609375,-0.22097015380859375,0.4719434976577759,0.23563435673713684
1696964980833197600,2.467197509765625,0.29517364501953125,0.3986459970474243,0.14514309167861938
1696964980843212000,2.4772119140625,-0.06847000122070312,0.10338914394378662,0.0348939374089241
1696964980853226200,2.487226318359375,-0.8696527481079102,0.33615434169769287,-0.4091765880584717
1696964980863240400,2.497240478515625,0.10586357116699219,0.3923577666282654,0.3471231460571289
1696964980873254700,2.507254638671875,0.6930351257324219,0.36619138717651367,-0.0018323138356208801
1696964980883269000,2.51726904296875,-1.2262773513793945,-0.16599494218826294,-0.2758934497833252
1696964980893283300,2.527283447265625,-0.1224050521850586,0.573398768901825,-0.021812014281749725
1696964980903297500,2.537297607421875,0.4451141357421875,0.35443544387817383,-0.02059786766767502
1696964980913311700,2.547311767578125,-0.5845518112182617,0.013260722160339355,0.02626124769449234
1696964980923326200,2.557326171875,0.03768730163574219,0.11130154132843018,-0.4314696192741394
1696964980933340400,2.56734033203125,-0.21723556518554688,0.404957115650177,0.12590914964675903
1696964980943354600,2.577354736328125,0.48827075958251953,0.38494420051574707,0.03473939001560211
1696964980953368800,2.587368896484375,-0.2780723571777344,-0.07729148864746094,-0.08976991474628448
1696964980963383300,2.59738330078125,-0.3535804748535156,0.39587849378585815,-0.25357362627983093
1696964980973397500,2.6073974609375,0.14709186553955078,0.32664525508880615,0.17385652661323547
1696964980983411700,2.61741162109375,0.022147178649902344,0.024449050426483154,0.2275221198797226
1696964980993426000,2.627426025390625,-0.2607088088989258,0.05961751937866211,-0.16882070899009705
1696964981003440400,2.6374404296875,-0.18099117279052734,0.48277485370635986,0.28555506467819214
1696964981013454600,2.64745458984375,1.009251594543457,0.5921348333358765,0.422299325466156
1696964981023468800,2.65746875,-0.4018058776855469,-0.2971515953540802,-0.12186843156814575
1696964981033483000,2.66748291015625,-1.0405616760253906,0.4104160666465759,0.06197107583284378
1696964981043497200,2.677497314453125,1.0025005340576172,0.3947044014930725,0.5614094138145447
1696964981053511700,2.68751171875,-0.2812957763671875,0.07946491241455078,0.4340522885322571
1696964981063526000,2.69752587890625,-0.1071014404296875,-0.015024960041046143,0.08821175992488861
1696964981073540000,2.7075400390625,0.5214529037475586,0.4493890404701233,0.2366590052843094
1696964981083554300,2.71755419921875,-0.3447237014770508,0.44714367389678955,0.47925859689712524
1696964981093568800,2.72756884765625,0.7540073394775391,-0.1729447841644287,0.21260640025138855
1696964981103583000,2.7375830078125,-0.8413076400756836,-0.03558832406997681,0.04367566108703613
1696964981113597200,2.74759716796875,-0.28101062774658203,0.6836709380149841,0.6177622079849243
1696964981123611400,2.757611328125,1.4478511810302734,0.06029963493347168,0.3069654107093811
1696964981133625900,2.7676259765625,-0.9152956008911133,-0.14672815799713135,0.09015880525112152
1696964981143640000,2.77764013671875,0.4625558853149414,0.43375176191329956,0.08577553927898407
1696964981153654300,2.787654296875,-0.025876998901367188,0.29681456089019775,0.5479456782341003
1696964981163668500,2.79766845703125,-0.15970802307128906,0.026752114295959473,0.31788551807403564
1696964981173683000,2.807682861328125,-0.20184803009033203,-0.052336812019348145,0.0009703338146209717
1696964981183697200,2.817697265625,-0.7407121658325195,0.5566548705101013,0.49278420209884644
1696964981193711400,2.82771142578125,0.9898595809936523,0.26911991834640503,0.36449092626571655
1696964981203725600,2.8377255859375,-0.20692920684814453,-0.25915610790252686,-0.07166904211044312
1696964981213740000,2.847739990234375,-1.323293685913086,0.07726436853408813,0.09553420543670654
1696964981223754200,2.857754150390625,0.7483282089233398,0.4029091000556946,0.24984239041805267
1696964981233768400,2.8677685546875,-0.1613006591796875,0.28134870529174805,0.19137802720069885
1696964981243782700,2.87778271484375,-0.5712604522705078,-0.5217804908752441,-0.2765185832977295
1696964981253797000,2.887797119140625,-0.2732563018798828,0.5116105675697327,-0.009003430604934692
1696964981263811300,2.897811279296875,0.29575347900390625,0.0425342321395874,0.22997316718101501
1696964981273825500,2.907825439453125,0.15628337860107422,-0.3161124587059021,-0.032646164298057556
1696964981283839700,2.91783984375,-0.020867347717285156,-0.009698033332824707,-0.2008521854877472
1696964981293854200,2.927854248046875,0.1844949722290039,0.39142125844955444,0.2336081564426422
1696964981303868400,2.937868408203125,0.47972965240478516,0.07595020532608032,0.19623424112796783
1696964981313882600,2.947882568359375,0.17274856567382812,-0.4282444417476654,-0.23575009405612946
1696964981323896800,2.957896728515625,-0.7254562377929688,0.32349568605422974,-0.05399131029844284
1696964981333911300,2.967911376953125,0.8047780990600586,0.23223727941513062,0.2379232496023178
1696964981343925500,2.977925537109375,0.4677886962890625,-0.0742788314819336,0.1610139161348343
1696964981353939700,2.987939697265625,0.06531906127929688,-0.20505356788635254,-0.3992465138435364
1696964981363954000,2.997953857421875,-0.7895231246948242,0.49765974283218384,0.22152449190616608
1696964981373968400,3.007968505859375,1.2087326049804688,0.12535947561264038,0.22805984318256378
1696964981383982600,3.017982666015625,-0.22739219665527344,-0.2850179672241211,-0.01345100998878479
1696964981393996800,3.027996826171875,-0.604060173034668,0.33464574813842773,-0.0028347671031951904
1696964981404011000,3.038010986328125,0.5775003433227539,0.4033057689666748,0.45491349697113037
1696964981414025500,3.048025390625,0.18863868713378906,0.08810442686080933,0.25059354305267334
1696964981424039700,3.058039794921875,-0.0027523040771484375,-0.15369409322738647,-0.1276611089706421
1696964981434054000,3.068053955078125,-0.8909273147583008,0.4586791396141052,0.14546339213848114
1696964981444068000,3.078068115234375,1.069601058959961,0.38702356815338135,0.28079140186309814
1696964981454082600,3.08808251953125,-0.4043912887573242,-0.3239327669143677,0.11679357290267944
1696964981464096800,3.0980966796875,-0.890254020690918,0.24231421947479248,-0.054537974298000336
1696964981474111000,3.108111083984375,0.6407260894775391,0.4371275305747986,0.12733094394207
1696964981484125200,3.118125244140625,-0.16835689544677734,-0.12814801931381226,0.1030631959438324
1696964981494139600,3.1281396484375,-0.2297954559326172,-0.013904571533203125,-0.05577410012483597
1696964981504153900,3.13815380859375,-0.3723011016845703,0.27270692586898804,0.10199417173862457
1696964981514168000,3.14816796875,0.8321533203125,0.39269793033599854,0.3022681474685669
1696964981524182300,3.158182373046875,-0.07758808135986328,-0.3328361511230469,0.03781861066818237
1696964981534196500,3.168196533203125,-1.2521467208862305,0.11811387538909912,0.1613745093345642
1696964981544210700,3.178210693359375,1.4975557327270508,0.4828866124153137,0.38226157426834106
1696964981554225000,3.188224853515625,0.3804492950439453,-0.11081081628799438,0.03641745448112488
1696964981564239000,3.198239013671875,-1.449906349182129,0.038776278495788574,0.09895555675029755
1696964981574253300,3.20825341796875,1.0618696212768555,0.3302011489868164,0.3057589828968048
1696964981584267500,3.218267578125,0.031894683837890625,0.37931013107299805,0.24862150847911835
1696964981594281700,3.22828173828125,-0.5030336380004883,-0.12403261661529541,0.024166807532310486
1696964981604296000,3.2382958984375,-0.18141746520996094,0.2529488205909729,0.05855947732925415
1696964981614310100,3.24831005859375,0.1820383071899414,0.4149685502052307,0.3759002685546875
1696964981624324400,3.258324462890625,0.5684843063354492,0.043665528297424316,0.08421233296394348
1696964981634338800,3.2683388671875,-1.797205924987793,0.180294930934906,-0.12110830843448639
1696964981644353000,3.27835302734375,0.26180267333984375,0.28753912448883057,0.4165040850639343
1696964981654367200,3.2883671875,0.9680376052856445,0.4558975100517273,0.18692168593406677
1696964981664381400,3.29838134765625,-1.790541648864746,-0.14477664232254028,-0.257413774728775
1696964981674395600,3.308395751953125,0.4021310806274414,0.33664625883102417,0.2852069139480591
1696964981684409900,3.318409912109375,1.2990751266479492,0.24134588241577148,0.14203834533691406
1696964981694424000,3.328424072265625,-1.5514068603515625,0.057792484760284424,-0.04911371320486069
1696964981704438300,3.338438232421875,0.029379844665527344,-0.08915978670120239,-0.11899401247501373
1696964981714452500,3.348452392578125,0.7600107192993164,0.3888702988624573,0.1267273724079132
1696964981724466700,3.358466796875,0.15608787536621094,0.06531280279159546,-0.046296559274196625
1696964981734481000,3.36848095703125,-0.670710563659668,0.194116473197937,-0.39375102519989014
1696964981744495000,3.3784951171875,0.4345684051513672,0.08474630117416382,-0.03859660029411316
1696964981754509300,3.38850927734375,0.9587974548339844,0.16406267881393433,0.028128355741500854
1696964981764523500,3.3985234375,-1.3461074829101562,0.01771301031112671,-0.3409677743911743
1696964981774537700,3.408537841796875,0.16705608367919922,0.12559306621551514,-0.13799341022968292
1696964981784552000,3.418552001953125,1.6092443466186523,0.27633213996887207,0.08511479198932648
1696964981794566100,3.428566162109375,-0.4779644012451172,-0.046981632709503174,-0.3922575116157532
1696964981804580400,3.438580322265625,-0.4669971466064453,0.07781082391738892,-0.12509898841381073
1696964981814593500,3.448593505859375,1.1297187805175781,0.4317144751548767,0.22063301503658295
1696964981824607700,3.458607666015625,-0.13906002044677734,-0.23796844482421875,-0.21082398295402527
1696964981834622000,3.4686220703125,-0.9317512512207031,0.22789829969406128,-0.2721400856971741
1696964981844636200,3.47863623046875,1.3687353134155273,0.10659486055374146,-0.12732677161693573
1696964981854650400,3.488650390625,-0.7368173599243164,0.1509699821472168,-0.1039702370762825
1696964981864664600,3.49866455078125,-0.2856578826904297,-0.040186941623687744,-0.5478754043579102
1696964981874678800,3.5086787109375,-0.5377445220947266,0.2105512022972107,0.09231157600879669
1696964981884693200,3.518693359375,0.5337209701538086,0.2208871841430664,0.1744735985994339
1696964981894707500,3.52870751953125,0.33191585540771484,-0.13248682022094727,-0.3818299174308777
1696964981904721700,3.5387216796875,-1.6992063522338867,0.12528222799301147,-0.1723726987838745
1696964981914735900,3.54873583984375,1.257685661315918,0.2756549119949341,0.28836941719055176
1696964981924750300,3.558750244140625,-0.23108768463134766,-0.012463271617889404,-0.15517312288284302
1696964981934764500,3.5687646484375,-1.5348701477050781,0.11484986543655396,0.04656781256198883
1696964981944778800,3.57877880859375,1.550837516784668,0.2769884467124939,0.20319820940494537
1696964981954793000,3.58879296875,-0.5984182357788086,0.07860100269317627,0.22114606201648712
1696964981964807400,3.598807373046875,-0.03788566589355469,-0.19263231754302979,-0.11863383650779724
1696964981974821600,3.608821533203125,-0.3434162139892578,0.12222003936767578,0.10981081426143646
1696964981984835800,3.6188359375,0.4933815002441406,0.2292003631591797,0.4638267159461975
1696964981994850000,3.62885009765625,-0.03332233428955078,-0.322995126247406,-0.011235564947128296
1696964982004864500,3.638864501953125,-0.5875415802001953,0.09017008543014526,0.0656035989522934
1696964982014878700,3.648878662109375,1.0622386932373047,0.0718812346458435,0.256609708070755
1696964982024893000,3.658892822265625,0.013152122497558594,0.04594975709915161,0.23177194595336914
1696964982034907100,3.6689072265625,-0.2592296600341797,-0.183150053024292,-0.2565467059612274
1696964982044921600,3.678921630859375,-0.057839393615722656,0.027608036994934082,0.1304033100605011
1696964982054935800,3.688935791015625,0.9264688491821289,0.08042675256729126,0.1258859783411026
1696964982064950000,3.698949951171875,-0.3323049545288086,-0.37209028005599976,-0.06271620094776154
1696964982074964200,3.708964111328125,-0.006611824035644531,0.18921273946762085,0.023010745644569397
1696964982084978700,3.718978759765625,0.7484407424926758,0.09637629985809326,0.21789583563804626
1696964982094993000,3.728992919921875,0.3260498046875,-0.2731049060821533,0.08392789959907532
1696964982105007000,3.739007080078125,-0.3960256576538086,-0.16026091575622559,-0.3244405686855316
1696964982115021300,3.749021240234375,0.0111236572265625,0.308954656124115,0.19732141494750977
1696964982125035800,3.759035888671875,1.1674461364746094,-0.2905580401420593,0.29837366938591003
1696964982135050000,3.769050048828125,-0.6127948760986328,-0.04929715394973755,-0.16280865669250488
1696964982145064200,3.779064208984375,-0.41998767852783203,-0.02576279640197754,-0.032149434089660645
1696964982155078400,3.789078369140625,0.5606374740600586,0.3421297073364258,0.34572890400886536
1696964982165092900,3.7990927734375,0.21531963348388672,-0.23951292037963867,-0.06476682424545288
1696964982175107000,3.809107177734375,-1.385695457458496,-0.016455471515655518,-0.27081286907196045
1696964982185121300,3.819121337890625,0.5194807052612305,0.35361677408218384,0.24780882894992828
1696964982195135500,3.829135498046875,0.7525520324707031,0.18171197175979614,0.022985562682151794
1696964982205149700,3.839149658203125,-1.8056488037109375,-0.25479787588119507,-0.049318596720695496
1696964982215164200,3.8491640625,0.24408912658691406,0.2679877281188965,-0.004953265190124512
1696964982225178400,3.859178466796875,0.3725576400756836,0.3186126947402954,0.06716819107532501
1696964982235192600,3.869192626953125,-0.6747303009033203,-0.20915555953979492,-0.14901632070541382
1696964982245206800,3.879206787109375,-0.30515384674072266,0.33750951290130615,0.10991765558719635
1696964982255221200,3.88922119140625,0.9906244277954102,0.12567168474197388,0.19181746244430542
1696964982265235500,3.8992353515625,-0.6603326797485352,0.32917630672454834,0.30898261070251465
1696964982275249700,3.909249755859375,-0.26685047149658203,0.20940667390823364,-0.15367861092090607
1696964982285264000,3.919263916015625,0.1065053939819336,0.10417342185974121,0.24453136324882507
1696964982295278300,3.9292783203125,1.1575689315795898,0.619271993637085,0.20454299449920654
1696964982305292500,3.93929248046875,-0.9286060333251953,0.23706555366516113,0.13897676765918732
1696964982315306800,3.949306640625,-0.09500694274902344,-0.147777259349823,-0.07103011012077332
1696964982325321000,3.959321044921875,1.9125032424926758,0.7000873684883118,0.20240241289138794
1696964982335335400,3.96933544921875,-1.805068016052246,0.3221406936645508,0.10590453445911407
1696964982345349600,3.979349609375,1.3960094451904297,0.13445645570755005,-0.1245507076382637
1696964982355363800,3.98936376953125,0.8437004089355469,0.30261480808258057,0.12634213268756866
1696964982365378000,3.9993779296875,-2.255239486694336,0.27963799238204956,-0.1058659553527832
1696964982375392500,4.009392578125,2.6296138763427734,0.44588446617126465,0.07112804055213928
1696964982385406700,4.01940673828125,-1.548166275024414,0.4751913547515869,-0.4084758162498474
1696964982395421000,4.0294208984375,-0.27350807189941406,0.11031395196914673,0.12457627058029175
1696964982405435100,4.03943505859375,1.6297674179077148,0.7490467429161072,-0.2555728852748871
1696964982415449600,4.04944970703125,-2.651214122772217,0.7166292667388916,0.2553286552429199
1696964982425463800,4.0594638671875,2.225003242492676,0.3242233395576477,-0.1507738083600998
1696964982435478000,4.06947802734375,-1.4212684631347656,0.8504359722137451,0.14250880479812622
1696964982445492200,4.0794921875,0.17801284790039062,0.5371777415275574,-0.0756530612707138
1696964982455506700,4.089506591796875,0.7231416702270508,0.7052779793739319,0.16479939222335815
1696964982465521000,4.09952099609375,-1.4149045944213867,0.5458253026008606,0.06603391468524933
1696964982475535000,4.10953515625,0.8398971557617188,0.7753134965896606,0.412364661693573
1696964982485549300,4.11954931640625,-1.2934551239013672,0.9337895512580872,0.007039368152618408
1696964982495563800,4.129563720703125,1.3383941650390625,0.5186043977737427,0.09827673435211182
1696964982505578000,4.139577880859375,-1.7995185852050781,0.7233278155326843,0.14460153877735138
1696964982515592200,4.14959228515625,1.5071067810058594,0.8610588312149048,0.10931575298309326
1696964982525606400,4.1596064453125,-1.4444799423217773,0.9231082201004028,0.42561691999435425
1696964982535620600,4.16962060546875,0.3698415756225586,0.8009288907051086,0.03757891058921814
1696964982545634800,4.179634765625,0.7426586151123047,0.861464262008667,0.029411330819129944
1696964982555649000,4.18964892578125,-2.179455280303955,1.0484082698822021,0.29842609167099
1696964982565663200,4.199663330078125,2.3569107055664062,0.7547943592071533,0.19198867678642273
1696964982575677400,4.209677490234375,-2.547055244445801,1.0694645643234253,-0.00008313357830047607
1696964982585691600,4.219691650390625,1.3253765106201172,0.8579819202423096,0.3475440740585327
1696964982595705900,4.229705810546875,-0.04417991638183594,1.2518668174743652,0.08475062251091003
1696964982605720000,4.239719970703125,-1.510930061340332,0.7543262243270874,0.24835649132728577
1696964982615734500,4.249734619140625,1.0350685119628906,1.0118622779846191,0.2652221918106079
1696964982625748700,4.259748779296875,-0.29998779296875,1.0974233150482178,0.0019105374813079834
1696964982635763000,4.269762939453125,-1.12152099609375,0.8722578287124634,0.45023176074028015
1696964982645777200,4.279777099609375,1.6870450973510742,0.9088239669799805,0.3746415972709656
1696964982655791400,4.289791259765625,-2.249955177307129,1.1854904890060425,-0.027472272515296936
1696964982665805600,4.2998056640625,1.5932064056396484,0.9289268255233765,0.22210602462291718
1696964982675819800,4.30981982421875,-1.5595884323120117,1.1035139560699463,0.3632431626319885
1696964982685834000,4.319833984375,0.805018424987793,1.1302515268325806,0.024075284600257874
1696964982695848200,4.32984814453125,-1.017094612121582,1.126368522644043,-0.16549840569496155
1696964982705862400,4.3398623046875,-0.21663951873779297,1.029517412185669,0.5331050157546997
1696964982715876600,4.349876708984375,0.6635875701904297,0.9234418869018555,0.14900174736976624
1696964982725890800,4.359890869140625,-0.6232223510742188,1.2477411031723022,-0.140763059258461
1696964982735905000,4.369905029296875,-0.08156013488769531,1.03848135471344,0.06461192667484283
1696964982745919200,4.379919189453125,0.07190608978271484,0.880329966545105,0.44924139976501465
1696964982755933400,4.389933349609375,0.08143138885498047,1.1252493858337402,-0.28263819217681885
1696964982765947600,4.39994775390625,-0.8884973526000977,0.9665670394897461,0.3208194375038147
1696964982775961900,4.4099619140625,0.9247655868530273,1.1757397651672363,0.10249479115009308
1696964982785976000,4.41997607421875,-0.008681297302246094,1.0186834335327148,-0.07934212684631348
1696964982795990300,4.429990234375,-0.2526264190673828,0.7502412796020508,0.2432672679424286
1696964982806004500,4.44000439453125,0.7856893539428711,1.269228219985962,0.1946808397769928
1696964982816018700,4.450018798828125,-0.7647037506103516,1.0414985418319702,0.13856838643550873
1696964982826033000,4.460032958984375,1.206578254699707,0.820677638053894,-0.02289077639579773
1696964982836047000,4.470047119140625,-1.371969223022461,0.8683356046676636,0.12007206678390503
1696964982846061300,4.480061279296875,0.896723747253418,1.100182294845581,0.29612383246421814
1696964982856075800,4.49007568359375,-0.5099430084228516,1.0353540182113647,-0.022274762392044067
1696964982866090000,4.500090087890625,-0.5803232192993164,0.8939188718795776,0.6038655638694763
1696964982876104200,4.510104248046875,0.506260871887207,1.1520771980285645,0.20007659494876862
1696964982886118400,4.520118408203125,-0.7659769058227539,1.0134639739990234,0.5527371764183044
1696964982896132600,4.530132568359375,0.521728515625,0.6792483329772949,0.2734336853027344
1696964982906146800,4.540146728515625,-1.3288679122924805,1.2879490852355957,0.850165843963623
1696964982916161000,4.5501611328125,1.1164836883544922,0.9311212301254272,0.1753567010164261
1696964982926175200,4.56017529296875,-1.3232040405273438,0.8683692216873169,0.4609048068523407
1696964982936189400,4.570189453125,0.2426128387451172,1.130940556526184,0.37326622009277344
1696964982946204000,4.580203857421875,-0.20695781707763672,1.0540753602981567,0.6840018033981323
1696964982956218000,4.590218017578125,-0.5362319946289062,0.98985755443573,0.609527051448822
1696964982966232300,4.600232421875,-0.37244510650634766,0.6432197093963623,0.26614028215408325
1696964982976246500,4.61024658203125,-0.3571453094482422,1.301025390625,0.8810175657272339
1696964982986260700,4.6202607421875,-0.4234180450439453,0.630291223526001,0.23208852112293243
1696964982996275200,4.630275146484375,-0.0830068588256836,1.1062119007110596,0.484917551279068
1696964983006289400,4.640289306640625,-0.7378368377685547,0.7473244667053223,0.6097349524497986
1696964983016303600,4.6503037109375,0.3200359344482422,0.9469027519226074,0.40446236729621887
1696964983026317800,4.66031787109375,-1.1337900161743164,0.663936972618103,0.10471104085445404
1696964983036332300,4.670332275390625,-0.15637683868408203,0.9803956747055054,0.5825386643409729
1696964983046346500,4.680346435546875,-0.3090810775756836,0.3671771287918091,-0.31968027353286743
1696964983056360700,4.690360595703125,-0.9156227111816406,0.8521614074707031,0.2541767954826355
1696964983066375000,4.700375,1.0742416381835938,0.29443347454071045,0.5187300443649292
1696964983076389400,4.710389404296875,-1.250779151916504,0.6024597883224487,-0.5827401876449585
1696964983086403600,4.720403564453125,0.7156124114990234,0.5842329263687134,0.4713192284107208
1696964983096417800,4.730417724609375,0.5422248840332031,0.24492740631103516,0.1479533165693283
1696964983106432000,4.740431884765625,-0.8695793151855469,0.44534051418304443,0.35944628715515137
1696964983116446500,4.750446533203125,2.0908031463623047,0.3200739622116089,0.13240370154380798
1696964983126460700,4.760460693359375,-0.7769536972045898,0.3520005941390991,0.5386912226676941
1696964983136475000,4.770474853515625,1.0789527893066406,0.1620246171951294,-0.31666356325149536
1696964983146489000,4.780489013671875,0.7514858245849609,0.48513340950012207,0.8251757025718689
1696964983156503600,4.790503662109375,0.3433694839477539,0.024714350700378418,0.2817825675010681
1696964983166517800,4.800517822265625,0.07489490509033203,0.09611499309539795,0.5400686264038086
1696964983176532000,4.810531982421875,1.470132827758789,0.2151339054107666,0.3790966868400574
1696964983186546200,4.820546142578125,-0.9846572875976562,-0.0192716121673584,0.08866694569587708
1696964983196560600,4.830560546875,-0.1750345230102539,0.371404767036438,0.138909250497818
1696964983206574800,4.840574951171875,1.4888076782226562,0.22409331798553467,0.3845348358154297
1696964983216589000,4.850589111328125,-2.1036148071289062,-0.08968997001647949,-0.18500512838363647
1696964983226603300,4.860603271484375,0.34316158294677734,0.23956239223480225,0.02798233926296234
1696964983236617700,4.87061767578125,0.15654659271240234,-0.2055748701095581,-0.1741405725479126
1696964983246632000,4.8806318359375,-1.7605323791503906,0.2276608943939209,-0.431868314743042
1696964983256646100,4.890646240234375,1.2116060256958008,-0.17390751838684082,-0.24172915518283844
1696964983266660400,4.900660400390625,-0.9560365676879883,0.3792489767074585,-0.34933650493621826
1696964983276674800,4.9106748046875,0.10223388671875,-0.3167102336883545,0.07889778912067413
1696964983286689000,4.92068896484375,0.41281700134277344,0.09862208366394043,-0.08633998036384583
1696964983296703200,4.930703125,-0.6873493194580078,-0.27883708477020264,-0.35704123973846436
1696964983306717400,4.940717529296875,0.9199295043945312,0.2687492370605469,0.38111478090286255
1696964983316732000,4.95073193359375,0.34929752349853516,-0.1121530532836914,-0.32888975739479065
1696964983326746000,4.96074609375,-0.3303842544555664,-0.12901735305786133,0.09993907809257507
1696964983336760300,4.97076025390625,1.6681690216064453,-0.1723266839981079,0.20797130465507507
1696964983346774500,4.9807744140625,-0.9163017272949219,-0.33210504055023193,-0.15288019180297852
1696964983356789000,4.9907890625,0.9064598083496094,-0.12786591053009033,0.02876758575439453
1696964983366803200,5.00080322265625,1.0528793334960938,-0.11737322807312012,-0.18766920268535614
1696964983376817400,5.0108173828125,-0.8708391189575195,-0.3035775423049927,-0.1462908834218979
1696964983386831600,5.02083154296875,1.3583011627197266,-0.4411022663116455,-0.3656238317489624
1696964983396846000,5.03084619140625,-1.0292339324951172,-0.4961066246032715,-0.25115931034088135
1696964983406860300,5.0408603515625,1.5010042190551758,-0.2382739782333374,-0.41251981258392334
1696964983416874500,5.05087451171875,-0.06435585021972656,-0.2023552656173706,-0.5624318718910217
1696964983426888700,5.060888671875,-0.37525367736816406,-0.3126087188720703,-0.21442700922489166
1696964983436903000,5.07090283203125,1.9489765167236328,-0.3687692880630493,-0.6175719499588013
1696964983446917000,5.080917236328125,-1.8929553031921387,-0.6618638038635254,-0.5026931762695312
1696964983456931300,5.090931396484375,2.2023258209228516,-0.9388644099235535,-0.5739878416061401
1696964983466945500,5.100945556640625,-0.11007499694824219,-1.0599595308303833,0.10486054420471191
1696964983476959700,5.110959716796875,-0.3205728530883789,-0.5317660570144653,-0.7294455766677856
1696964983486974200,5.12097412109375,2.6871891021728516,-0.382749080657959,-0.41499894857406616
1696964983496988400,5.130988525390625,-0.6643962860107422,-0.7277697324752808,-0.6977000832557678
1696964983507002600,5.141002685546875,1.8754510879516602,-1.4878311157226562,-0.35740822553634644
1696964983517016800,5.151016845703125,0.7674961090087891,-1.3632272481918335,0.0456387996673584
1696964983527031000,5.161031005859375,-0.026703834533691406,-1.2411298751831055,-0.3719349503517151
1696964983537045200,5.171045166015625,2.5731687545776367,-0.4765821695327759,0.5153597593307495
1696964983547059500,5.1810595703125,3.5671815872192383,-0.9307122230529785,-0.2264735847711563
1696964983557073700,5.19107373046875,-0.6225500106811523,-1.4818943738937378,0.06119561195373535
1696964983567087900,5.201087890625,5.229095458984375,-1.453133225440979,0.5434634685516357
1696964983577102000,5.21110205078125,-0.3826332092285156,-1.9098460674285889,-0.012482553720474243
1696964983587116300,5.2211162109375,1.9743757247924805,-1.0251060724258423,0.9264034032821655
1696964983597130500,5.231130615234375,4.781556129455566,-1.0140495300292969,0.7761845588684082
1696964983607144700,5.241144775390625,-0.5956792831420898,-0.8315942287445068,1.0342200994491577
1696964983617159000,5.251158935546875,3.793811798095703,-1.4965407848358154,1.2431771755218506
1696964983627173000,5.261173095703125,0.9577484130859375,-1.0777359008789062,1.2288066148757935
1696964983637187300,5.271187255859375,-0.8502264022827148,-1.3841742277145386,1.4496688842773438
1696964983647201500,5.281201416015625,3.4211244583129883,-0.7826368808746338,1.1777797937393188
1696964983657215700,5.2912158203125,-0.6184873580932617,-0.6231991052627563,1.4120430946350098
1696964983667230000,5.30122998046875,0.22991371154785156,-0.7265766859054565,1.0902512073516846
1696964983677244200,5.311244140625,0.7189741134643555,-0.5754151344299316,1.2887073755264282
1696964983687258400,5.32125830078125,-1.9190239906311035,-0.4693831205368042,0.9706473350524902
1696964983697272600,5.3312724609375,-1.0766210556030273,-0.7707761526107788,1.2463666200637817
1696964983707286800,5.341286865234375,0.04139137268066406,-0.08622324466705322,1.0539802312850952
1696964983717301200,5.35130126953125,-2.9914908409118652,-0.10060334205627441,0.8019989728927612
1696964983727315500,5.3613154296875,-0.9999637603759766,-0.05571091175079346,0.9956450462341309
1696964983737329700,5.37132958984375,-1.306107521057129,0.25896501541137695,0.7392499446868896
1696964983747344000,5.38134375,-3.973270893096924,0.24467623233795166,0.5912274122238159
1696964983757358000,5.391358154296875,-0.5314369201660156,0.4768688678741455,0.6075538992881775
1696964983767372300,5.401372314453125,-2.631181240081787,0.08514773845672607,0.8076751828193665
1696964983777386500,5.411386474609375,-3.0355281829833984,-0.3096526861190796,0.9300636053085327
1696964983787400700,5.421400634765625,-1.8035969734191895,0.22770583629608154,0.3960309326648712
1696964983797415000,5.431414794921875,-4.106853485107422,0.6184999942779541,0.06965464353561401
1696964983807429000,5.44142919921875,-2.3861923217773438,0.6894727945327759,0.061864882707595825
1696964983817443300,5.451443359375,-1.6057157516479492,0.32033979892730713,-0.8696010112762451
1696964983827457500,5.46145751953125,-4.115680694580078,-0.14934134483337402,-0.3880956768989563
1696964983837471700,5.4714716796875,-2.381110191345215,-0.264316201210022,-0.22253625094890594
1696964983847486000,5.48148583984375,-2.642833709716797,0.5854699611663818,0.01804041862487793
1696964983857500200,5.491500244140625,-4.372193336486816,0.4275575876235962,0.09228238463401794
1696964983867514400,5.501514404296875,-2.2884421348571777,0.4186134338378906,-0.110240638256073
1696964983877528600,5.511528564453125,-3.5214734077453613,0.3555030822753906,-0.7998315691947937
1696964983887542800,5.521542724609375,-3.7437925338745117,-0.22764432430267334,-0.8830123543739319
1696964983897557000,5.531556884765625,-2.4601640701293945,0.18928837776184082,-1.0071487426757812
1696964983907571200,5.5415712890625,-3.167479991912842,0.30258655548095703,-0.78139728307724
1696964983917585400,5.55158544921875,-3.7352499961853027,0.30159664154052734,-0.8594329357147217
1696964983927599600,5.561599609375,-1.8641266822814941,0.6009776592254639,-1.161025047302246
1696964983937613800,5.57161376953125,-3.423976421356201,0.23879361152648926,-1.2676129341125488
1696964983947628000,5.5816279296875,-3.3606619834899902,-0.08306562900543213,-1.5891368389129639
1696964983957642500,5.591642578125,-1.3617563247680664,0.26360762119293213,-1.530740737915039
1696964983967656700,5.60165673828125,-3.061861515045166,0.2313750982284546,-1.4182630777359009
1696964983977671000,5.6116708984375,-1.1456327438354492,0.3725360631942749,-0.9684298038482666
1696964983987685000,5.62168505859375,0.188262939453125,0.3461465835571289,-1.3404277563095093
1696964983997699300,5.63169921875,-2.0082240104675293,0.383500337600708,-0.756473183631897
1696964984007713500,5.641713623046875,0.22555065155029297,0.21001100540161133,-0.32764148712158203
1696964984017727700,5.651727783203125,-0.10690498352050781,0.5038207769393921,-0.7160617709159851
1696964984027742000,5.661741943359375,-1.2612171173095703,-0.052884817123413086,-0.17852360010147095
1696964984037756200,5.671756103515625,1.7881813049316406,-0.05435764789581299,-0.5872766971588135
1696964984047770400,5.681770263671875,0.3097801208496094,-0.10904347896575928,-0.7116245031356812
1696964984057784600,5.69178466796875,-0.18111515045166016,-0.32031261920928955,-0.6622968316078186
1696964984067798800,5.701798828125,1.6616544723510742,-0.1363530158996582,-0.4376693665981293
1696964984077813000,5.71181298828125,0.5277490615844727,0.1344681978225708,-0.2534787654876709
1696964984087827200,5.7218271484375,0.04617118835449219,-0.7572335004806519,-0.2025342583656311
1696964984097841400,5.73184130859375,3.145528793334961,-0.3391249179840088,0.348384827375412
1696964984107856000,5.74185595703125,1.3537111282348633,-0.5588400363922119,0.046221330761909485
1696964984117870000,5.7518701171875,0.3160972595214844,-0.8440232276916504,-0.1686922162771225
1696964984127884300,5.76188427734375,4.370949745178223,-0.48519402742385864,0.30348801612854004
1696964984137898500,5.7718984375,1.2003135681152344,-0.19273877143859863,0.07340623438358307
1696964984147913000,5.781912841796875,1.2766733169555664,-0.9418689012527466,0.1338486224412918
1696964984157927200,5.79192724609375,4.985774993896484,-0.18226170539855957,0.4477880597114563
1696964984167941400,5.80194140625,0.5569047927856445,-0.7660599946975708,0.3408784866333008
1696964984177955600,5.81195556640625,3.340127944946289,-1.1479601860046387,0.10266968607902527
1696964984187970000,5.821969970703125,4.616998672485352,-0.5750529766082764,0.9021832942962646
1696964984197984300,5.831984375,0.7531805038452148,-0.3950279951095581,-0.256046861410141
1696964984207998500,5.84199853515625,3.4312477111816406,-0.7912647724151611,0.5429549217224121
1696964984218012700,5.8520126953125,6.017677307128906,-0.49594154953956604,0.8392497301101685
1696964984228027000,5.86202685546875,-0.21951007843017578,-0.8990788459777832,0.06671975553035736
1696964984238041300,5.872041259765625,4.2962751388549805,-0.8666800856590271,0.4789203703403473
1696964984248055600,5.8820556640625,5.184667587280273,-0.5734058618545532,0.559699535369873
1696964984258069800,5.89206982421875,-0.7111301422119141,-0.6426993608474731,-0.0026272833347320557
1696964984268084000,5.902083984375,5.1588335037231445,-0.9658738374710083,-0.11859998106956482
1696964984278098400,5.912098388671875,3.7370729446411133,-0.2786579728126526,0.5378714799880981
1696964984288112600,5.922112548828125,-0.1430492401123047,-1.2780203819274902,-0.5608874559402466
1696964984298126800,5.932126953125,3.0784263610839844,-0.6147485375404358,0.09515243768692017
1696964984308141000,5.94214111328125,2.971242904663086,-0.6641793251037598,0.447375625371933
1696964984318155500,5.952155517578125,-1.040511131286621,-1.0387471914291382,-0.16112275421619415
1696964984328169700,5.962169677734375,3.6310606002807617,-0.5087560415267944,0.10498046875
1696964984338184000,5.972183837890625,1.0952625274658203,-0.33794528245925903,-0.053080156445503235
1696964984348198100,5.9821982421875,-1.8323421478271484,-1.0610272884368896,-0.4907366633415222
1696964984358212600,5.992212646484375,3.462843894958496,-0.5811743140220642,-0.29081565141677856
1696964984368226800,6.002226806640625,-1.0417680740356445,-0.688171923160553,-0.18145570158958435
1696964984378241000,6.012240966796875,-1.2880659103393555,-1.004875659942627,-0.39691469073295593
1696964984388255200,6.022255126953125,3.174221992492676,-0.5430210828781128,-0.2862633764743805
1696964984398269700,6.032269775390625,-1.57391357421875,-0.777745246887207,0.06664392352104187
1696964984408284000,6.042283935546875,0.17844104766845703,-0.9419990181922913,-0.1267537921667099
1696964984418298000,6.052298095703125,1.8508329391479492,-0.5266125202178955,0.044912189245224
1696964984428312300,6.062312255859375,-1.1504974365234375,-0.5615231990814209,0.5385563969612122
1696964984438326800,6.072326904296875,0.8969936370849609,-0.7540431618690491,0.527375340461731
1696964984448341000,6.082341064453125,0.5694189071655273,-0.37731292843818665,0.41062575578689575
1696964984458355200,6.092355224609375,-0.46509838104248047,-0.46034130454063416,0.5163424015045166
1696964984468369400,6.102369384765625,0.7967252731323242,-0.6758317351341248,0.7576038837432861
1696964984478383600,6.112383544921875,-0.18567752838134766,-0.4444744884967804,0.5103325843811035
1696964984488397800,6.122397705078125,-0.9271535873413086,-0.4192342460155487,0.7875866889953613
1696964984498412000,6.132412109375,-0.18988037109375,-0.6399940848350525,0.46677127480506897
1696964984508426200,6.14242626953125,-0.8452949523925781,-0.3948480188846588,1.0176585912704468
1696964984518440400,6.1524404296875,-0.41887760162353516,-0.577415943145752,0.2865770757198334
1696964984528454700,6.16245458984375,-1.2074460983276367,-0.5288805961608887,0.4363378584384918
1696964984538468900,6.17246875,-0.24488067626953125,-0.5959819555282593,0.34257662296295166
1696964984548483000,6.182483154296875,-1.9750709533691406,-0.6600227355957031,0.44807958602905273
1696964984558497300,6.192497314453125,-0.36562347412109375,-0.7624226808547974,0.5803695917129517
1696964984568511500,6.202511474609375,-0.2648286819458008,-0.7821386456489563,0.7128833532333374
1696964984578525700,6.212525634765625,-2.17671537399292,-0.7919067144393921,0.748501181602478
1696964984588540000,6.222539794921875,0.6093206405639648,-0.8277824521064758,0.6830849647521973
1696964984598554400,6.232554443359375,-1.2086095809936523,-0.5059049129486084,0.4549006521701813
1696964984608568600,6.242568603515625,-1.7845458984375,-0.5965406894683838,0.3721563220024109
1696964984618582800,6.252582763671875,-0.031494140625,-0.6567639112472534,0.3141653537750244
1696964984628597000,6.262596923828125,-0.6194543838500977,-0.9168557524681091,0.6233538389205933
1696964984638611200,6.272611083984375,-2.133166790008545,-1.0084216594696045,0.23096337914466858
1696964984648625400,6.28262548828125,-0.4268217086791992,-0.6361238956451416,0.1209360659122467
1696964984658639600,6.2926396484375,-0.8222579956054688,-0.3240039050579071,0.23451346158981323
1696964984668653800,6.30265380859375,-1.9720087051391602,-1.0137563943862915,0.18257197737693787
1696964984678668000,6.31266796875,-0.18926239013671875,-0.5897766351699829,-0.09420838952064514
1696964984688682200,6.32268212890625,-0.47028255462646484,-0.6985815763473511,-0.027707427740097046
1696964984698696400,6.332696533203125,-2.3994569778442383,-1.059052586555481,-0.03207504749298096
1696964984708710700,6.342710693359375,0.09667110443115234,-0.5431560277938843,-0.021287202835083008
1696964984718724900,6.352724853515625,0.011297225952148438,-0.5481195449829102,0.2645234167575836
1696964984728739000,6.362739013671875,-2.3153486251831055,-0.9479545950889587,-0.07960061728954315
1696964984738753300,6.372753173828125,0.4198932647705078,-0.6572738289833069,0.18944060802459717
1696964984748767500,6.382767578125,-0.5547199249267578,-0.7155699729919434,-0.20350947976112366
1696964984758781700,6.39278173828125,-2.272686004638672,-0.8409186005592346,-0.256326287984848
1696964984768796000,6.4027958984375,0.8835344314575195,-0.3368995487689972,-0.1258942186832428
1696964984778810000,6.41281005859375,-1.2146825790405273,-0.32958266139030457,-0.21529486775398254
1696964984788824300,6.42282421875,-2.3380327224731445,-0.6501337289810181,-0.4122501611709595
1696964984798838500,6.432838623046875,0.40320587158203125,-0.41906610131263733,-0.538407027721405
1696964984808852700,6.442852783203125,-1.0768823623657227,-0.04071098566055298,-0.6153947114944458
1696964984818867000,6.452866943359375,-1.722081184387207,-0.40837255120277405,-0.6111481189727783
1696964984828881200,6.462881103515625,0.2917633056640625,-0.3674621880054474,-0.35736727714538574
1696964984838895600,6.4728955078125,-0.9918956756591797,0.36092615127563477,0.22630399465560913
1696964984848909800,6.482909912109375,-0.9104204177856445,-0.5225033760070801,-0.3823172450065613
1696964984858924000,6.492924072265625,0.20777511596679688,0.5196990370750427,0.11349329352378845
1696964984868938200,6.502938232421875,0.49227237701416016,0.06756371259689331,-0.17669929563999176
1696964984878952400,6.512952392578125,-2.1920886039733887,0.31406134366989136,-0.17360618710517883
1696964984888966700,6.522966552734375,1.5195541381835938,0.14656853675842285,-0.16972878575325012
1696964984898980900,6.53298095703125,-1.3100461959838867,0.14439654350280762,-0.17786216735839844
1696964984908995000,6.5429951171875,-1.1325702667236328,0.08621060848236084,-0.23085010051727295
1696964984919009300,6.55300927734375,1.5539979934692383,0.40136396884918213,-0.07953068614006042
1696964984929023500,6.5630234375,-0.9798097610473633,0.40906286239624023,-0.14525046944618225
1696964984939037700,6.57303759765625,0.20499038696289062,0.27687859535217285,0.07871660590171814
1696964984949052000,6.583052001953125,1.292043685913086,0.3830603361129761,0.1847328245639801
1696964984959066000,6.593066162109375,-1.088852882385254,0.28742289543151855,0.10076409578323364
1696964984969080300,6.603080322265625,0.48798370361328125,0.3105449676513672,0.04097247123718262
1696964984979094500,6.613094482421875,1.3393869400024414,0.38047921657562256,0.28247690200805664
1696964984989108700,6.623108642578125,0.08114910125732422,0.28827548027038574,0.039022475481033325
1696964984999123000,6.633123046875,0.904083251953125,0.2643141746520996,0.3153913617134094
1696964985009137200,6.64313720703125,2.2224559783935547,0.4620351791381836,0.26823386549949646
1696964985019151400,6.6531513671875,-0.8068466186523438,0.4370383024215698,0.20193317532539368
1696964985029165600,6.66316552734375,1.7189359664916992,0.14090991020202637,0.5214190483093262
1696964985039179800,6.6731796875,1.3238906860351562,0.505657434463501,0.3396504819393158
1696964985049194000,6.683194091796875,0.2266254425048828,0.4154846668243408,0.3755336105823517
1696964985059208200,6.693208251953125,2.037334442138672,0.16573035717010498,0.3168410658836365
1696964985069222400,6.703222412109375,1.3445301055908203,0.5546070337295532,0.408278226852417
1696964985079236900,6.71323681640625,0.08404922485351562,0.2828015089035034,0.3686579167842865
1696964985089251000,6.7232509765625,1.4692459106445312,0.03273904323577881,0.2668812870979309
1696964985099265300,6.733265380859375,1.2549762725830078,0.31773197650909424,0.5267375707626343
1696964985109279500,6.743279541015625,0.6442546844482422,-0.08439302444458008,0.3872953951358795
1696964985119293700,6.753293701171875,0.8520822525024414,0.06601238250732422,0.16519039869308472
1696964985129308000,6.763307861328125,1.1933107376098633,0.07644033432006836,0.4796154499053955
1696964985139322400,6.773322265625,-0.4927358627319336,-0.2131938934326172,0.4492644667625427
1696964985149336600,6.783336669921875,1.3134784698486328,-0.06278765201568604,0.5063802003860474
1696964985159350800,6.793350830078125,1.1853914260864258,-0.19187498092651367,0.4470592737197876
1696964985169365000,6.803364990234375,-1.0076351165771484,-0.3009124994277954,0.3227023780345917
1696964985179379500,6.81337939453125,2.009023666381836,-0.14612936973571777,0.4622928202152252
1696964985189393700,6.8233935546875,-0.36210155487060547,0.05930745601654053,0.3599614202976227
1696964985199407900,6.833407958984375,-1.2278289794921875,-0.4634263515472412,0.5189208984375
1696964985209422000,6.843422119140625,1.507558822631836,-0.051007628440856934,0.46196848154067993
1696964985219436500,6.8534365234375,-0.6951694488525391,-0.34687864780426025,0.18883654475212097
1696964985229450800,6.86345068359375,-0.9340391159057617,-0.39497196674346924,0.03761705756187439
1696964985239465000,6.87346484375,1.303903579711914,-0.4387916326522827,0.18178299069404602
1696964985249479200,6.883479248046875,-2.0167202949523926,-0.39770686626434326,0.10443463921546936
1696964985259493600,6.89349365234375,-0.5222492218017578,-0.5509213209152222,0.1877906620502472
1696964985269507800,6.9035078125,1.1604413986206055,-0.3084508180618286,0.3215937316417694
1696964985279522000,6.91352197265625,-1.495513916015625,-0.5497629642486572,0.29645419120788574
1696964985289536300,6.923536376953125,0.1889963150024414,-0.7282752990722656,0.10372164845466614
1696964985299550700,6.93355078125,0.6182146072387695,-0.344699501991272,0.3169768452644348
1696964985309565000,6.94356494140625,-1.5538644790649414,-0.6809934377670288,0.27109411358833313
1696964985319579100,6.9535791015625,0.5995607376098633,-0.7331753969192505,0.1341199278831482
1696964985329593300,6.96359326171875,0.4304046630859375,-0.40320539474487305,0.2209794819355011
1696964985339607800,6.97360791015625,-1.2199249267578125,-0.6893941164016724,0.1447957456111908
1696964985349622000,6.9836220703125,0.21120738983154297,-0.8343281745910645,0.028997749090194702
1696964985359636200,6.99363623046875,0.3157634735107422,-0.3772580623626709,0.20908504724502563
1696964985369650400,7.003650390625,-1.5492372512817383,-0.641067385673523,0.0917641818523407
1696964985379665000,7.013664794921875,0.6476240158081055,-0.5967326164245605,0.12236517667770386
1696964985389679000,7.02367919921875,0.2541494369506836,-0.48081398010253906,0.007584601640701294
1696964985399693300,7.033693359375,-1.3714380264282227,-0.7178729772567749,-0.02520272135734558
1696964985409707500,7.04370751953125,0.37110328674316406,-0.5358902215957642,-0.20939746499061584
1696964985419721700,7.0537216796875,-0.1935415267944336,-0.6795192956924438,0.09131649136543274
1696964985429736200,7.063736083984375,-0.49886131286621094,-0.5825884342193604,0.0285855233669281
1696964985439750400,7.07375048828125,-0.4260425567626953,-0.5711220502853394,-0.2898736596107483
1696964985449764600,7.0837646484375,1.223984718322754,-0.3842884302139282,0.16655868291854858
1696964985459778800,7.09377880859375,-0.7621068954467773,-0.5150997638702393,-0.39172202348709106
1696964985469793300,7.103793212890625,0.04295635223388672,-0.7399775981903076,0.02638089656829834
1696964985479807500,7.113807373046875,1.3862743377685547,-0.37479209899902344,-0.14675509929656982
1696964985489821700,7.12382177734375,-2.038243293762207,-0.32156574726104736,-0.012069851160049438
1696964985499836000,7.1338359375,1.4930534362792969,-0.6499682664871216,0.005494803190231323
1696964985509850400,7.143850341796875,1.0985593795776367,-0.15023553371429443,-0.043245911598205566
1696964985519864600,7.153864501953125,-1.9055938720703125,-0.31092679500579834,0.10649517178535461
1696964985529878800,7.163878662109375,1.9893379211425781,-0.6833878755569458,-0.1812509298324585
1696964985539893000,7.17389306640625,-0.06047534942626953,-0.17952466011047363,0.46668028831481934
1696964985549907200,7.1839072265625,-0.6096172332763672,-0.8941097259521484,-0.1788681298494339
1696964985559921700,7.193921630859375,0.0037384033203125,-0.2566795349121094,0.3547199070453644
1696964985569936000,7.203935791015625,2.188157081604004,-0.09310996532440186,0.2973116636276245
1696964985579950000,7.2139501953125,-2.351836681365967,-0.6578160524368286,0.06924769282341003
1696964985589964300,7.22396435546875,1.2759284973144531,-0.18814098834991455,-0.004778474569320679
1696964985599978500,7.233978515625,0.7195768356323242,-0.5320452451705933,0.1350288987159729
1696964985609992700,7.24399267578125,-2.6419668197631836,-0.2808288335800171,-0.018947482109069824
1696964985620007000,7.2540068359375,1.5702219009399414,-0.24708938598632812,-0.16322702169418335
1696964985630021000,7.264021240234375,-0.8368644714355469,-0.15584218502044678,0.3594871163368225
1696964985640035300,7.274035400390625,-0.8540277481079102,-0.7319220304489136,-0.37403208017349243
1696964985650049500,7.284049560546875,1.026423454284668,0.005358695983886719,0.1017184853553772
1696964985660063700,7.294063720703125,-0.4428071975708008,-0.4854004383087158,0.16996613144874573
1696964985670078000,7.304077880859375,-1.30206298828125,-0.2954057455062866,0.16186726093292236
1696964985680092200,7.314092041015625,1.735825538635254,-0.15545284748077393,-0.007023245096206665
1696964985690106400,7.3241064453125,-1.1878547668457031,-0.35460686683654785,0.19288912415504456
1696964985700120600,7.33412060546875,0.5013895034790039,-0.3716973066329956,0.007625222206115723
1696964985710134800,7.344134765625,1.5378494262695312,-0.5188157558441162,-0.4075598120689392
1696964985720149000,7.35414892578125,-2.2890477180480957,-0.20663869380950928,0.1726369559764862
1696964985730163200,7.3641630859375,2.050741195678711,-0.5656905174255371,0.18363553285598755
1696964985740177400,7.374177490234375,-0.0993337631225586,-0.2732834815979004,-0.13332289457321167
1696964985750191600,7.384191650390625,-0.36220741271972656,-0.4613398313522339,0.10637840628623962
1696964985760205800,7.394205810546875,1.4693670272827148,-0.4335991144180298,-0.2833000421524048
1696964985770220000,7.404219970703125,-0.36434078216552734,-0.25266528129577637,0.16362550854682922
1696964985780234200,7.414234130859375,0.26768016815185547,-0.6079308986663818,0.04276284575462341
1696964985790248400,7.42424853515625,-0.5213871002197266,-0.4733405113220215,0.11306890845298767
1696964985800263000,7.434262939453125,1.6928672790527344,-0.2451343536376953,0.2029430866241455
1696964985810277000,7.444277099609375,-1.0729942321777344,-0.27306509017944336,0.18056228756904602
1696964985820291300,7.454291259765625,0.5878582000732422,-0.6256152391433716,-0.3673359155654907
1696964985830305500,7.464305419921875,0.1332254409790039,-0.17146575450897217,0.379949152469635
1696964985840319700,7.47431982421875,-0.9517879486083984,-0.7033360004425049,-0.17417804896831512
1696964985850334000,7.484333984375,-0.007647514343261719,-0.3976895809173584,-0.12324070930480957
1696964985860348200,7.49434814453125,0.7335319519042969,-0.22844839096069336,0.2497308850288391
1696964985870362400,7.5043623046875,-1.1985063552856445,-0.5041947364807129,-0.2974216938018799
1696964985880376600,7.51437646484375,0.5104923248291016,-0.11498367786407471,0.0473959743976593
1696964985890390800,7.524390869140625,0.3714427947998047,-0.2884470224380493,-0.15586546063423157
1696964985900405000,7.534405029296875,-2.119204044342041,-0.4981648921966553,0.061784446239471436
1696964985910419200,7.544419189453125,1.8334016799926758,-0.15218865871429443,-0.051732927560806274
1696964985920433400,7.554433349609375,-0.6982879638671875,-0.2398533821105957,-0.2717846632003784
1696964985930447600,7.564447509765625,-0.6682529449462891,-0.4078342914581299,0.08259421586990356
1696964985940461800,7.5744619140625,1.6421566009521484,-0.3192099332809448,-0.17407023906707764
1696964985950476000,7.58447607421875,-0.9468994140625,-0.23088300228118896,0.0531294047832489
1696964985960490200,7.594490234375,0.1879110336303711,-0.9213483333587646,0.0378490686416626
1696964985970504400,7.60450439453125,1.6788320541381836,-0.18077301979064941,0.36577704548835754
1696964985980518700,7.6145185546875,0.040656089782714844,-0.4894540309906006,0.05742189288139343
1696964985990532900,7.624532958984375,0.26991844177246094,-0.6554667949676514,0.17730650305747986
1696964986000547000,7.634547119140625,2.3817672729492188,-0.14900732040405273,0.32932519912719727
1696964986010561300,7.644561279296875,-0.9303674697875977,-0.4617246389389038,0.1883157193660736
1696964986020575700,7.65457568359375,-0.0061931610107421875,-0.6202327013015747,-0.06619101762771606
1696964986030590000,7.66458984375,2.321873664855957,-0.3231995105743408,0.13316652178764343
1696964986040604200,7.674604248046875,-1.831507682800293,-0.4757828712463379,0.008725732564926147
1696964986050618400,7.684618408203125,0.8921146392822266,-0.4544179439544678,-0.04691118001937866
1696964986060632800,7.6946328125,0.40332698822021484,-0.31714963912963867,0.22361576557159424
1696964986070647000,7.70464697265625,-1.6188993453979492,-0.20440423488616943,-0.12066829204559326
1696964986080661200,7.7146611328125,-0.0806131362915039,-0.6449757814407349,-0.039731621742248535
1696964986090675500,7.724675537109375,0.8376131057739258,-0.04043304920196533,0.0652681291103363
1696964986100690000,7.73468994140625,-2.136200428009033,-0.6294184923171997,-0.042741477489471436
1696964986110704000,7.7447041015625,0.8794050216674805,-0.09411489963531494,0.10346409678459167
1696964986120718300,7.75471826171875,0.08986663818359375,-0.2510993480682373,0.23338615894317627
1696964986130732500,7.764732666015625,-2.147160053253174,-0.1345670223236084,0.25416743755340576
1696964986140747000,7.7747470703125,1.4139652252197266,-0.10281586647033691,0.07745593786239624
1696964986150761200,7.78476123046875,-0.8686819076538086,-0.16429483890533447,0.20236656069755554
1696964986160775400,7.794775390625,-0.3409900665283203,-0.43082547187805176,0.07001316547393799
1696964986170789600,7.80478955078125,0.5869865417480469,-0.2500765323638916,0.06030765175819397
1696964986180804000,7.81480419921875,-0.7426977157592773,-0.09052848815917969,-0.14382576942443848
1696964986190818300,7.824818359375,-0.7889070510864258,-0.04130208492279053,0.022129535675048828
1696964986200832500,7.83483251953125,0.4269695281982422,-0.36807525157928467,-0.10779571533203125
1696964986210846700,7.8448466796875,-0.5967235565185547,0.23840665817260742,-0.16782554984092712
1696964986220861200,7.854861083984375,-0.0887603759765625,-0.6035168170928955,-0.27922120690345764
1696964986230875400,7.86487548828125,0.3751029968261719,0.24718797206878662,-0.18091967701911926
1696964986240889600,7.8748896484375,-0.5049362182617188,-0.2812885046005249,-0.3043018579483032
1696964986250903800,7.88490380859375,-0.5182027816772461,-0.33212244510650635,-0.21579304337501526
1696964986260918300,7.894918212890625,1.3566150665283203,-0.022608399391174316,-0.2663882076740265
1696964986270932500,7.904932373046875,-1.2701234817504883,-0.41721785068511963,-0.45666876435279846
1696964986280946700,7.91494677734375,1.3564386367797852,0.1307225227355957,-0.010337591171264648
1696964986290961000,7.9249609375,0.1686410903930664,0.22882497310638428,-0.3163483142852783
1696964986300975400,7.934975341796875,-1.4806652069091797,-0.4641540050506592,-0.36158105731010437
1696964986310989600,7.944989501953125,1.9639997482299805,0.004667401313781738,-0.1413225531578064
1696964986321003800,7.955003662109375,-2.0403270721435547,0.003773331642150879,-0.42612898349761963
1696964986331018000,7.96501806640625,1.7109556198120117,-0.2985178232192993,-0.3933977782726288
1696964986341032400,7.975032470703125,0.0014276504516601562,0.33137035369873047,-0.26094233989715576
1696964986351046700,7.985046630859375,-0.44800567626953125,-0.4196861982345581,-0.31285402178764343
1696964986361060900,7.995060791015625,0.4708108901977539,0.02525031566619873,-0.10343629121780396
1696964986371075000,8.005074951171874,-0.23743629455566406,-0.15942883491516113,-0.42968377470970154
1696964986381089300,8.01508935546875,0.28862953186035156,-0.3539544343948364,-0.43099522590637207
1696964986391103700,8.025103759765624,0.651432991027832,0.026762843132019043,-0.22046604752540588
1696964986401118000,8.035117919921875,-0.11962127685546875,0.11180007457733154,-0.3364919126033783
1696964986411132200,8.045132080078124,0.5067710876464844,-0.3047541379928589,-0.2588765621185303
1696964986421146400,8.055146484375,-0.6985588073730469,-0.19652557373046875,-0.261846661567688
1696964986431160800,8.065160888671874,0.1488037109375,-0.29522550106048584,-0.2675393223762512
1696964986441175000,8.075175048828125,0.8748950958251953,0.13482236862182617,-0.6578490734100342
1696964986451189200,8.085189208984374,-1.0240755081176758,-0.11269152164459229,-0.5958325862884521
1696964986461203500,8.095203369140625,-0.18097972869873047,-0.4288063049316406,-0.2805706858634949
1696964986471218000,8.105218017578125,0.9144191741943359,-0.011265993118286133,-0.7312279939651489
1696964986481232100,8.115232177734375,-2.18464994430542,-0.33091235160827637,-0.5540562868118286
1696964986491246300,8.125246337890625,2.3032045364379883,-0.19370603561401367,-0.41911017894744873
1696964986501260500,8.135260498046875,-0.9465122222900391,0.12531375885009766,-0.5144474506378174
1696964986511275000,8.14527490234375,-0.9590215682983398,-0.439128041267395,-0.5608691573143005
1696964986521289200,8.155289306640626,1.5478706359863281,-0.10465776920318604,-0.052585750818252563
1696964986531303400,8.165303466796875,-1.5188961029052734,-0.06408321857452393,-0.5666724443435669
1696964986541317600,8.175317626953126,1.1080207824707031,-0.07328152656555176,-0.15053513646125793
1696964986551332000,8.18533203125,0.7810373306274414,-0.14540600776672363,-0.5930048227310181
1696964986561346300,8.19534619140625,-1.9689521789550781,0.13858914375305176,-0.21104323863983154
1696964986571360500,8.205360595703125,1.31878662109375,-0.6235921382904053,-0.19101984798908234
1696964986581374700,8.215374755859376,-0.07009124755859375,-0.026520252227783203,-0.1311008334159851
1696964986591389000,8.225388916015625,-0.13237380981445312,-0.27276575565338135,-0.2865895628929138
1696964986601403100,8.235403076171876,0.7615175247192383,-0.1272507905960083,-0.04367566108703613
1696964986611417600,8.24541748046875,-0.18180465698242188,0.07766032218933105,-0.35735905170440674
1696964986621431800,8.255431884765626,-0.6738481521606445,-0.307317852973938,-0.4282740652561188
1696964986631446000,8.265446044921875,0.44580554962158203,-0.35180580615997314,-0.2881503701210022
1696964986641460200,8.275460205078126,-0.8885908126831055,-0.4179726839065552,-0.21671965718269348
1696964986651474400,8.285474365234375,0.1357574462890625,-0.24016344547271729,-0.42569252848625183
1696964986661488600,8.295488525390626,0.37454795837402344,-0.03003990650177002,-0.2597277760505676
1696964986671502800,8.3055029296875,-0.7878894805908203,-0.32907724380493164,-0.11135420203208923
1696964986681517000,8.31551708984375,-0.07426834106445312,-0.6832798719406128,-0.26810792088508606
1696964986691531300,8.32553125,1.3692998886108398,-0.20876848697662354,-0.08826154470443726
1696964986701545500,8.33554541015625,-1.0858097076416016,-0.5901368856430054,-0.07316148281097412
1696964986711560400,8.345560546875,1.1577606201171875,-0.8715775012969971,-0.2102968394756317
1696964986721574100,8.35557421875,1.852910041809082,0.09399175643920898,-0.10690063238143921
1696964986731587800,8.365587890625,-1.7070636749267578,-0.7967738509178162,-0.14571169018745422
1696964986741601500,8.3756015625,1.603419303894043,-0.5398551225662231,-0.3336639702320099
1696964986751615500,8.385615478515625,1.700627326965332,-0.248634934425354,-0.24059513211250305
1696964986761629200,8.395629150390626,-1.9072299003601074,-0.9772029519081116,-0.4399733543395996
1696964986771643100,8.40564306640625,2.7758684158325195,-0.2840137481689453,-0.4675144553184509
1696964986781657000,8.415656982421876,0.10315227508544922,-0.40504181385040283,-0.13436682522296906
1696964986791671000,8.425671142578125,-1.1304874420166016,-0.7779160737991333,-0.21067100763320923
1696964986801685200,8.435685302734376,2.6956100463867188,-0.2176833152770996,-0.27683302760124207
1696964986811699500,8.445699462890625,-0.6842918395996094,-0.2759283781051636,-0.17342638969421387
1696964986821714000,8.4557138671875,-0.4153585433959961,-0.46337735652923584,-0.09979477524757385
1696964986831728400,8.465728271484375,1.607487678527832,-0.2309800386428833,-0.1560622602701187
1696964986841742800,8.475742919921874,-1.1535530090332031,-0.3539104461669922,-0.03123721480369568
1696964986851757600,8.485757568359375,-0.45809078216552734,-0.22160494327545166,-0.4060157537460327
1696964986861772000,8.49577197265625,1.411825180053711,-0.10854387283325195,-0.15974776446819305
1696964986871786800,8.505786865234375,-1.4110145568847656,-0.30699682235717773,-0.6413110494613647
1696964986881801500,8.515801513671875,-0.37090301513671875,-0.4939373731613159,-0.7383797764778137
1696964986891816000,8.52581591796875,0.6864910125732422,-0.4137153625488281,-0.9244104623794556
1696964986901830700,8.53583056640625,-2.125169277191162,-0.28837287425994873,-0.6428405046463013
1696964986911844900,8.545844970703126,0.5893220901489258,-0.914379358291626,-1.0606895685195923
1696964986921859000,8.555859130859375,0.1391458511352539,-0.26926255226135254,-0.8881030082702637
1696964986931873500,8.56587353515625,-0.5686168670654297,-0.4622516632080078,-0.8558601140975952
1696964986941887700,8.5758876953125,0.09714603424072266,-1.062552809715271,-0.8574041128158569
1696964986951902000,8.58590185546875,1.3442087173461914,-0.26473021507263184,-0.7266367673873901
1696964986961916700,8.595916748046875,-0.43149757385253906,-0.5592076778411865,-0.4397534132003784
1696964986971930400,8.605930419921876,0.013594627380371094,-0.7921966910362244,-0.5839848518371582
1696964986981944000,8.615944091796875,1.9352855682373047,-0.19108915328979492,-0.12024068832397461
1696964986991958000,8.6259580078125,-0.970001220703125,-0.6423114538192749,-0.7441188097000122
1696964987001971700,8.6359716796875,0.8961858749389648,-0.6249209642410278,-0.5589044094085693
1696964987011985700,8.645985595703126,1.6735830307006836,-0.3509485721588135,-0.5178124904632568
1696964987021999400,8.655999267578125,-2.0144872665405273,-0.4358607530593872,-0.5835713744163513
1696964987032013300,8.666013427734375,1.1778783798217773,-0.652310848236084,-0.6061532497406006
1696964987042027500,8.676027587890625,1.0470895767211914,-0.5350209474563599,-0.2900315821170807
1696964987052041700,8.686041748046875,-1.7557926177978516,-0.40108048915863037,-0.7692266702651978
1696964987062056000,8.696055908203125,1.532125473022461,-0.7226266860961914,-0.683812141418457
1696964987072070400,8.7060703125,-0.9845075607299805,-0.2013007402420044,-0.11938539147377014
1696964987082084600,8.716084716796875,0.17449951171875,-0.48289716243743896,-0.396694540977478
1696964987092099000,8.72609912109375,0.017156600952148438,-0.6399716138839722,-0.534186601638794
1696964987102113800,8.73611376953125,0.35185813903808594,-0.13274991512298584,0.2483329176902771
1696964987112128300,8.746128173828126,-0.2216777801513672,-0.7359458208084106,-0.5962700843811035
1696964987122143000,8.75614306640625,-0.818425178527832,-0.06445372104644775,0.09970059990882874
1696964987132157400,8.766157470703124,2.080228805541992,-0.312394380569458,-0.04505375027656555
1696964987142172200,8.776172119140625,-2.540700912475586,-0.493544340133667,-0.11131730675697327
1696964987152186600,8.7861865234375,1.570317268371582,-0.254435658454895,-0.014199912548065186
1696964987162201000,8.796201171875,0.3203134536743164,-0.35406529903411865,-0.36180630326271057
1696964987172215300,8.80621533203125,-1.9028778076171875,-0.2700777053833008,-0.1565084159374237
1696964987182229500,8.8162294921875,1.911067008972168,-0.4251532554626465,-0.24251243472099304
1696964987192243700,8.82624365234375,-2.0881199836730957,-0.10960137844085693,-0.1452447772026062
1696964987202258000,8.8362578125,0.4590463638305664,-0.12013113498687744,0.019077450037002563
1696964987212272000,8.846272216796875,0.8506183624267578,-0.5563806295394897,-0.07885739207267761
1696964987222286300,8.856286376953125,-1.5887298583984375,-0.5893511772155762,-0.04413026571273804
1696964987232300500,8.866300537109375,0.8477592468261719,-0.024369478225708008,-0.29658496379852295
1696964987242314800,8.876314697265625,0.4158287048339844,-0.2944059371948242,0.0909900963306427
1696964987252329000,8.886328857421875,-0.010400772094726562,-0.5729954242706299,-0.2460479438304901
1696964987262343200,8.89634326171875,0.046894073486328125,-0.49051153659820557,-0.12838822603225708
1696964987272357400,8.906357421875,1.2894515991210938,-0.47232067584991455,-0.12077906727790833
1696964987282371600,8.91637158203125,-0.1090555191040039,-0.2967653274536133,0.1257123351097107
1696964987292385800,8.9263857421875,0.5267667770385742,-0.8991883397102356,-0.40098628401756287
1696964987302400000,8.93639990234375,1.0272903442382812,-0.11451518535614014,0.0899941623210907
1696964987312414200,8.946414306640625,0.7576284408569336,-0.5688033103942871,-0.5340723395347595
1696964987322428400,8.956428466796876,-1.1798038482666016,-0.8595958948135376,-0.5486268997192383
1696964987332442600,8.966442626953125,2.517375946044922,-0.5005544424057007,-0.13864922523498535
1696964987342456800,8.976456787109376,-1.2824325561523438,-0.34040403366088867,-0.8126791715621948
1696964987352471300,8.98647119140625,0.26874732971191406,-0.3369123935699463,-0.2058171182870865
1696964987362485500,8.996485595703126,1.946385383605957,-0.23847675323486328,-0.29151731729507446
1696964987372499700,9.006499755859375,-2.4545583724975586,-0.4005178213119507,-0.3195909559726715
1696964987382514000,9.016513916015626,0.9205455780029297,-0.6090272665023804,-0.35393205285072327
1696964987392528100,9.026528076171875,0.8952693939208984,-0.29018867015838623,-0.2914177179336548
1696964987402542300,9.036542236328126,-1.5916471481323242,-0.12111461162567139,-0.39945152401924133
1696964987412556500,9.046556640625,0.5726222991943359,-0.32368600368499756,-0.6883277893066406
1696964987422570800,9.05657080078125,-0.12584209442138672,0.17323017120361328,0.010542541742324829
1696964987432585000,9.0665849609375,-1.3055391311645508,-0.8013433218002319,-0.7042452096939087
1696964987442599200,9.07659912109375,-0.7334413528442383,-0.07905197143554688,-0.27652013301849365
1696964987452613400,9.08661328125,0.5401067733764648,-0.23642921447753906,-0.5421515107154846
1696964987462627600,9.096627685546874,-2.270683765411377,-0.15924036502838135,-0.3746389150619507
1696964987472641800,9.106641845703125,0.5876026153564453,-0.1515582799911499,-0.6520022749900818
1696964987482656000,9.116656005859374,-0.11049652099609375,-0.26470160484313965,-0.7530992031097412
1696964987492670200,9.126670166015625,-2.858431816101074,-0.06100308895111084,-0.3684350252151489
1696964987502684400,9.136684326171874,1.946798324584961,-0.34788191318511963,-0.5192129015922546
1696964987512698600,9.14669873046875,-1.6847028732299805,-0.18406832218170166,-0.3817187249660492
1696964987522712800,9.156712890625,-0.22325515747070312,-0.20497846603393555,-0.2791122496128082
1696964987532727000,9.16672705078125,-0.37044525146484375,-0.2698882818222046,-0.6177789568901062
1696964987542741200,9.1767412109375,-0.4843931198120117,0.04301595687866211,-0.09571996331214905
1696964987552755500,9.18675537109375,0.6448698043823242,-0.27432167530059814,-0.5062939524650574
1696964987562769700,9.196769775390624,-1.5311651229858398,-0.44595444202423096,-0.021810472011566162
1696964987572783900,9.206783935546875,0.7950878143310547,-0.39108431339263916,-0.14081837236881256
1696964987582798000,9.216798095703124,-1.1516265869140625,-0.23038268089294434,0.027210533618927002
1696964987592812500,9.2268125,1.1876049041748047,0.0655815601348877,0.005995064973831177
1696964987602826800,9.23682666015625,-0.21022605895996094,-0.19269752502441406,-0.027928650379180908
1696964987612841000,9.246841064453125,-1.3141822814941406,0.002413511276245117,0.4389193058013916
1696964987622855200,9.256855224609374,1.7186603546142578,-0.2162613868713379,0.18937397003173828
1696964987632869400,9.266869384765625,-0.6845245361328125,0.06420731544494629,0.5449079275131226
1696964987642883600,9.276883544921875,-0.3823890686035156,-0.3626028299331665,0.3207225501537323
1696964987652897800,9.286897705078125,0.7126388549804688,0.10748445987701416,0.5697609186172485
1696964987662912000,9.296912109375,0.12746047973632812,-0.054305076599121094,0.350802481174469
1696964987672926200,9.30692626953125,-1.3021669387817383,-0.30597376823425293,0.23680266737937927
1696964987682940400,9.3169404296875,0.4874887466430664,-0.2042241096496582,0.28803688287734985
1696964987692954600,9.32695458984375,0.7968606948852539,-0.06624877452850342,0.001230686902999878
1696964987702968800,9.33696875,-0.9979438781738281,-0.6308176517486572,-0.9093443155288696
1696964987712983800,9.34698388671875,1.9575347900390625,-0.5930744409561157,-0.7603449821472168
1696964987722998300,9.356998291015625,-0.5945024490356445,-0.09974348545074463,-0.4480593800544739
1696964987733012500,9.367012451171876,-0.3783531188964844,-1.157592535018921,-1.0759341716766357
1696964987743026700,9.377026611328125,1.6484880447387695,-0.8110295534133911,-0.011500835418701172
1696964987753041000,9.387041015625,1.463165283203125,-1.5096282958984375,0.05825012922286987
1696964987763055000,9.39705517578125,-0.6099491119384766,0.12105154991149902,-1.0436848402023315
1696964987773069300,9.4070693359375,2.516757011413574,-0.1870131492614746,-1.0144561529159546
1696964987783083500,9.41708349609375,0.4325294494628906,-0.4750478267669678,-0.6872422695159912
1696964987793097700,9.42709765625,-3.109915256500244,1.4873874187469482,-0.4156125783920288
1696964987803112000,9.43711181640625,2.7419939041137695,0.5467722415924072,-1.159334659576416
1696964987813126100,9.447126220703124,-2.6259660720825195,-2.2620062828063965,0.17369312047958374
1696964987823140400,9.457140380859375,2.8607187271118164,0.23570716381072998,1.2198834419250488
1696964987833154600,9.467154541015624,0.6518764495849609,-0.4694293737411499,-2.403104305267334
1696964987843168800,9.477168701171875,-2.4856553077697754,-0.6754127740859985,-1.0312120914459229
1696964987853183000,9.487182861328124,1.7311019897460938,-0.2299039363861084,-1.765864610671997
1696964987863197400,9.497197509765625,-3.6635665893554688,0.33747291564941406,-1.101263403892517
1696964987873211600,9.507211669921874,0.540410041809082,-0.8243528604507446,-2.5613744258880615
1696964987883225900,9.517225830078125,-1.4096612930297852,-0.33508729934692383,0.27194494009017944
1696964987893240000,9.527239990234374,-1.9951858520507812,0.7553777694702148,0.8058441877365112
1696964987903254300,9.537254150390625,1.3119087219238281,2.7355430126190186,-0.3265267014503479
1696964987913268500,9.5472685546875,-5.219435691833496,-1.1561365127563477,0.22634899616241455
1696964987923282700,9.55728271484375,0.014413833618164062,-0.30953478813171387,1.8983103036880493
1696964987933297000,9.567296875,1.7729263305664062,-0.8484930992126465,2.278380870819092
1696964987943311000,9.57731103515625,-0.27349376678466797,-1.4055538177490234,-1.4171462059020996
1696964987953325300,9.5873251953125,1.169534683227539,0.11104631423950195,-1.0295684337615967
1696964987963339500,9.597339599609375,0.03840827941894531,0.2760331630706787,-0.8865781426429749
1696964987973353700,9.607353759765624,-4.359789848327637,-0.9737045764923096,-0.5286134481430054
1696964987983368000,9.617367919921875,2.5174074172973633,-1.3914600610733032,-1.071230173110962
1696964987993382100,9.627382080078124,1.0006866455078125,0.22649335861206055,1.5740528106689453
1696964988003396400,9.637396240234375,0.9018936157226562,0.35369813442230225,1.378495454788208
1696964988013410600,9.64741064453125,0.22052478790283203,0.3579096794128418,-0.23189878463745117
1696964988023424800,9.6574248046875,-1.027578353881836,-1.0761942863464355,-1.1440632343292236
1696964988033439000,9.66743896484375,0.417236328125,-0.6793869733810425,-1.2576637268066406
1696964988043453200,9.677453125,3.4029226303100586,-2.041201591491699,-0.7730835676193237
1696964988053467400,9.68746728515625,-0.22361469268798828,-1.3951150178909302,0.7473742365837097
1696964988063481600,9.697481689453125,2.1039628982543945,-0.13001877069473267,0.6556645035743713
1696964988073495800,9.707495849609375,-0.03770923614501953,0.7668278813362122,0.7139365673065186
1696964988083510000,9.717510009765626,2.5664587020874023,0.47853076457977295,0.9546229839324951
1696964988093524200,9.727524169921875,2.1011428833007812,0.06147575378417969,-0.22946515679359436
1696964988103538700,9.73753857421875,-0.6422748565673828,-0.4701715111732483,-0.6662349700927734
1696964988113553000,9.747552978515625,-2.07938814163208,-0.7432453632354736,-0.6324146389961243
1696964988123567000,9.757567138671876,-0.057707786560058594,-1.0022579431533813,-0.7536220550537109
1696964988133581300,9.767581298828125,0.6879978179931641,-0.04347217082977295,-2.479464530944824
1696964988143595500,9.777595458984376,-0.3313722610473633,-0.40143370628356934,-1.4926890134811401
1696964988153609700,9.787609619140625,-0.5933542251586914,-0.6901265382766724,-1.2177579402923584
1696964988163624000,9.7976240234375,-1.8913655281066895,-0.19550007581710815,-0.7970132827758789
1696964988173638100,9.80763818359375,0.7747898101806641,0.5091243386268616,-0.7946442365646362
1696964988183652400,9.81765234375,1.5237741470336914,-0.2878692150115967,-0.46835193037986755
1696964988193666600,9.82766650390625,-0.5637264251708984,-0.26420027017593384,-0.5424068570137024
1696964988203680800,9.8376806640625,1.8654670715332031,-1.4377169609069824,-0.43157732486724854
1696964988213695000,9.847695068359375,0.9338645935058594,-1.6152907609939575,0.027373462915420532
1696964988223709200,9.857709228515626,1.3807315826416016,-1.3804998397827148,-0.6444903612136841
1696964988233723400,9.867723388671875,0.9043073654174805,-0.5739599466323853,0.27525752782821655
1696964988243737600,9.877737548828126,1.4994134902954102,-0.19421637058258057,0.07219380140304565
1696964988253751800,9.887751708984375,0.6498680114746094,0.08274662494659424,-0.29156532883644104
1696964988263766000,9.89776611328125,0.433258056640625,-0.5961570739746094,0.33369526267051697
1696964988273780200,9.9077802734375,-0.251007080078125,-0.309861421585083,-0.11221903562545776
1696964988283794400,9.91779443359375,-1.3733253479003906,-0.06562161445617676,0.14392557740211487
1696964988293808600,9.92780859375,1.3156461715698242,-0.1680440902709961,0.10543975234031677
1696964988303822800,9.93782275390625,-1.2484607696533203,-0.708727240562439,0.2782471477985382
1696964988313837000,9.947837158203125,-0.858769416809082,-0.08030819892883301,0.3256354331970215
1696964988323851300,9.957851318359374,0.3384122848510742,-0.14892196655273438,0.2649238109588623
1696964988333865700,9.96786572265625,-1.8942680358886719,0.014545142650604248,0.4456813931465149
1696964988343880000,9.9778798828125,-1.8466997146606445,-0.1601390838623047,0.3817386031150818
1696964988353894100,9.98789404296875,-1.3358278274536133,0.5310076475143433,0.368184357881546
1696964988363908400,9.997908447265624,-1.2371854782104492,0.584213137626648,0.9380766749382019
1696964988373922600,10.007922607421875,-1.1676807403564453,0.3286128044128418,0.6996654272079468
1696964988383936800,10.017936767578124,-0.37705039978027344,0.12838727235794067,1.1625386476516724
1696964988393951000,10.027950927734375,2.285167694091797,-0.3576793670654297,-0.3442447781562805
1696964988403965200,10.037965087890624,-3.2594380378723145,-1.3561997413635254,-1.1004612445831299
1696964988413979400,10.0479794921875,1.6123676300048828,-0.3750184178352356,0.4362471103668213
1696964988423993600,10.05799365234375,0.714900016784668,-1.4646193981170654,-0.8284908533096313
1696964988434007800,10.0680078125,-0.798039436340332,-1.981335997581482,-0.6287786960601807
1696964988444022000,10.07802197265625,1.62237548828125,-3.3646013736724854,0.9725527763366699
1696964988454036200,10.0880361328125,1.9425392150878906,2.7562429904937744,-0.938144326210022
1696964988464050400,10.098050537109375,0.4188194274902344,-0.9805237650871277,-1.2376832962036133
1696964988474064600,10.108064697265625,0.9570226669311523,-0.07647013664245605,-0.4732566475868225
1696964988484078800,10.118078857421875,1.0846385955810547,-0.8729147911071777,-1.400820016860962
1696964988494093000,10.128093017578125,-1.7281017303466797,-1.1911340951919556,-0.19281047582626343
1696964988504107300,10.138107177734375,0.03487205505371094,1.3032195568084717,0.014588326215744019
1696964988514121500,10.14812158203125,1.3926315307617188,-0.08234769105911255,1.441528081893921
1696964988524135700,10.1581357421875,0.7959222793579102,0.3561322093009949,2.2923035621643066
1696964988534150000,10.16814990234375,1.9273910522460938,-0.7786561846733093,-0.9161540269851685
1696964988544164000,10.1781640625,-3.664212226867676,-0.5236059427261353,-0.005976319313049316
1696964988554178300,10.18817822265625,3.9719181060791016,-0.0025000572204589844,-0.4208228588104248
1696964988564192500,10.198192626953125,-1.9915847778320312,-0.11966812610626221,-0.5801331400871277
1696964988574207000,10.20820703125,0.5074090957641602,-0.3459777235984802,-0.0620635449886322
1696964988584221200,10.21822119140625,-0.42004871368408203,-1.556957483291626,0.07343247532844543
1696964988594235400,10.2282353515625,-2.1252102851867676,-0.0198972225189209,1.077945590019226
1696964988604249600,10.23824951171875,1.4310827255249023,-0.30292028188705444,0.47900256514549255
1696964988614263800,10.248263916015626,-1.9412240982055664,1.4679756164550781,0.4957663416862488
1696964988624278000,10.258278076171875,0.5815744400024414,1.9776735305786133,0.23438191413879395
1696964988634292200,10.268292236328126,-2.052713394165039,-1.906592845916748,1.122244119644165
1696964988644306400,10.278306396484375,-0.610137939453125,-0.791459321975708,2.161190986633301
1696964988654320600,10.288320556640626,-2.634772300720215,-1.3878638744354248,1.0240172147750854
1696964988664334800,10.2983349609375,-2.1085829734802246,0.9137665033340454,-0.08004668354988098
1696964988674349000,10.30834912109375,1.9197025299072266,1.890644907951355,0.3936610221862793
1696964988684363300,10.31836328125,1.8760786056518555,2.2692601680755615,-1.5497071743011475
1696964988694377500,10.32837744140625,-1.766169548034668,-0.6510308980941772,-0.7071077227592468
1696964988704391700,10.3383916015625,-1.5619449615478516,-1.95205819606781,0.91444331407547
1696964988714406000,10.348406005859376,-1.8362360000610352,-1.3417491912841797,1.8875552415847778
1696964988724420000,10.358420166015625,0.8339939117431641,0.32341229915618896,0.7662992477416992
1696964988734434300,10.368434326171876,2.4275379180908203,0.1724509596824646,-0.5589945912361145
1696964988744448500,10.378448486328125,-0.4799003601074219,1.3234095573425293,-1.2986841201782227
1696964988754462700,10.388462646484374,0.2904529571533203,0.13600438833236694,-1.0382059812545776
1696964988764477000,10.398476806640625,-2.7265701293945312,-1.6303526163101196,-0.760701060295105
1696964988774491100,10.4084912109375,1.3227348327636719,0.14711666107177734,-1.8701863288879395
1696964988784505300,10.41850537109375,-2.279301166534424,-1.1944396495819092,-1.602000117301941
1696964988794519600,10.42851953125,2.2892656326293945,-0.620876669883728,-2.2084872722625732
1696964988804533800,10.43853369140625,1.0029182434082031,0.019812285900115967,-1.9687122106552124
1696964988814548200,10.44854833984375,0.06301689147949219,-0.09638142585754395,-1.8146085739135742
1696964988824562400,10.4585625,3.02548885345459,-1.1434317827224731,-1.0766314268112183
1696964988834576600,10.46857666015625,-0.7812232971191406,-0.6117528080940247,0.6131676435470581
1696964988844590800,10.4785908203125,1.8678102493286133,-0.9588403105735779,-1.1017762422561646
1696964988854605000,10.48860498046875,1.801614761352539,0.016169965267181396,0.8517496585845947
1696964988864619300,10.498619384765625,-1.4138908386230469,-0.7688815593719482,-0.5791488885879517
1696964988874633500,10.508633544921874,-1.5866613388061523,-0.10893410444259644,-1.4365884065628052
1696964988884647700,10.518647705078125,-0.11037921905517578,0.025331556797027588,-2.017111301422119
1696964988894662000,10.528661865234374,-2.078032970428467,0.5969970226287842,-1.0041167736053467
1696964988904676000,10.538676025390625,-2.020326614379883,0.548448383808136,-1.0953019857406616
1696964988914690300,10.548690185546874,-0.557276725769043,-1.832466959953308,-2.8236162662506104
1696964988924704500,10.55870458984375,-0.15899944305419922,-1.2615891695022583,-2.8836231231689453
1696964988934718700,10.56871875,0.1331920623779297,0.24894767999649048,-2.9535093307495117
1696964988944733000,10.57873291015625,-0.26383113861083984,-0.410470575094223,-3.083946466445923
1696964988954747100,10.5887470703125,1.6389598846435547,1.5876741409301758,0.2301425039768219
1696964988964761300,10.59876123046875,-1.6577396392822266,0.024960100650787354,-0.11855970323085785
1696964988974775600,10.608775634765625,2.0067567825317383,0.08634406328201294,-1.608362078666687
1696964988984789800,10.618789794921875,-0.5879907608032227,-0.8546692132949829,-1.2729889154434204
1696964988994804000,10.628803955078125,0.5648155212402344,-0.8142279386520386,-0.28553691506385803
1696964989004818200,10.638818115234375,0.9270181655883789,-1.3505996465682983,-0.4016282558441162
1696964989014832400,10.648832275390625,0.5421590805053711,-0.83277428150177,0.7502313852310181
1696964989024846600,10.6588466796875,0.3117866516113281,0.38054412603378296,0.8443828821182251
1696964989034860800,10.66886083984375,-0.4349365234375,0.6286299824714661,1.2875171899795532
1696964989044875000,10.678875,1.9893512725830078,-0.9710028171539307,-0.338471919298172
1696964989054889500,10.688889404296875,-1.1031103134155273,0.6895380616188049,1.606608271598816
1696964989064903700,10.698903564453126,2.784745216369629,0.011596620082855225,-0.012491211295127869
1696964989074918000,10.70891796875,-1.1313304901123047,-0.049723267555236816,0.20557303726673126
1696964989084932000,10.71893212890625,-0.3975992202758789,-0.9537348747253418,-0.4007360637187958
1696964989094946300,10.7289462890625,-2.1839194297790527,1.0394201278686523,0.9367396235466003
1696964989104960500,10.73896044921875,2.4805049896240234,-0.008192777633666992,0.049696072936058044
1696964989114974700,10.748974609375,-1.6110353469848633,-0.695193886756897,-0.35790014266967773
1696964989124989000,10.758989013671876,-1.0962934494018555,-0.40252742171287537,0.22403809428215027
1696964989135003100,10.769003173828125,0.8280181884765625,0.45287150144577026,0.040424540638923645
1696964989145017300,10.779017333984376,-0.9995832443237305,0.5358099937438965,0.4149375855922699
1696964989155031600,10.789031494140625,0.603856086730957,-0.9682997465133667,-0.2924956679344177
1696964989165045800,10.799045654296876,0.2630729675292969,-0.49974325299263,0.715855062007904
1696964989175060000,10.80906005859375,1.3949975967407227,0.04847162961959839,0.3212526738643646
1696964989185074200,10.81907421875,-1.069580078125,-0.4273766577243805,0.5492842197418213
1696964989195088400,10.82908837890625,2.473756790161133,0.07700395584106445,0.7690337896347046
1696964989205102600,10.8391025390625,-0.06003570556640625,-1.0204238891601562,-0.15417197346687317
1696964989215116800,10.84911669921875,-2.468984603881836,0.38474005460739136,0.014715045690536499
1696964989225131000,10.859131103515624,1.9859018325805664,-0.499725878238678,0.14628994464874268
1696964989235145200,10.869145263671875,-0.3797941207885742,-0.45485177636146545,-0.26985689997673035
1696964989245159400,10.879159423828124,-1.158315658569336,-1.1308341026306152,-0.41303399205207825
1696964989255173600,10.889173583984375,0.22547054290771484,-0.2735724449157715,-0.08950738608837128
1696964989265187800,10.899187744140624,-0.8074483871459961,-0.1740126609802246,0.32545000314712524
1696964989275202000,10.9092021484375,-0.9015035629272461,-0.7121384739875793,-0.15818442404270172
1696964989285216300,10.91921630859375,-0.04395866394042969,-1.1224870681762695,-0.28678494691848755
1696964989295230700,10.929230712890625,-0.30685901641845703,-0.3757871687412262,0.15565067529678345
1696964989305245000,10.939244873046874,-0.7219400405883789,-0.027991771697998047,0.8484158515930176
1696964989315259100,10.949259033203125,1.1098814010620117,-0.8568060398101807,-0.2822211682796478
1696964989325273300,10.9592734375,-0.11603069305419922,-0.798588752746582,0.9120248556137085
1696964989335287600,10.96928759765625,0.08952713012695312,-0.3702370822429657,1.1296597719192505
1696964989345301800,10.9793017578125,0.22791004180908203,0.002675175666809082,0.6073089838027954
1696964989355316000,10.98931591796875,1.2355194091796875,-1.292673110961914,0.44996434450149536
1696964989365330200,10.999330078125,-0.04793262481689453,-0.11449027061462402,-0.09057259559631348
1696964989375344400,11.009344482421875,-0.35408592224121094,-1.1972355842590332,0.15320366621017456
1696964989385358600,11.019358642578124,2.2371063232421875,-1.2684428691864014,-0.3839990496635437
1696964989395372800,11.029372802734375,-1.6345882415771484,-0.521334171295166,-0.7930070757865906
1696964989405387000,11.039386962890624,0.20436859130859375,-0.6185504198074341,-0.9924231767654419
1696964989415401200,11.049401123046875,-0.16903972625732422,1.215050220489502,-0.6074159145355225
1696964989425415400,11.05941552734375,1.5612297058105469,0.879205584526062,-1.346166968345642
1696964989435429600,11.0694296875,-1.6829137802124023,-0.4718031585216522,-0.6326896548271179
1696964989445443800,11.07944384765625,0.43778419494628906,-1.3469589948654175,0.1337888240814209
1696964989455458000,11.0894580078125,0.3363065719604492,0.6385897397994995,0.9418156147003174
1696964989465472300,11.09947216796875,-0.15235328674316406,-0.10045719146728516,-0.18911772966384888
1696964989475486500,11.109486572265626,0.5978822708129883,0.3835834264755249,-0.7809369564056396
1696964989485500700,11.119500732421875,0.49098777770996094,-1.301058292388916,0.41166433691978455
1696964989495515000,11.129514892578126,0.6661252975463867,-0.09322476387023926,0.576246976852417
1696964989505529000,11.139529052734375,0.13370895385742188,-0.8120723962783813,-0.2961843013763428
1696964989515543300,11.149543212890626,0.22853565216064453,-0.7439169883728027,-1.0075615644454956
1696964989525557800,11.159557861328125,0.4379386901855469,-0.28383228182792664,-0.16873152554035187
1696964989535572000,11.169572021484376,-0.24203014373779297,-0.6667205095291138,-0.8513156175613403
1696964989545586200,11.179586181640625,-0.08902454376220703,-0.9983691573143005,-1.1558490991592407
1696964989555600400,11.189600341796876,0.9146184921264648,0.1545814871788025,-0.9313066005706787
1696964989565614600,11.199614501953125,0.0948019027709961,-0.127333402633667,0.08755716681480408
1696964989575628800,11.20962890625,1.6425609588623047,-0.7957475185394287,0.6099010705947876
1696964989585643000,11.21964306640625,-1.080887794494629,-0.9158284664154053,0.998560905456543
1696964989595657200,11.2296572265625,-0.6436395645141602,-0.7289040684700012,0.6045821309089661
1696964989605671400,11.23967138671875,0.5237159729003906,-0.07930797338485718,1.1966882944107056
1696964989615685600,11.249685546875,1.5974512100219727,-0.8440535068511963,0.5725149512290955
1696964989625699800,11.259699951171875,-0.9012594223022461,-0.48039621114730835,1.047560214996338
1696964989635714000,11.269714111328126,0.864079475402832,-0.8192360401153564,0.7562369108200073
1696964989645728300,11.279728271484375,-1.2693510055541992,-0.4363727867603302,0.7231439352035522
1696964989655742500,11.289742431640626,-0.34411144256591797,-0.6374771595001221,0.9494518041610718
1696964989665756700,11.299756591796875,0.05352306365966797,-1.000502109527588,0.24067796766757965
1696964989675771000,11.30977099609375,-1.5283622741699219,-0.06638801097869873,-0.3338463306427002
1696964989685785000,11.31978515625,1.586451530456543,0.45243018865585327,0.8019582033157349
1696964989695799300,11.32979931640625,-0.018035888671875,-1.2884774208068848,-0.0781145691871643
1696964989705813500,11.3398134765625,-2.345317840576172,-0.7537705302238464,-0.4912926256656647
1696964989715827700,11.34982763671875,1.3355770111083984,-0.05698859691619873,0.6836870908737183
1696964989725842000,11.359842041015625,-0.9946403503417969,0.20197570323944092,0.3124072253704071
1696964989735856000,11.369856201171874,-0.7104053497314453,-0.7822117209434509,-0.32516467571258545
1696964989745870300,11.379870361328125,0.7539844512939453,-0.5460735559463501,-0.6844512224197388
1696964989755884500,11.389884521484374,-0.5429296493530273,0.5333813428878784,-0.39422622323036194
1696964989765899000,11.39989892578125,-0.14964866638183594,0.7170851826667786,-1.462661862373352
1696964989775913200,11.409913330078124,-1.3152446746826172,-0.423873633146286,-1.6711361408233643
1696964989785927400,11.419927490234375,-1.2642745971679688,-0.5839429497718811,-0.9587390422821045
1696964989795941600,11.429941650390624,0.029137611389160156,-0.29003283381462097,-1.0189330577850342
1696964989805955800,11.439955810546875,0.03851795196533203,0.013217806816101074,-1.5992138385772705
1696964989815970000,11.449969970703124,0.8077049255371094,-0.5584290027618408,-1.7145544290542603
1696964989825984300,11.459984375,-0.32698917388916016,-1.0388919115066528,-1.2799619436264038
1696964989835998500,11.46999853515625,0.1466503143310547,0.29652243852615356,-0.33002713322639465
1696964989846012700,11.4800126953125,2.4446983337402344,-0.14939278364181519,-0.7068756222724915
1696964989856027000,11.49002685546875,-0.4049549102783203,-1.1232247352600098,-1.8463551998138428
1696964989866041000,11.500041015625,-0.24196338653564453,-1.500023603439331,-0.9553373456001282
1696964989876055300,11.51005517578125,2.6114139556884766,1.1793239116668701,-0.5842989087104797
1696964989886069500,11.520069580078125,-0.0141448974609375,-0.22170612215995789,-1.6018829345703125
1696964989896083700,11.530083740234375,-1.0563669204711914,-1.1417293548583984,-2.310577392578125
1696964989906098000,11.540097900390625,-0.09352493286132812,-0.755943775177002,-1.4258965253829956
1696964989916112100,11.550112060546875,0.31267738342285156,0.31516844034194946,-1.5702263116836548
1696964989926126300,11.560126220703125,-1.2080249786376953,-0.5527229309082031,-2.322436809539795
1696964989936140500,11.570140625,-1.2052545547485352,-1.3984884023666382,-2.2007713317871094
1696964989946154800,11.58015478515625,-0.40907955169677734,-0.6046150922775269,-1.0453176498413086
1696964989956169000,11.5901689453125,0.19882488250732422,-0.8079959154129028,-1.5837405920028687
1696964989966183200,11.60018310546875,0.3129911422729492,-1.0969853401184082,-1.082430362701416
1696964989976197400,11.610197265625,0.6514749526977539,-0.3622250258922577,0.20381063222885132
1696964989986211600,11.620211669921876,1.4480161666870117,-0.171193927526474,0.4016930162906647
1696964989996225800,11.630225830078125,0.3596210479736328,-0.6872924566268921,-0.47371241450309753
1696964990006240300,11.640240234375,0.6120576858520508,-0.7051858305931091,-0.09986093640327454
1696964990016254500,11.65025439453125,-0.0010213851928710938,-0.22758153080940247,-0.054331544786691666
1696964990026268700,11.6602685546875,-0.11094951629638672,-0.08775216341018677,-0.3372226059436798
1696964990036283000,11.670282958984375,0.830902099609375,-0.45692798495292664,-0.6519314050674438
1696964990046297000,11.680297119140626,-0.6572589874267578,-0.9787293672561646,0.09141325950622559
1696964990056311300,11.690311279296875,-0.2207345962524414,0.05667012929916382,0.381819486618042
1696964990066325500,11.700325439453126,0.3439178466796875,-0.22277036309242249,0.23565208911895752
1696964990076339700,11.710339599609375,0.1089181900024414,-0.21714350581169128,0.40113574266433716
1696964990086354000,11.72035400390625,-0.39762306213378906,-0.3444126546382904,0.34339284896850586
1696964990096368000,11.7303681640625,-0.5543079376220703,0.4599466323852539,0.8183767795562744
1696964990106382300,11.74038232421875,0.9477720260620117,-0.0916140079498291,0.5637322664260864
1696964990116396500,11.750396484375,-0.2490520477294922,-0.22831067442893982,0.6450314521789551
1696964990126410800,11.76041064453125,-0.9938650131225586,-0.44785428047180176,0.6760651469230652
1696964990136425000,11.770425048828125,1.1688051223754883,0.18359529972076416,1.0333143472671509
1696964990146439200,11.780439208984374,0.5926475524902344,0.5391907691955566,0.8950355052947998
1696964990156453400,11.790453369140625,-0.22103500366210938,-0.3490425646305084,0.28252357244491577
1696964990166467600,11.800467529296874,-0.9037294387817383,-0.20580485463142395,0.4291538894176483
1696964990176481800,11.810481689453125,1.6027603149414062,0.32935839891433716,0.7383115291595459
1696964990186496000,11.82049609375,0.3135795593261719,0.3908783793449402,0.6072983741760254
1696964990196510200,11.83051025390625,0.14084434509277344,-0.3096689283847809,-0.18576650321483612
1696964990206524400,11.8405244140625,-0.4757661819458008,0.13296043872833252,0.15019860863685608
1696964990216538600,11.85053857421875,1.1360454559326172,0.25003933906555176,0.5147491097450256
1696964990226552800,11.860552734375,-0.4292001724243164,0.23549503087997437,-0.21509671211242676
1696964990236567000,11.870567138671875,-0.0026950836181640625,-0.23996451497077942,-0.35713836550712585
1696964990246581500,11.88058154296875,0.9389791488647461,0.17806661128997803,0.5325202941894531
1696964990256595700,11.890595703125,-0.7977466583251953,-0.03338688611984253,-0.4212527275085449
1696964990266610000,11.90060986328125,-0.6474876403808594,0.3090299963951111,-0.38669049739837646
1696964990276624100,11.9106240234375,0.6733818054199219,-0.02990436553955078,0.048687249422073364
1696964990286638300,11.920638427734374,0.18454551696777344,0.07572388648986816,-0.19076569378376007
1696964990296652500,11.930652587890625,-0.7284107208251953,0.2868584990501404,-0.5078858733177185
1696964990306666800,11.940666748046874,0.7597618103027344,-0.46143969893455505,-0.3026452362537384
1696964990316681000,11.950680908203125,-0.6226987838745117,-0.438895046710968,-0.5541682839393616
1696964990326695200,11.960695068359374,-1.4956321716308594,0.8421695232391357,-0.2282513529062271
1696964990336709400,11.97070947265625,1.4140329360961914,0.4102862477302551,-0.38990694284439087
1696964990346723600,11.9807236328125,-0.8401279449462891,-0.6312917470932007,-0.2662908434867859
1696964990356737800,11.99073779296875,0.4381256103515625,-0.20695355534553528,-0.44146379828453064
1696964990366752000,12.000751953125,-0.8385190963745117,0.6010218262672424,-0.3451996445655823
1696964990376766200,12.01076611328125,1.1754474639892578,-0.08850222826004028,-0.11074671149253845
1696964990386780400,12.020780517578125,-0.9725379943847656,-0.45500749349594116,-0.566922128200531
1696964990396794600,12.030794677734375,-1.2140207290649414,0.27924680709838867,-0.12301917374134064
1696964990406808800,12.040808837890625,1.8240623474121094,0.6419858932495117,-0.18900902569293976
1696964990416823000,12.050822998046876,-0.22577667236328125,-0.15007466077804565,-0.029927387833595276
1696964990426837200,12.060837158203125,-0.33960533142089844,-0.36346128582954407,-0.4867306649684906
1696964990436851500,12.0708515625,-0.7354106903076172,0.1868775486946106,0.15547789633274078
1696964990446865700,12.08086572265625,1.2403812408447266,0.49386680126190186,-0.1986950933933258
1696964990456879900,12.0908798828125,-1.2380332946777344,0.13198161125183105,-0.2479541003704071
1696964990466894000,12.10089404296875,0.23221492767333984,-0.20790129899978638,-0.26579171419143677
1696964990476908300,12.110908203125,0.2843484878540039,0.7466937303543091,0.26427650451660156
1696964990486922800,12.1209228515625,0.31726837158203125,0.04943704605102539,-0.0468861386179924
1696964990496937000,12.13093701171875,-1.2222261428833008,0.08625847101211548,-0.4501703381538391
1696964990506951200,12.140951171875,0.37218761444091797,0.04340171813964844,0.11568380892276764
1696964990516965400,12.15096533203125,-0.010807037353515625,0.45620328187942505,-0.0017527937889099121
1696964990526979600,12.1609794921875,-0.09203243255615234,0.05348688364028931,-0.5214736461639404
1696964990536993800,12.170993896484376,-0.1824321746826172,0.1426486372947693,0.1502784788608551
1696964990547008000,12.181008056640625,0.4631633758544922,0.04656308889389038,0.08016921579837799
1696964990557022200,12.191022216796876,-0.5413446426391602,0.2017081379890442,-0.20017705857753754
1696964990567036400,12.201036376953125,0.31058788299560547,-0.0515018105506897,-0.08769990503787994
1696964990577050600,12.211050537109376,0.8022327423095703,0.19509941339492798,0.015765443444252014
1696964990587064800,12.22106494140625,-0.13156700134277344,-0.03140372037887573,-0.22803224623203278
1696964990597079000,12.2310791015625,0.11261653900146484,0.15364974737167358,0.010314449667930603
1696964990607093200,12.24109326171875,0.9677791595458984,0.167122483253479,0.08368237316608429
1696964990617107500,12.251107421875,0.2727317810058594,-0.1478472352027893,-0.17127850651741028
1696964990627121700,12.26112158203125,-0.6263341903686523,-0.430215984582901,-0.37180620431900024
1696964990637136000,12.271135986328124,1.7361059188842773,0.11465656757354736,0.07933752238750458
1696964990647150000,12.281150146484375,0.030913352966308594,0.16165781021118164,0.34810084104537964
1696964990657164300,12.291164306640624,-0.3275613784790039,0.20337951183319092,-0.28121230006217957
1696964990667178500,12.301178466796875,1.2648506164550781,-0.16289961338043213,-0.25150400400161743
1696964990677192700,12.311192626953124,0.08639144897460938,0.04386258125305176,-0.08041641861200333
1696964990687207000,12.32120703125,-0.24338054656982422,-0.23587501049041748,-0.18073958158493042
1696964990697221000,12.33122119140625,-0.10385894775390625,-0.38256821036338806,-0.45845621824264526
1696964990707235300,12.3412353515625,0.6755256652832031,0.38607561588287354,0.11521846055984497
1696964990717249500,12.35124951171875,0.9466896057128906,0.1217840313911438,-0.36982667446136475
1696964990727264000,12.361263916015625,-1.8272008895874023,-0.36893782019615173,-0.558099627494812
1696964990737278200,12.3712783203125,1.0017623901367188,-0.12465065717697144,0.03170226514339447
1696964990747292400,12.38129248046875,0.2973642349243164,0.2415977120399475,-0.1636187732219696
1696964990757306600,12.391306640625,-1.0223369598388672,-0.1847805380821228,-0.45017898082733154
1696964990767320800,12.40132080078125,1.164499282836914,0.027566194534301758,-0.22142726182937622
1696964990777335000,12.4113349609375,0.0005750656127929688,0.23460334539413452,0.3369162082672119
1696964990787349200,12.421349365234375,-0.6443033218383789,-0.6009964942932129,-0.4766002297401428
1696964990797363500,12.431363525390625,-0.011853218078613281,0.2173604965209961,-0.13057123124599457
1696964990807377700,12.441377685546875,1.536935806274414,0.0691339373588562,0.05507403612136841
1696964990817391900,12.451391845703125,-1.3866052627563477,-0.10634595155715942,-0.2982322871685028
1696964990827406000,12.461406005859375,0.6002740859985352,-0.07443815469741821,-0.2586347758769989
1696964990837420300,12.471420166015625,0.5177431106567383,0.13337671756744385,-0.0808696448802948
1696964990847434500,12.4814345703125,-0.5679712295532227,-0.29680168628692627,-0.18297982215881348
1696964990857448700,12.49144873046875,-0.6334466934204102,0.10991156101226807,-0.2967190742492676
1696964990867463000,12.501462890625,1.045806884765625,0.10667198896408081,-0.09058475494384766
1696964990877477000,12.51147705078125,-0.2945985794067383,-0.17435234785079956,-0.31640100479125977
1696964990887491300,12.5214912109375,-1.4692487716674805,0.1584925651550293,-0.5390355587005615
1696964990897505500,12.531505615234375,0.6037168502807617,0.13395512104034424,-0.005871191620826721
1696964990907519700,12.541519775390626,0.37328052520751953,-0.09073293209075928,-0.1489829123020172
1696964990917534000,12.551533935546875,-1.2571496963500977,-0.14424902200698853,-0.16009679436683655
1696964990927548200,12.561548095703126,0.9396152496337891,0.4190549850463867,-0.0013598799705505371
1696964990937562400,12.571562255859375,-0.5055532455444336,-0.3652743995189667,-0.23434212803840637
