time,seconds_elapsed,z,y,x
1696965065392290600,0.13829052734375,-2.0357465744018555,-0.40228044986724854,1.24936842918396
1696965065402199000,0.148198974609375,1.3458976745605469,0.6751319169998169,1.3211239576339722
1696965065412142600,0.158142578125,-0.5792007446289062,-0.40081679821014404,0.15045982599258423
1696965065422122500,0.16812255859375,-1.6154823303222656,-0.8369848132133484,-0.16500556468963623
1696965065432138500,0.178138427734375,-2.2737832069396973,-0.33413565158843994,-0.12991559505462646
1696965065442189000,0.18818896484375,-1.2258977890014648,0.2988697290420532,-0.5632019639015198
1696965065452271900,0.19827197265625,-0.924870491027832,-0.8639140129089355,-0.3928101658821106
1696965065462382300,0.20838232421875,-2.479313373565674,-0.8365238308906555,-0.6633315086364746
1696965065472515600,0.218515625,-0.6878299713134766,-0.34697431325912476,0.18706375360488892
1696965065482666000,0.228666015625,0.9885034561157227,0.7039401531219482,0.8241711854934692
1696965065492827600,0.23882763671875,0.41935157775878906,-0.35037344694137573,0.14209914207458496
1696965065502994000,0.248993896484375,-1.2306947708129883,-1.339370608329773,-0.14101296663284302
1696965065513122300,0.259122314453125,0.6941633224487305,-0.10141241550445557,1.0076147317886353
1696965065523136500,0.269136474609375,0.4620084762573242,0.024212002754211426,-0.09964460134506226
1696965065533150700,0.279150634765625,-0.9649076461791992,-0.46076974272727966,-0.08048766851425171
1696965065543164700,0.28916455078125,1.6743383407592773,-0.7006521821022034,0.24464571475982666
1696965065553179000,0.299178955078125,-1.625636100769043,0.15933001041412354,0.31999748945236206
1696965065563193000,0.309193115234375,1.970393180847168,-0.4271315634250641,0.013397395610809326
1696965065573207300,0.319207275390625,-0.6027584075927734,-0.3115042448043823,0.6597476005554199
1696965065583221500,0.329221435546875,-0.3176431655883789,-0.3060837388038635,0.4144406318664551
1696965065593235700,0.339235595703125,0.2439746856689453,-0.27121931314468384,0.5739917755126953
1696965065603250000,0.34925,1.3894519805908203,0.19782644510269165,0.7026315331459045
1696965065613264000,0.359263916015625,-1.5806636810302734,-0.2210099697113037,0.47818809747695923
1696965065623278000,0.369278076171875,0.3022737503051758,-0.2516079545021057,0.6492336392402649
1696965065633292300,0.379292236328125,0.047226905822753906,0.15516960620880127,0.7804650068283081
1696965065643306500,0.389306396484375,-0.5442781448364258,-0.05107492208480835,0.4753066301345825
1696965065653320700,0.39932080078125,0.011280059814453125,-0.024467289447784424,0.8449515104293823
1696965065663335000,0.4093349609375,0.22572994232177734,0.2815279960632324,0.9908110499382019
1696965065673348900,0.419348876953125,-0.6238527297973633,-0.02281719446182251,0.5714067816734314
1696965065683363000,0.429363037109375,0.7083454132080078,0.30481910705566406,0.7629876136779785
1696965065693377300,0.439377197265625,-0.2710590362548828,0.2271619439125061,0.6958366632461548
1696965065703391500,0.4493916015625,-0.22675228118896484,0.09802055358886719,0.49983733892440796
1696965065713405700,0.45940576171875,0.44745922088623047,0.3961218595504761,0.9585646986961365
1696965065723420000,0.469419921875,-0.10546302795410156,0.31871509552001953,0.6323959827423096
1696965065733433900,0.479433837890625,0.24810028076171875,0.136400043964386,0.7287529706954956
1696965065743448000,0.489447998046875,1.0246763229370117,0.30823731422424316,0.6431955695152283
1696965065753462300,0.499462158203125,-0.642085075378418,0.3220372796058655,0.6098743677139282
1696965065763476500,0.5094765625,1.1482715606689453,-0.11226147413253784,0.3450440466403961
1696965065773490700,0.51949072265625,0.38816356658935547,0.10078960657119751,0.7273699641227722
1696965065783505000,0.5295048828125,-0.30938053131103516,-0.07618385553359985,0.38959214091300964
1696965065793518800,0.539518798828125,0.8939695358276367,0.5843693017959595,0.43364784121513367
1696965065803533000,0.549532958984375,-0.0061321258544921875,-0.08925080299377441,0.15287891030311584
1696965065813547300,0.55954736328125,-0.7292957305908203,-0.02710402011871338,0.6421602964401245
1696965065823561500,0.5695615234375,1.277475357055664,0.2745579481124878,0.025342971086502075
1696965065833575700,0.57957568359375,-2.2105894088745117,0.02597332000732422,-0.09014865756034851
1696965065843590000,0.58958984375,1.314727783203125,0.16631650924682617,0.3157576322555542
1696965065853603800,0.599603759765625,-0.787592887878418,0.3634836673736572,-0.03921116888523102
1696965065863618000,0.6096181640625,-1.6958856582641602,-0.29626739025115967,0.14303654432296753
1696965065873632300,0.61963232421875,0.9041748046875,0.16216230392456055,0.0030418410897254944
1696965065883646500,0.629646484375,-1.3804235458374023,0.13164687156677246,-0.05572335422039032
1696965065893660700,0.63966064453125,-0.7870979309082031,-0.29972386360168457,-0.10321754217147827
1696965065903675000,0.6496748046875,0.6113700866699219,0.1076059341430664,0.13741961121559143
1696965065913689000,0.659689208984375,-0.7037105560302734,-0.05720663070678711,0.23672127723693848
1696965065923703000,0.669703125,0.18442726135253906,-0.24517500400543213,-0.0160151869058609
1696965065933717200,0.67971728515625,0.45062255859375,-0.09405767917633057,0.2938923239707947
1696965065943731500,0.6897314453125,-0.29677867889404297,-0.4562802314758301,-0.06764841824769974
1696965065953745700,0.69974560546875,1.5431032180786133,-0.04650616645812988,-0.07601185888051987
1696965065963759900,0.709759765625,-0.9052143096923828,-0.2469160556793213,0.15585877001285553
1696965065973774000,0.719774169921875,1.0103063583374023,-0.578866720199585,-0.08046554774045944
1696965065983788300,0.729788330078125,1.0100011825561523,-0.0455317497253418,0.1411215215921402
1696965065993802500,0.739802490234375,-0.7418756484985352,-0.3686777353286743,-0.13979680836200714
1696965066003816700,0.749816650390625,1.0020122528076172,-0.3221912384033203,0.040620703250169754
1696965066013831000,0.759830810546875,0.4735269546508789,-0.039064645767211914,0.01943177729845047
1696965066023845000,0.76984521484375,-1.0492963790893555,-0.3721855878829956,-0.21935826539993286
1696965066033859300,0.779859375,0.9214820861816406,0.004930257797241211,0.3340100347995758
1696965066043873500,0.78987353515625,0.40866851806640625,-0.30368292331695557,0.14805927872657776
1696965066053887700,0.7998876953125,-1.402419090270996,-0.14009344577789307,0.19919899106025696
1696965066063902000,0.80990185546875,1.4200305938720703,-0.1463320255279541,0.18083737790584564
1696965066073916200,0.819916259765625,-0.8724889755249023,0.16326284408569336,0.3886164426803589
1696965066083930400,0.829930419921875,-0.3125143051147461,-0.5451171398162842,0.1886386126279831
1696965066093944600,0.839944580078125,-0.2373056411743164,0.18731725215911865,0.48199543356895447
1696965066103958800,0.849958740234375,0.17287063598632812,-0.4380377531051636,0.3015921413898468
1696965066113973000,0.859972900390625,-0.9694671630859375,-0.027272701263427734,0.4052548408508301
1696965066123987200,0.8699873046875,1.3804454803466797,0.08927953243255615,0.4724844992160797
1696965066134001400,0.88000146484375,-1.8589410781860352,-0.3196505308151245,0.05484985560178757
1696965066144015600,0.890015625,-0.3932218551635742,-0.18081820011138916,0.4240839183330536
1696965066154029800,0.90002978515625,0.15169048309326172,-0.060793519020080566,0.43436601758003235
1696965066164044000,0.9100439453125,-1.3605937957763672,-0.4201841354370117,0.10350251197814941
1696965066174058200,0.920058349609375,0.4454174041748047,-0.3794480562210083,0.01813299022614956
1696965066184072400,0.930072509765625,-0.6441221237182617,0.200944185256958,0.08867254108190536
1696965066194086700,0.940086669921875,-0.12038516998291016,-0.1296367645263672,0.06857697665691376
1696965066204101000,0.95010107421875,-0.6259393692016602,-0.47447502613067627,0.12484975904226303
1696965066214115300,0.960115234375,0.49457263946533203,-0.2904576063156128,0.24600714445114136
1696965066224129500,0.970129638671875,-0.77130126953125,-0.03656196594238281,-0.01704903319478035
1696965066234143700,0.980143798828125,1.0995502471923828,-0.4765305519104004,0.09714755415916443
1696965066244158000,0.990157958984375,-0.044745445251464844,-0.2701377868652344,-0.1087234616279602
1696965066254172200,1.000172119140625,-0.5042552947998047,-0.06674683094024658,0.25280338525772095
1696965066264186400,1.010186279296875,0.9519186019897461,-0.698172926902771,-0.10474489629268646
1696965066274200600,1.02020068359375,-0.20530986785888672,0.034062981605529785,0.004967805929481983
1696965066284214800,1.03021484375,0.39441394805908203,-0.6124565601348877,-0.0807095617055893
1696965066294229000,1.04022900390625,-0.6102066040039062,-0.20831680297851562,0.000028553418815135956
1696965066304243200,1.0502431640625,1.805521011352539,-0.1224212646484375,-0.0038071544840931892
1696965066314257400,1.06025732421875,-1.6748151779174805,-0.5131984949111938,-0.32333874702453613
1696965066324271600,1.070271728515625,1.4582452774047852,-0.35006552934646606,0.16453416645526886
1696965066334285800,1.080285888671875,-0.13521957397460938,-0.15322846174240112,0.09044694155454636
1696965066344300000,1.090300048828125,-0.5325870513916016,-0.5351605415344238,-0.13678815960884094
1696965066354314200,1.100314208984375,1.043527603149414,0.15467649698257446,0.20533576607704163
1696965066364328400,1.110328369140625,0.11806774139404297,-0.47634875774383545,-0.05675855651497841
1696965066374342700,1.1203427734375,-0.8890047073364258,-0.23677819967269897,-0.08973507583141327
1696965066384356900,1.13035693359375,0.5481405258178711,-0.5307530164718628,-0.07878933101892471
1696965066394371000,1.14037109375,0.20169734954833984,0.2869531512260437,-0.07379938662052155
1696965066404385300,1.15038525390625,-0.8063840866088867,-0.5626770257949829,-0.3822970390319824
1696965066414399500,1.1603994140625,1.157144546508789,0.10066348314285278,-0.005963033065199852
1696965066424413700,1.17041357421875,-1.008371353149414,-0.2611440420150757,0.18701155483722687
1696965066434428000,1.180427978515625,-0.059357643127441406,-0.5092638731002808,-0.30481064319610596
1696965066444442400,1.1904423828125,0.48763275146484375,-0.0759783387184143,0.14547303318977356
1696965066454456600,1.20045654296875,0.02759838104248047,0.03730964660644531,0.1009816974401474
1696965066464470800,1.210470703125,-0.9698715209960938,-0.781828761100769,-0.1636427789926529
1696965066474485000,1.220485107421875,1.3469562530517578,0.07954001426696777,0.39692458510398865
1696965066484499200,1.230499267578125,-0.7351751327514648,-0.02990967035293579,0.1968776136636734
1696965066494513400,1.240513427734375,-0.0924997329711914,-0.7223218679428101,-0.19889086484909058
1696965066504527600,1.250527587890625,0.4881572723388672,0.06987196207046509,0.14194776117801666
1696965066514541800,1.260541748046875,-0.10960769653320312,-0.4172137379646301,0.3166138231754303
1696965066524556000,1.27055615234375,-0.17040538787841797,-0.4192706346511841,0.037597548216581345
1696965066534570200,1.2805703125,0.8719015121459961,-0.11877071857452393,0.2601158022880554
1696965066544584400,1.29058447265625,-0.8742361068725586,-0.23425620794296265,0.3050611615180969
1696965066554598700,1.3005986328125,0.6441230773925781,-0.5416086912155151,0.3077061176300049
1696965066564612900,1.31061279296875,0.39218997955322266,-0.18891650438308716,0.3343764543533325
1696965066574627000,1.320626953125,-0.7942333221435547,-0.33695489168167114,0.17017540335655212
1696965066584641300,1.330641357421875,0.8282566070556641,-0.4731028079986572,0.24173268675804138
1696965066594655500,1.340655517578125,0.4420003890991211,0.02503812313079834,0.2731059789657593
1696965066604669700,1.350669677734375,-1.054086685180664,-0.41831398010253906,0.10982385277748108
1696965066614684000,1.360683837890625,1.012833595275879,-0.33182263374328613,0.13847102224826813
1696965066624698000,1.370697998046875,0.11639690399169922,-0.09510672092437744,0.2606998682022095
1696965066634712300,1.38071240234375,-0.9350996017456055,-0.4959798753261566,-0.18827712535858154
1696965066644726500,1.3907265625,0.8837690353393555,-0.2560690641403198,0.19799768924713135
1696965066654740700,1.40074072265625,0.11685752868652344,-0.026142537593841553,0.19057615101337433
1696965066664755000,1.4107548828125,-1.0015592575073242,-0.3402296304702759,0.08949045836925507
1696965066674769200,1.42076904296875,1.3555822372436523,-0.251015305519104,0.16845835745334625
1696965066684783600,1.43078369140625,-1.0700702667236328,-0.20495349168777466,0.13804079592227936
1696965066694797800,1.4407978515625,0.16493988037109375,-0.44739818572998047,-0.024873655289411545
1696965066704812000,1.45081201171875,0.4209556579589844,0.07582181692123413,0.19342434406280518
1696965066714826200,1.460826171875,-0.38556957244873047,-0.33289778232574463,0.04942202568054199
1696965066724840400,1.47084033203125,-0.6919384002685547,-0.24626290798187256,-0.10766784101724625
1696965066734854700,1.480854736328125,0.6929311752319336,-0.0769033432006836,0.09768238663673401
1696965066744868900,1.490868896484375,-1.6617469787597656,-0.3136475086212158,-0.003956612199544907
1696965066754883000,1.500883056640625,-0.13725662231445312,-0.4829615354537964,-0.2931898832321167
1696965066764897300,1.510897216796875,0.32105350494384766,0.09047627449035645,-0.5840278267860413
1696965066774911500,1.520911376953125,-1.7127761840820312,-0.39713823795318604,-0.06737074255943298
1696965066784925700,1.53092578125,0.6164760589599609,-0.34438204765319824,-0.3786151111125946
1696965066794940000,1.54093994140625,-0.6389570236206055,0.0171205997467041,-0.031023234128952026
1696965066804954000,1.5509541015625,0.0746908187866211,-0.09513282775878906,-0.13860705494880676
1696965066814968300,1.56096826171875,-0.34931278228759766,-0.375795841217041,0.1748155653476715
1696965066824982500,1.570982421875,1.252436637878418,-0.19028103351593018,-0.05703659728169441
1696965066834996700,1.580996826171875,-1.1639556884765625,-0.390475869178772,-0.07777749001979828
1696965066845011000,1.591010986328125,1.2140235900878906,-0.4118161201477051,0.04981604218482971
1696965066855025200,1.601025146484375,0.09734821319580078,-0.06393551826477051,0.05206677317619324
1696965066865039400,1.611039306640625,0.07775497436523438,-0.6924676299095154,-0.11151409149169922
1696965066875053600,1.621053466796875,0.7723588943481445,-0.17452216148376465,0.020416773855686188
1696965066885067800,1.63106787109375,0.49170970916748047,0.023337960243225098,-0.02615373581647873
1696965066895082000,1.64108203125,-1.225255012512207,-0.5197110176086426,0.07299553602933884
1696965066905096200,1.65109619140625,1.4677886962890625,-0.4369468688964844,-0.06419496238231659
1696965066915110400,1.6611103515625,-0.5073938369750977,-0.022777199745178223,0.1140328198671341
1696965066925124900,1.671124755859375,0.5623750686645508,-0.47565126419067383,-0.19332903623580933
1696965066935139000,1.68113916015625,0.11638069152832031,-0.09892284870147705,0.12734892964363098
1696965066945153300,1.6911533203125,1.020650863647461,-0.17198514938354492,0.27210932970046997
1696965066955167500,1.70116748046875,-1.8518996238708496,-0.6069347858428955,0.29520052671432495
1696965066965181700,1.711181640625,1.968857765197754,-0.33105993270874023,0.22148072719573975
1696965066975196200,1.721196044921875,-0.5091114044189453,0.050467729568481445,0.47834312915802
1696965066985210400,1.73121044921875,-0.2204904556274414,-0.7055408954620361,0.08017975091934204
1696965066995224600,1.741224609375,1.6243886947631836,0.5708930492401123,0.3157934844493866
1696965067005238800,1.75123876953125,-1.0186214447021484,-0.5217530727386475,0.18906405568122864
1696965067015253200,1.761253173828125,-1.065032958984375,-0.5949528217315674,0.36738213896751404
1696965067025267500,1.771267333984375,1.246790885925293,-0.14662837982177734,0.17987123131752014
1696965067035281700,1.78128173828125,-0.9129724502563477,-0.13559675216674805,0.2633763551712036
1696965067045295900,1.7912958984375,0.7594499588012695,-0.3060342073440552,0.44250497221946716
1696965067055310300,1.801310302734375,0.34125328063964844,-0.038440704345703125,0.1407550722360611
1696965067065324500,1.811324462890625,-1.7804069519042969,-0.29198944568634033,0.6824818849563599
1696965067075338800,1.8213388671875,1.0118093490600586,-0.41021227836608887,0.21433570981025696
1696965067085353000,1.83135302734375,-0.05105781555175781,-0.2978940010070801,0.49998217821121216
1696965067095367200,1.8413671875,-0.022118568420410156,-0.40678632259368896,0.26141437888145447
1696965067105381600,1.851381591796875,-0.01689910888671875,-0.07917642593383789,-0.14364323019981384
1696965067115395800,1.861395751953125,0.178680419921875,-0.15181684494018555,0.49752575159072876
1696965067125410000,1.87141015625,-0.0983133316040039,-0.10205984115600586,-0.036809004843235016
1696965067135424300,1.88142431640625,-1.3222246170043945,-0.5648809671401978,-0.13948991894721985
1696965067145438700,1.891438720703125,1.0724143981933594,-0.16379320621490479,0.22852370142936707
1696965067155453000,1.901452880859375,-0.8295125961303711,-0.1283797025680542,-0.1053880974650383
1696965067165467100,1.911467041015625,-0.28641319274902344,-0.6203283071517944,-0.27970418334007263
1696965067175481300,1.9214814453125,-0.05582141876220703,-0.10521566867828369,-0.19438163936138153
1696965067185495800,1.931495849609375,-0.7843132019042969,-0.16967236995697021,-0.041480883955955505
1696965067195510000,1.941510009765625,0.34461498260498047,-0.6509872674942017,0.13017557561397552
1696965067205524200,1.951524169921875,1.2821874618530273,0.11001431941986084,-0.16731080412864685
1696965067215538400,1.961538330078125,-1.5599021911621094,-0.6035323143005371,0.060954540967941284
1696965067225553000,1.971552978515625,1.369950294494629,-0.3064061403274536,-0.002072662115097046
1696965067235567000,1.981567138671875,-0.1521320343017578,0.0370175838470459,-0.5505578517913818
1696965067245581300,1.991581298828125,-1.7336139678955078,-0.36918163299560547,-0.39355939626693726
1696965067255595500,2.001595458984375,1.9790716171264648,-0.31751012802124023,-0.1317288875579834
1696965067265610000,2.01160986328125,-0.35650157928466797,-0.063751220703125,-0.5477348566055298
1696965067275624200,2.021624267578125,-1.4793682098388672,-0.6657280921936035,-0.6170389652252197
1696965067285638400,2.031638427734375,0.9355535507202148,0.03653240203857422,-0.2787726819515228
1696965067295652600,2.041652587890625,-0.4938516616821289,-0.25459301471710205,-0.5112428069114685
1696965067305667000,2.0516669921875,-0.8440980911254883,-0.17666399478912354,-0.22386440634727478
1696965067315681300,2.061681396484375,1.7204523086547852,-0.427043080329895,-0.28328168392181396
1696965067325695500,2.071695556640625,-1.0859670639038086,-0.356884241104126,-0.2123347520828247
1696965067335709700,2.081709716796875,1.2030220031738281,-0.8177953958511353,-0.047781169414520264
1696965067345724200,2.09172412109375,1.0928831100463867,-0.1754148006439209,-0.038679659366607666
1696965067355738400,2.10173828125,-0.35202693939208984,-0.5528829097747803,0.23950251936912537
1696965067365752600,2.111752685546875,1.7239971160888672,-0.758152961730957,0.04450996220111847
1696965067375766800,2.121766845703125,1.4825706481933594,-0.4824643135070801,0.38973182439804077
1696965067385781000,2.131781005859375,0.6749467849731445,-0.9088807106018066,0.1753750741481781
1696965067395795200,2.141795166015625,1.4111852645874023,-1.4516620635986328,0.3390541672706604
1696965067405809400,2.151809326171875,2.401681900024414,-1.0026235580444336,0.8031688928604126
1696965067415824000,2.161823974609375,-0.2553520202636719,-1.142540454864502,0.12926988303661346
1696965067425838000,2.171838134765625,1.9015798568725586,-1.441561222076416,0.1570644974708557
1696965067435852300,2.181852294921875,2.9570741653442383,-0.6861487627029419,0.24962161481380463
1696965067445866500,2.191866455078125,0.31662654876708984,-1.6202499866485596,0.1929807960987091
1696965067455880700,2.201880615234375,2.457077980041504,-2.044060707092285,0.4900438189506531
1696965067465895000,2.21189501953125,2.2514381408691406,-1.2016527652740479,0.9374454021453857
1696965067475909000,2.2219091796875,0.3918342590332031,-1.6016944646835327,0.019812315702438354
1696965067485923300,2.23192333984375,3.433711051940918,-1.1648591756820679,0.3310772776603699
1696965067495937500,2.2419375,3.0716495513916016,-1.2133578062057495,0.5170096158981323
1696965067505951700,2.25195166015625,0.2403564453125,-1.7722153663635254,0.07858939468860626
1696965067515966000,2.261966064453125,3.7939205169677734,-1.4485032558441162,0.8567699193954468
1696965067525980200,2.271980224609375,1.4608774185180664,-0.6535545587539673,0.9563964605331421
1696965067535994400,2.281994384765625,0.21577930450439453,-1.3461483716964722,0.6794438362121582
1696965067546008600,2.292008544921875,3.4645471572875977,-0.49683356285095215,1.0598907470703125
1696965067556022800,2.302022705078125,1.4433860778808594,-0.6153864860534668,1.162925124168396
1696965067566037000,2.312037109375,-1.0846729278564453,-0.6650954484939575,0.7043473720550537
1696965067576051200,2.32205126953125,1.6931524276733398,-0.3544381856918335,1.3330235481262207
1696965067586065400,2.3320654296875,-0.43463993072509766,-0.1589750051498413,0.8340048789978027
1696965067596079600,2.34207958984375,-2.654235363006592,-0.45740270614624023,0.8532431125640869
1696965067606093800,2.35209375,0.7173728942871094,-0.029572606086730957,0.6364086270332336
1696965067616108000,2.36210791015625,-3.8725619316101074,0.23306667804718018,0.43781906366348267
1696965067626122200,2.372122314453125,-1.4649410247802734,1.085433006286621,0.20916683971881866
1696965067636136400,2.382136474609375,-1.5423555374145508,0.3323342800140381,0.4749825596809387
1696965067646151000,2.39215087890625,-3.9292311668395996,0.04728364944458008,1.293648362159729
1696965067656165000,2.4021650390625,-2.7187061309814453,0.08889961242675781,0.9897467494010925
1696965067666179300,2.412179443359375,-3.66965913772583,0.7408850193023682,0.7013790607452393
1696965067676193500,2.422193603515625,-3.577019214630127,0.8539894819259644,0.3623521029949188
1696965067686207700,2.432207763671875,-3.6711668968200684,1.317209243774414,0.4962489902973175
1696965067696222000,2.442221923828125,-3.3213582038879395,0.6482349634170532,0.13535286486148834
1696965067706236200,2.452236083984375,-5.587826728820801,0.2134716510772705,0.46882718801498413
1696965067716250400,2.46225048828125,-4.715966701507568,0.2632640600204468,0.03163804113864899
1696965067726264600,2.4722646484375,-4.553508758544922,1.0263688564300537,-0.15968376398086548
1696965067736278800,2.48227880859375,-5.275263786315918,0.804283857345581,-0.41962167620658875
1696965067746293000,2.49229296875,-4.978111267089844,0.8811917304992676,-1.007319688796997
1696965067756307200,2.50230712890625,-4.29132604598999,0.5734714269638062,-0.835086464881897
1696965067766321400,2.5123212890625,-5.807220458984375,0.3306910991668701,-0.40629714727401733
1696965067776335600,2.522335693359375,-4.244751930236816,0.46481919288635254,-0.9346679449081421
1696965067786349800,2.532349853515625,-4.3155837059021,0.5785713195800781,-1.0402038097381592
1696965067796364000,2.542364013671875,-5.112075328826904,0.8346389532089233,-1.162083387374878
1696965067806378200,2.552378173828125,-2.1169028282165527,0.17085051536560059,-1.6268963813781738
1696965067816392700,2.562392822265625,-3.981572151184082,0.23775100708007812,-1.8190040588378906
1696965067826407000,2.572406982421875,-1.4734716415405273,0.06833910942077637,-1.2009271383285522
1696965067836421000,2.582421142578125,-1.5799636840820312,0.026876211166381836,-1.2665493488311768
1696965067846435300,2.592435302734375,-1.6295456886291504,0.21639025211334229,-0.580580472946167
1696965067856449800,2.60244970703125,-0.585606575012207,-0.3001284599304199,-0.7435235977172852
1696965067866464000,2.612464111328125,-1.0590753555297852,-0.03175854682922363,-0.5126286745071411
1696965067876478200,2.622478271484375,1.5909309387207031,-0.8089838027954102,-0.7746145129203796
1696965067886492400,2.632492431640625,-0.43683719635009766,-0.531421422958374,-0.8779312372207642
1696965067896507000,2.6425068359375,1.724167823791504,-0.5240343809127808,-0.18930858373641968
1696965067906521000,2.65252099609375,0.9848518371582031,0.06985223293304443,-0.3715446889400482
1696965067916535300,2.662535400390625,-0.037871360778808594,-0.6132127046585083,-0.004653371870517731
1696965067926549500,2.672549560546875,2.155379295349121,-0.5968655347824097,-0.32614368200302124
1696965067936564000,2.68256396484375,0.8374958038330078,0.041597068309783936,0.22944031655788422
1696965067946578200,2.692578125,1.257197380065918,-0.8163349628448486,-0.10399596393108368
1696965067956592400,2.70259228515625,2.4295387268066406,-0.6357269883155823,0.30312424898147583
1696965067966606600,2.712606689453125,3.679018974304199,-0.23981428146362305,0.10166004300117493
1696965067976621000,2.72262109375,0.44197559356689453,-0.5267667770385742,-0.0031194686889648438
1696965067986635300,2.73263525390625,4.26204776763916,-0.15335386991500854,0.5786840319633484
1696965067996649500,2.7426494140625,2.684568405151367,-0.17096877098083496,0.22113847732543945
1696965068006663700,2.75266357421875,0.99322509765625,-0.7509453892707825,0.30150291323661804
1696965068016678100,2.76267822265625,5.389588356018066,-0.4540252387523651,0.7278938293457031
1696965068026692400,2.7726923828125,2.7916669845581055,-0.17775458097457886,0.37010300159454346
1696965068036706600,2.78270654296875,1.768794059753418,-0.7539247870445251,-0.08015204966068268
1696965068046720800,2.792720703125,6.215395927429199,-0.7330875396728516,0.7364150881767273
1696965068056735200,2.8027353515625,2.6125707626342773,0.08819377422332764,0.4444529116153717
1696965068066749400,2.81274951171875,1.5238752365112305,-0.9461624622344971,-0.0031243860721588135
1696965068076763600,2.822763671875,5.952958106994629,-0.9064841270446777,0.37458235025405884
1696965068086777900,2.83277783203125,3.272770881652832,-0.05480271577835083,0.749190092086792
1696965068096792000,2.8427919921875,1.2369089126586914,-0.45875582098960876,-0.5323668718338013
1696965068106806500,2.852806640625,4.727045059204102,-0.5294211506843567,0.37851741909980774
1696965068116820700,2.86282080078125,2.8441524505615234,-0.5241003036499023,0.3582324981689453
1696965068126835000,2.8728349609375,0.48540687561035156,-0.09813404083251953,-0.42060768604278564
1696965068136849200,2.88284912109375,3.7589988708496094,-0.1828809380531311,0.5098955035209656
1696965068146863600,2.892863525390625,1.5886211395263672,-0.9791193604469299,-0.40268674492836
1696965068156877800,2.9028779296875,-1.3193893432617188,-0.5241589546203613,-0.2535948157310486
1696965068166892000,2.91289208984375,3.2164783477783203,0.5454248189926147,0.1502966284751892
1696965068176906200,2.92290625,0.21259021759033203,-0.28213080763816833,0.18367330729961395
1696965068186920700,2.932920654296875,-1.0385541915893555,-0.7638351321220398,-0.7943182587623596
1696965068196935000,2.942934814453125,1.2382287979125977,-0.3375004827976227,0.4100880026817322
1696965068206949000,2.95294921875,0.7142448425292969,0.06607729196548462,0.328990638256073
1696965068216963300,2.96296337890625,-0.9395685195922852,-0.8002650737762451,-0.19227106869220734
1696965068226977800,2.972977783203125,1.121933937072754,-0.10516244173049927,0.00978921353816986
1696965068236992000,2.982991943359375,0.24982833862304688,0.16468960046768188,0.41025739908218384
1696965068247006200,2.993006103515625,-0.7676877975463867,-0.31199559569358826,0.07179597020149231
1696965068257020400,3.0030205078125,0.8969697952270508,-0.4252539575099945,-0.12835834920406342
1696965068267035000,3.013034912109375,-0.7243547439575195,-0.14065706729888916,0.48424050211906433
1696965068277049000,3.023049072265625,-0.28240966796875,-0.19923269748687744,-0.21796345710754395
1696965068287063300,3.033063232421875,0.04825401306152344,-0.190773606300354,-0.24079731106758118
1696965068297077500,3.043077392578125,0.10073661804199219,-0.33822742104530334,0.1612810641527176
1696965068307092000,3.053092041015625,-0.9310274124145508,-0.24933069944381714,0.10364016890525818
1696965068317106200,3.063106201171875,0.16071128845214844,-0.3275545537471771,-0.08704432845115662
1696965068327120400,3.073120361328125,-0.6374692916870117,-0.48002392053604126,-0.09099766612052917
1696965068337134600,3.083134521484375,-0.6166143417358398,-0.3578295409679413,-0.13351421058177948
1696965068347149000,3.093149169921875,0.5214738845825195,-0.3542763888835907,0.11076211929321289
1696965068357163300,3.103163330078125,-0.9227666854858398,-0.3459477722644806,-0.1480313092470169
1696965068367177500,3.113177490234375,-1.015986442565918,-0.5575835704803467,-0.05289261043071747
1696965068377191700,3.123191650390625,0.6674919128417969,-0.0952180027961731,0.0005556643009185791
1696965068387206000,3.133205810546875,-0.4384603500366211,-0.3314341604709625,0.027182936668395996
1696965068397220000,3.14322021484375,-0.04173755645751953,-0.5243829488754272,-0.033529460430145264
1696965068407234300,3.153234375,0.13903141021728516,-0.20273223519325256,0.29522252082824707
1696965068417248500,3.16324853515625,-0.23972511291503906,-0.4049924910068512,0.668077826499939
1696965068427262700,3.1732626953125,-0.4454164505004883,-0.7349100112915039,0.7168915271759033
1696965068437277000,3.18327685546875,0.7917461395263672,-0.18432798981666565,0.8478124737739563
1696965068447291100,3.193291015625,0.014544486999511719,-0.38735511898994446,0.7260188460350037
1696965068457305600,3.2033056640625,-0.7843046188354492,-0.5478596091270447,0.8782219886779785
1696965068467319800,3.21331982421875,1.0271062850952148,-0.5963894724845886,0.5927867889404297
1696965068477334000,3.223333984375,-0.9304866790771484,-0.47758519649505615,0.6892420053482056
1696965068487348200,3.23334814453125,-0.22182178497314453,-0.6881715059280396,0.6966634392738342
1696965068497362400,3.243362548828125,-0.2555246353149414,-0.5035879015922546,0.6612994074821472
1696965068507376600,3.253376708984375,-0.48484325408935547,-0.41131478548049927,0.7113953828811646
1696965068517390800,3.263390869140625,-0.5224065780639648,-0.20075762271881104,0.7919787764549255
1696965068527405000,3.273405029296875,0.21395015716552734,-0.6799220442771912,1.1158803701400757
1696965068537419300,3.283419189453125,-0.6565876007080078,-0.6746622323989868,1.0538480281829834
1696965068547433500,3.29343359375,-1.0421419143676758,-0.6441788673400879,1.170100212097168
1696965068557447700,3.30344775390625,0.09716224670410156,-0.927643895149231,1.2370834350585938
1696965068567462000,3.3134619140625,-0.8636150360107422,-0.5930043458938599,1.231792688369751
1696965068577476000,3.32347607421875,-0.3934650421142578,-0.7363296151161194,1.2877827882766724
1696965068587490300,3.333490234375,-0.2206439971923828,-0.7173534631729126,1.0145363807678223
1696965068597504500,3.34350439453125,-0.9892148971557617,-0.30857205390930176,0.8098378777503967
1696965068607518700,3.353518798828125,-1.6216306686401367,-0.8444284200668335,0.27831244468688965
1696965068617533000,3.363532958984375,-0.9290037155151367,-0.629428505897522,0.41767144203186035
1696965068627547100,3.373547119140625,-0.41485118865966797,-0.7368396520614624,0.20281733572483063
1696965068637561300,3.383561279296875,-2.5722270011901855,-0.6778208017349243,-0.28935444355010986
1696965068647575600,3.393575439453125,-0.8206071853637695,-0.7246062755584717,-0.25790321826934814
1696965068657589800,3.40358984375,-0.630955696105957,-0.4536716938018799,-0.8256534337997437
1696965068667604000,3.41360400390625,-3.790280342102051,-0.5213304758071899,-0.9188874959945679
1696965068677618200,3.4236181640625,0.11982250213623047,-0.6562821269035339,-1.235566258430481
1696965068687632400,3.43363232421875,-1.8469581604003906,-0.24416056275367737,-1.4137299060821533
1696965068697646800,3.443646728515625,-1.935615062713623,-0.6457907557487488,-1.3584619760513306
1696965068707661000,3.4536611328125,-0.2753438949584961,-0.37209779024124146,-1.6020846366882324
1696965068717675300,3.46367529296875,-1.4095497131347656,0.2685115933418274,-1.2751073837280273
1696965068727689500,3.473689453125,-1.6995658874511719,-0.4404589533805847,-1.603436827659607
1696965068737703700,3.48370361328125,-0.33118438720703125,-0.0036635398864746094,-1.528842806816101
1696965068747718000,3.4937177734375,-0.4664297103881836,-0.03972262144088745,-1.4341838359832764
1696965068757732000,3.503732177734375,-1.2081060409545898,-0.02954798936843872,-1.3319154977798462
1696965068767746300,3.513746337890625,0.5412874221801758,0.0047109127044677734,-1.6714327335357666
1696965068777760500,3.523760498046875,-0.9101982116699219,-0.45307430624961853,-1.7389055490493774
1696965068787774700,3.533774658203125,-0.7143182754516602,-0.2860146760940552,-1.598268747329712
1696965068797789000,3.543788818359375,-0.65753173828125,-0.0902525782585144,-1.4540241956710815
1696965068807803100,3.55380322265625,0.11561298370361328,-0.03711777925491333,-1.5846667289733887
1696965068817817300,3.5638173828125,-0.6134910583496094,-0.08424955606460571,-1.3961607217788696
1696965068827831600,3.57383154296875,0.4650602340698242,-0.2666670083999634,-1.6957411766052246
1696965068837845800,3.583845703125,-0.24610328674316406,-0.33943039178848267,-1.4449743032455444
1696965068847860000,3.59385986328125,1.0222711563110352,0.27013659477233887,-0.7831560969352722
1696965068857874200,3.603874267578125,-0.28783321380615234,-0.049986064434051514,-0.9805774688720703
1696965068867888400,3.613888427734375,1.763819694519043,0.15196073055267334,-0.6810276508331299
1696965068877902800,3.62390283203125,0.5756893157958984,0.23078525066375732,-0.6186516880989075
1696965068887917000,3.6339169921875,0.7040605545043945,0.35895371437072754,-0.30692505836486816
1696965068897931300,3.64393115234375,1.7400617599487305,0.6232481002807617,-0.37552058696746826
1696965068907945500,3.653945556640625,0.4700307846069336,0.6704827547073364,-0.2656847834587097
1696965068917960000,3.6639599609375,1.4869880676269531,1.0164228677749634,-0.09482135623693466
1696965068927974100,3.67397412109375,2.061556816101074,0.9845097064971924,0.23485985398292542
1696965068937988400,3.68398828125,0.7757463455200195,0.577761173248291,0.30541232228279114
1696965068948002600,3.69400244140625,1.3612651824951172,0.9635039567947388,0.6785147786140442
1696965068958017000,3.70401708984375,2.489805221557617,1.0333936214447021,0.8136357665061951
1696965068968031200,3.71403125,0.20856094360351562,0.6358184814453125,0.542315661907196
1696965068978045400,3.72404541015625,1.1485843658447266,0.8074040412902832,0.9522876143455505
1696965068988059600,3.7340595703125,1.971491813659668,0.8963706493377686,1.1047114133834839
1696965068998074000,3.74407421875,0.42694568634033203,0.19321966171264648,0.7705510258674622
1696965069008088300,3.75408837890625,0.8167276382446289,0.4204683303833008,0.7431204915046692
1696965069018102500,3.7641025390625,1.1050043106079102,0.48092222213745117,0.9473724365234375
1696965069028116700,3.77411669921875,0.5852270126342773,0.4199937582015991,0.7719733119010925
1696965069038131200,3.784131103515625,-0.31105518341064453,-0.08116352558135986,0.6518889665603638
1696965069048145400,3.7941455078125,1.275202751159668,0.343467116355896,0.9508249163627625
1696965069058159600,3.80415966796875,0.24825763702392578,0.0033034086227416992,0.4628334939479828
1696965069068173800,3.814173828125,-0.6325263977050781,-0.3412590026855469,0.3510822653770447
1696965069078188300,3.824188232421875,0.8062295913696289,0.12023663520812988,0.8807204365730286
1696965069088202500,3.834202392578125,0.6027765274047852,0.05435448884963989,0.36372873187065125
1696965069098216700,3.844216796875,-1.2682838439941406,-0.36916905641555786,0.1996137648820877
1696965069108231000,3.85423095703125,0.8749265670776367,-0.049300968647003174,0.6432622075080872
1696965069118245400,3.864245361328125,-0.21761417388916016,-0.3998660445213318,0.04609975963830948
1696965069128259600,3.874259521484375,-0.948948860168457,-0.4096212387084961,-0.1700432002544403
1696965069138273800,3.884273681640625,1.107473373413086,-0.3193210959434509,0.22395706176757812
1696965069148288000,3.8942880859375,-0.8741607666015625,-0.3280647397041321,-0.07289592921733856
1696965069158302500,3.904302490234375,-0.571721076965332,-0.67655348777771,-0.22382819652557373
1696965069168316700,3.914316650390625,0.2178020477294922,-0.2738429307937622,-0.28899669647216797
1696965069178331000,3.924330810546875,-0.5717964172363281,-0.4631454050540924,-0.14764204621315002
1696965069188345000,3.934344970703125,-0.6615543365478516,-0.811018705368042,-0.6663233637809753
1696965069198359600,3.944359619140625,0.13288497924804688,-0.27790015935897827,-0.4849512577056885
1696965069208373800,3.954373779296875,-0.46494197845458984,-0.6197368502616882,-0.6871650815010071
1696965069218388000,3.964387939453125,-1.811903953552246,-0.602690577507019,-0.4244902431964874
1696965069228402200,3.974402099609375,0.6105318069458008,-0.5701371431350708,-0.4398871958255768
1696965069238416600,3.984416748046875,-1.5368480682373047,-0.46194377541542053,-0.5263450145721436
1696965069248430800,3.994430908203125,-0.5822935104370117,-0.5241883993148804,-0.7565847635269165
1696965069258445000,4.004445068359375,0.09290695190429688,-0.4025227725505829,-0.74222731590271
1696965069268459300,4.014459228515625,-0.9730777740478516,-0.5059858560562134,-0.6526532769203186
1696965069278473500,4.024473388671875,-0.8847017288208008,-0.5419783592224121,-0.6769553422927856
1696965069288488000,4.034488037109375,-0.4667549133300781,-0.3776966333389282,-0.6647529006004333
1696965069298502100,4.044502197265625,-0.2838859558105469,-0.31575632095336914,-0.6907491683959961
1696965069308516400,4.054516357421875,-1.1911859512329102,-0.6447031497955322,-0.5689637660980225
1696965069318530600,4.064530517578125,0.7999029159545898,-0.23271536827087402,-0.48661574721336365
1696965069328545000,4.074544921875,-0.9987211227416992,-0.0726669430732727,-0.34260380268096924
1696965069338559200,4.084559326171875,-0.29369640350341797,-0.34508657455444336,-0.32755061984062195
1696965069348573400,4.094573486328125,-0.15901947021484375,0.10832476615905762,-0.08339135348796844
1696965069358587600,4.104587646484375,0.6062564849853516,-0.28652918338775635,-0.3976758122444153
1696965069368601900,4.114601806640625,-1.2876863479614258,-0.3484557271003723,-0.18309198319911957
1696965069378616000,4.124615966796875,1.788564682006836,0.1190900206565857,-0.06163541600108147
1696965069388630300,4.13463037109375,-0.9635457992553711,0.03452557325363159,0.15294978022575378
1696965069398644500,4.14464453125,0.0902547836303711,-0.43888452649116516,-0.12289503961801529
1696965069408658700,4.15465869140625,0.05196571350097656,0.004779934883117676,0.21671099960803986
1696965069418673000,4.1646728515625,0.7354555130004883,-0.045525193214416504,0.06931929290294647
1696965069428687000,4.17468701171875,-0.8194580078125,-0.22805672883987427,-0.30695444345474243
1696965069438701300,4.184701416015625,1.6773509979248047,-0.023453831672668457,-0.005030808970332146
1696965069448716000,4.194716064453125,-0.7303457260131836,-0.12252724170684814,-0.12894676625728607
1696965069458730000,4.20472998046875,-0.15985965728759766,-0.4133232533931732,0.03370887413620949
1696965069468744000,4.214743896484375,1.1310758590698242,0.08242511749267578,0.12854990363121033
1696965069478758000,4.2247578125,-0.31954383850097656,-0.18801528215408325,-0.11487583070993423
1696965069488771800,4.234771728515625,0.3264179229736328,-0.1301988959312439,-0.2065895050764084
1696965069498785800,4.244785888671875,1.1191720962524414,0.17794018983840942,-0.0011800853535532951
1696965069508799700,4.2547998046875,-0.7951021194458008,-0.05792742967605591,0.12772300839424133
1696965069518813700,4.264813720703125,0.979945182800293,-0.3690420985221863,-0.15525853633880615
1696965069528828000,4.274827880859375,0.5905904769897461,0.19849073886871338,0.17042303085327148
1696965069538842000,4.284842041015625,-0.04152870178222656,0.07175755500793457,-0.03522777557373047
1696965069548856300,4.294856201171875,-0.3473386764526367,0.03397321701049805,0.21900618076324463
1696965069558870500,4.30487060546875,1.283390998840332,0.10784393548965454,0.06800403445959091
1696965069568885000,4.314885009765625,-1.5202808380126953,0.1312577724456787,0.006173420697450638
1696965069578899200,4.324899169921875,1.2266130447387695,-0.0932697057723999,0.21063712239265442
1696965069588913700,4.33491357421875,-0.8598365783691406,0.11451274156570435,-0.26043400168418884
1696965069598928100,4.34492822265625,-0.49953365325927734,0.14581304788589478,-0.07603687793016434
1696965069608942600,4.354942626953125,0.8878345489501953,0.11923903226852417,-0.05822489783167839
1696965069618957000,4.36495703125,-1.8910655975341797,-0.10942602157592773,-0.1227850541472435
1696965069628971500,4.374971435546875,0.8041648864746094,-0.2709309458732605,-0.28157544136047363
1696965069638986000,4.384986083984375,-0.45946311950683594,0.4462507963180542,-0.016537167131900787
1696965069649000700,4.395000732421875,-0.23847579956054688,-0.06624776124954224,-0.5111299157142639
1696965069659015000,4.405014892578125,-0.19980621337890625,-0.09779536724090576,-0.28395000100135803
1696965069669029000,4.415029052734375,0.9429731369018555,0.43183183670043945,-0.17156830430030823
1696965069679043300,4.425043212890625,-2.270932197570801,-0.10370004177093506,-0.31878748536109924
1696965069689057500,4.4350576171875,2.4035558700561523,-0.1197810173034668,-0.014674535021185875
1696965069699072300,4.445072265625,-1.3107118606567383,0.43720877170562744,0.24424518644809723
1696965069709086200,4.455086181640625,1.019587516784668,-0.3199262022972107,-0.37320879101753235
1696965069719100000,4.465099853515625,0.4149923324584961,0.28670555353164673,0.15948711335659027
1696965069729113900,4.47511376953125,-0.044887542724609375,-0.02864551544189453,-0.21001353859901428
1696965069739127800,4.4851279296875,-0.3412179946899414,-0.20367997884750366,-0.3687489628791809
1696965069749141800,4.495141845703125,1.2319450378417969,0.18375486135482788,-0.2506939768791199
1696965069759155700,4.50515576171875,-1.1271934509277344,-0.2894769310951233,-0.5102642178535461
1696965069769170000,4.515169921875,1.4131803512573242,0.19489479064941406,-0.21114513278007507
1696965069779183900,4.525183837890625,-0.6929235458374023,-0.05595642328262329,-0.5003517270088196
1696965069789198000,4.535197998046875,-0.5335731506347656,-0.37026482820510864,-0.5084909796714783
1696965069799212300,4.54521240234375,1.0018377304077148,0.23252147436141968,-0.330854594707489
1696965069809226500,4.5552265625,-1.7435941696166992,-0.05230075120925903,-0.7128821611404419
1696965069819241000,4.565240966796875,1.0036983489990234,-0.040503859519958496,-0.5019407868385315
1696965069829255400,4.57525537109375,-0.36057090759277344,0.30087965726852417,-0.1775055229663849
1696965069839269600,4.58526953125,-0.7372455596923828,-0.191775381565094,-0.4744114279747009
1696965069849284000,4.5952841796875,-0.028136253356933594,0.21026253700256348,-0.20301446318626404
1696965069859298600,4.605298583984375,0.12507057189941406,-0.05060690641403198,-0.44180741906166077
1696965069869313000,4.61531298828125,-0.6352195739746094,-0.18779748678207397,-0.3789946436882019
1696965069879327500,4.625327392578125,0.924494743347168,0.06876903772354126,-0.42141953110694885
1696965069889342000,4.635342041015625,-0.7217617034912109,-0.017724156379699707,-0.12477555871009827
1696965069899356400,4.6453564453125,0.7329225540161133,-0.12831032276153564,-0.0856272280216217
1696965069909370600,4.65537060546875,-0.009453773498535156,0.0897676944732666,-0.4334006607532501
1696965069919385000,4.665385009765625,-1.0224990844726562,-0.18856608867645264,-0.20020630955696106
1696965069929399300,4.6753994140625,1.8236055374145508,0.1411455273628235,-0.5090475082397461
1696965069939413500,4.68541357421875,-1.3969230651855469,-0.14907270669937134,-0.27518385648727417
1696965069949427700,4.695427734375,1.6841554641723633,0.3299409747123718,-0.2519242763519287
1696965069959442000,4.70544189453125,-0.5609655380249023,0.20983105897903442,-0.031298793852329254
1696965069969456000,4.7154560546875,0.5443248748779297,-0.2107115387916565,-0.1660890281200409
1696965069979470600,4.725470703125,-0.10193157196044922,0.03540825843811035,0.004894673824310303
1696965069989484800,4.73548486328125,0.7251968383789062,0.32569944858551025,0.12494789063930511
1696965069999499000,4.7454990234375,-0.12704849243164062,-0.002475917339324951,-0.22912295162677765
1696965070009513200,4.75551318359375,1.2927141189575195,0.5079514384269714,0.37377816438674927
1696965070019527400,4.76552734375,-0.1629810333251953,-0.35707616806030273,0.07352802157402039
1696965070029541600,4.775541748046875,0.32494163513183594,0.2692474126815796,0.025659654289484024
1696965070039555800,4.785555908203125,0.44866085052490234,0.1606234312057495,-0.04435443505644798
1696965070049570000,4.795570068359375,-0.3025236129760742,0.27719831466674805,-0.0398692861199379
1696965070059584300,4.805584228515625,0.678013801574707,0.213547945022583,0.024177704006433487
1696965070069598500,4.815598388671875,-0.608795166015625,0.10338884592056274,-0.38688918948173523
1696965070079612700,4.82561279296875,0.06177234649658203,0.1701444387435913,0.13472850620746613
1696965070089627000,4.835626953125,-0.4684104919433594,0.0935443639755249,-0.38106879591941833
1696965070099641000,4.84564111328125,-0.3000020980834961,0.3754819631576538,-0.09437471628189087
1696965070109655300,4.8556552734375,-0.2032794952392578,0.2509959936141968,-0.3144805431365967
1696965070119669500,4.86566943359375,-0.44650936126708984,0.011526167392730713,0.001851748675107956
1696965070129683700,4.87568359375,-0.06274032592773438,0.41416114568710327,-0.14848817884922028
1696965070139698000,4.885697998046875,-0.42583465576171875,0.11257690191268921,-0.1571303904056549
1696965070149712100,4.895712158203125,-0.013418197631835938,0.30925559997558594,-0.12474711984395981
1696965070159726300,4.905726318359375,-0.5344362258911133,0.09489572048187256,-0.18155793845653534
1696965070169740500,4.915740478515625,1.0061006546020508,0.4063158631324768,0.00030354782938957214
1696965070179754800,4.925754638671875,-1.3715639114379883,0.4196396470069885,-0.36217910051345825
1696965070189769000,4.93576904296875,0.5818443298339844,-0.05609232187271118,0.07384014129638672
1696965070199783200,4.945783203125,-1.0204582214355469,0.6072828769683838,-0.06866392493247986
1696965070209797600,4.955797607421875,0.014445304870605469,-0.04023313522338867,-0.1674816608428955
1696965070219811800,4.965811767578125,-0.45375823974609375,0.6129124760627747,-0.2617238163948059
1696965070229826000,4.975825927734375,0.22122859954833984,-0.03856843709945679,-0.0867442861199379
1696965070239840300,4.98584033203125,-0.10877609252929688,0.5081782341003418,-0.16714923083782196
1696965070249854500,4.9958544921875,-1.207707405090332,-0.05161982774734497,-0.3306758999824524
1696965070259868700,5.00586865234375,0.6067161560058594,0.6684483289718628,-0.32965087890625
1696965070269883000,5.0158828125,-1.115159034729004,0.09742873907089233,-0.10304015129804611
1696965070279897000,5.02589697265625,0.5650882720947266,0.2785559296607971,-0.20127934217453003
1696965070289911300,5.035911376953125,-0.9940786361694336,0.17091959714889526,-0.2947465777397156
1696965070299925500,5.045925537109375,0.1409616470336914,0.4340358376502991,-0.484386682510376
1696965070309939700,5.055939697265625,0.21245288848876953,0.42189669609069824,0.15807142853736877
1696965070319954000,5.065953857421875,-0.1512317657470703,0.3154591917991638,-0.36993709206581116
1696965070329968000,5.075968017578125,-0.3085060119628906,0.323667049407959,-0.05397162586450577
1696965070339982300,5.085982421875,0.37096500396728516,0.2123759388923645,-0.17983272671699524
1696965070349996500,5.09599658203125,-0.47572898864746094,0.14863169193267822,-0.05485861748456955
1696965070360010800,5.1060107421875,0.4669075012207031,0.39713340997695923,-0.3625415861606598
1696965070370025000,5.11602490234375,-0.39906883239746094,0.32741010189056396,-0.21355363726615906
1696965070380039200,5.1260390625,0.6819362640380859,0.4276258945465088,0.06700149178504944
1696965070390053400,5.136053466796875,-0.7245607376098633,0.16156864166259766,-0.5105657577514648
1696965070400067600,5.146067626953125,0.5770034790039062,0.37761807441711426,0.09891264885663986
