time,seconds_elapsed,z,y,x
1696965173678139000,0.155138916015625,-0.9586372375488281,-0.1119314432144165,-0.2797349691390991
1696965173688154400,0.165154296875,-1.0359916687011719,-0.9031275510787964,0.316359281539917
1696965173698172400,0.17517236328125,-0.10630130767822266,-0.2630186080932617,0.7852156758308411
1696965173708192300,0.185192138671875,-1.0597476959228516,-0.0014042854309082031,0.2872963547706604
1696965173718214100,0.195214111328125,1.2191972732543945,-0.0020972490310668945,0.6557364463806152
1696965173728237300,0.2052373046875,-0.8303756713867188,-0.22111046314239502,0.5362418293952942
1696965173738261500,0.215261474609375,-0.06917953491210938,0.012273311614990234,0.6115252375602722
1696965173748286500,0.225286376953125,0.7612390518188477,0.46785247325897217,0.3645172417163849
1696965173758311200,0.235311279296875,-1.3580923080444336,-0.47818005084991455,0.30761846899986267
1696965173768329000,0.245328857421875,0.11039352416992188,-0.21678400039672852,0.6810641288757324
1696965173778343200,0.25534326171875,0.2085886001586914,0.25125229358673096,0.655878484249115
1696965173788357400,0.265357421875,-0.5258455276489258,-0.10119009017944336,0.10477679967880249
1696965173798371600,0.27537158203125,0.09198474884033203,-0.5358587503433228,0.1958131194114685
1696965173808385800,0.2853857421875,-0.4568204879760742,-0.05226540565490723,0.6025158762931824
1696965173818399700,0.295399658203125,0.4609346389770508,-0.02492821216583252,0.4355239272117615
1696965173828414000,0.3054140625,-0.47226524353027344,-0.17312324047088623,0.20341253280639648
1696965173838428200,0.31542822265625,-0.15932369232177734,-0.4082834720611572,0.6661815047264099
1696965173848442400,0.3254423828125,-0.6557550430297852,-0.3986698389053345,0.5837070941925049
1696965173858456600,0.33545654296875,1.0796594619750977,0.06253349781036377,0.4734098017215729
1696965173868470800,0.345470703125,-0.6268243789672852,-0.41461384296417236,0.44093823432922363
1696965173878484700,0.355484619140625,0.32409095764160156,-0.4525490999221802,0.4822588860988617
1696965173888499000,0.3654990234375,0.6556539535522461,-0.09679436683654785,0.47952789068222046
1696965173898513200,0.37551318359375,-0.9096584320068359,-0.32401323318481445,0.32995086908340454
1696965173908527400,0.38552734375,0.15791988372802734,-0.5424283742904663,0.4123856723308563
1696965173918541600,0.39554150390625,0.3758554458618164,-0.03628051280975342,0.3890219032764435
1696965173928555800,0.4055556640625,-0.4957151412963867,-0.6286066770553589,0.10713333636522293
1696965173938569700,0.41556982421875,0.7279882431030273,-0.6487804651260376,0.03664784133434296
1696965173948584000,0.425583984375,0.027437210083007812,-0.17691993713378906,-0.007702220231294632
1696965173958598100,0.43559814453125,-0.5190887451171875,-0.5002567768096924,-0.212162584066391
1696965173968612400,0.4456123046875,-0.5106124877929688,-0.6325018405914307,-0.5982871055603027
1696965173978626600,0.45562646484375,0.6364126205444336,0.10097372531890869,-0.028069064021110535
1696965173988640800,0.465640869140625,0.3304576873779297,-0.3468360900878906,-0.07052190601825714
1696965173998655000,0.475655029296875,-0.8420372009277344,-0.8715109825134277,-0.3863271474838257
1696965174008669000,0.4856689453125,0.9921112060546875,-0.5520467758178711,-0.13731934130191803
1696965174018683100,0.49568310546875,0.1357135772705078,-0.36331963539123535,-0.3148084878921509
1696965174028697300,0.505697265625,-0.5234146118164062,-0.36481690406799316,-0.5951377749443054
1696965174038711600,0.515711669921875,1.1787586212158203,-0.7786117792129517,0.09266941249370575
1696965174048725800,0.525725830078125,0.05121898651123047,-0.6357309818267822,-0.49283814430236816
1696965174058740000,0.535739990234375,-0.40986156463623047,0.1082768440246582,-0.21933026611804962
1696965174068754000,0.54575390625,1.390212059020996,-0.20898354053497314,0.09734515100717545
1696965174078768000,0.55576806640625,-0.07938289642333984,-0.5063861608505249,0.201223686337471
1696965174088782300,0.5657822265625,-0.2566490173339844,-0.4080376625061035,0.20235739648342133
1696965174098796500,0.575796630859375,0.06754302978515625,-0.5060132741928101,0.639532744884491
1696965174108810800,0.585810791015625,0.21645450592041016,-0.08144485950469971,0.9115366339683533
1696965174118825000,0.595824951171875,-0.3845405578613281,-0.5881856679916382,0.005375435575842857
1696965174128839000,0.6058388671875,-1.275721549987793,-1.4644558429718018,-0.2967035472393036
1696965174138853000,0.61585302734375,-0.08620166778564453,-0.9841903448104858,-0.5492062568664551
1696965174148867300,0.625867431640625,-1.4067707061767578,0.6699267625808716,-0.9511754512786865
1696965174158881500,0.635881591796875,-0.6480169296264648,-0.5920165777206421,-0.8588075637817383
1696965174168895700,0.645895751953125,0.5963544845581055,-0.2910107374191284,-0.2268276959657669
1696965174178910000,0.655909912109375,0.4587392807006836,-0.5655874013900757,1.1848541498184204
1696965174188924200,0.665924072265625,-0.6282539367675781,-0.47131288051605225,1.5637216567993164
1696965174198938400,0.6759384765625,0.37593936920166016,-0.4501081705093384,2.1223065853118896
1696965174208952600,0.68595263671875,1.547926902770996,0.6020227670669556,1.9381822347640991
1696965174218966800,0.695966796875,0.28316402435302734,0.39574992656707764,1.505403995513916
1696965174228981000,0.70598095703125,-0.40088748931884766,-1.1443829536437988,0.28639426827430725
1696965174238995200,0.7159951171875,-0.8572349548339844,-0.922419548034668,-0.10357611626386642
1696965174249009400,0.726009521484375,-1.5897626876831055,0.011488795280456543,-0.5380603671073914
1696965174259023600,0.736023681640625,0.7180662155151367,0.8288799524307251,-0.3411043882369995
1696965174269037800,0.746037841796875,-0.9115304946899414,-1.0013670921325684,0.0528363436460495
1696965174279052000,0.756052001953125,0.7585086822509766,-1.993469476699829,-0.2645372748374939
1696965174289066200,0.766066162109375,-2.421041965484619,-0.5627666711807251,0.19595247507095337
1696965174299080400,0.77608056640625,2.8464231491088867,1.214388370513916,1.278719425201416
1696965174309094700,0.7860947265625,1.0161933898925781,-0.6822062730789185,0.29510146379470825
1696965174319108900,0.79610888671875,-0.7794036865234375,-1.3270080089569092,0.3072320520877838
1696965174329123000,0.806123046875,-0.12173938751220703,1.0196107625961304,1.0103962421417236
1696965174339137300,0.81613720703125,2.0259218215942383,1.1003059148788452,0.024622902274131775
1696965174349151700,0.82615185546875,-1.9060935974121094,-0.7955142259597778,-1.1006044149398804
1696965174359166000,0.836166015625,-1.8153457641601562,-0.238927960395813,-0.5829788446426392
1696965174369180200,0.84618017578125,-0.11783313751220703,0.6436614394187927,-0.5959359407424927
1696965174379194400,0.8561943359375,-1.7386646270751953,-0.028348982334136963,-1.5741126537322998
1696965174389208600,0.86620849609375,-1.9248604774475098,-0.6119515895843506,-1.3892923593521118
1696965174399222800,0.876222900390625,-1.2337017059326172,-0.625258207321167,-1.422987699508667
1696965174409237000,0.886237060546875,-0.08244705200195312,-0.8107279539108276,-0.7598065733909607
1696965174419251200,0.896251220703125,1.1306524276733398,0.31691795587539673,0.1722775101661682
1696965174429265400,0.906265380859375,0.6016454696655273,0.1524038314819336,0.2628324627876282
1696965174439279600,0.916279541015625,0.4245309829711914,-0.5781006813049316,0.10609923303127289
1696965174449293800,0.9262939453125,0.5572748184204102,-0.5751832723617554,-0.4088992476463318
1696965174459308000,0.93630810546875,-0.12117576599121094,0.17506122589111328,-0.4090767204761505
1696965174469322200,0.946322265625,1.1736440658569336,-0.1292438507080078,-0.6390514373779297
1696965174479336400,0.95633642578125,-0.22704601287841797,-0.8811165690422058,-0.7214633822441101
1696965174489350700,0.9663505859375,-0.3141355514526367,-0.42064225673675537,-0.5717042684555054
1696965174499364900,0.97636474609375,0.46682262420654297,-0.07447153329849243,-0.5700513124465942
1696965174509379000,0.986379150390625,-0.021226882934570312,-0.3856293559074402,-0.2166546732187271
1696965174519393300,0.996393310546875,0.33962535858154297,-0.3289632797241211,-0.39474985003471375
1696965174529407500,1.006407470703125,-0.36028480529785156,-0.04120016098022461,-0.06397999823093414
1696965174539421700,1.016421630859375,0.7578392028808594,0.10782092809677124,0.21510063111782074
1696965174549436000,1.026435791015625,-0.9089765548706055,-0.12532776594161987,-0.09440676122903824
1696965174559450000,1.0364501953125,0.8597841262817383,-0.3163849115371704,-0.31314679980278015
1696965174569464300,1.04646435546875,-1.0405750274658203,-0.2991604804992676,-0.06238143891096115
1696965174579478800,1.056478759765625,1.2088279724121094,0.17419177293777466,0.6204728484153748
1696965174589493000,1.066492919921875,-0.7617731094360352,0.12615478038787842,0.043056149035692215
1696965174599507200,1.076507080078125,0.7355747222900391,-0.044409334659576416,0.42399537563323975
1696965174609521400,1.086521484375,0.19264888763427734,0.02368927001953125,0.29543590545654297
1696965174619535600,1.09653564453125,-0.710230827331543,0.052556753158569336,0.33571043610572815
1696965174629549800,1.1065498046875,1.2944307327270508,0.2963374853134155,0.10751833021640778
1696965174639564000,1.11656396484375,-0.3545818328857422,0.004472136497497559,0.32221075892448425
1696965174649578200,1.126578125,-0.03298759460449219,-0.2451082468032837,0.48507755994796753
1696965174659592400,1.136592529296875,0.5513830184936523,0.21459364891052246,0.18526577949523926
1696965174669606700,1.146606689453125,0.9738483428955078,0.25647759437561035,0.33895158767700195
1696965174679620900,1.156620849609375,-0.8196172714233398,-0.30940914154052734,0.014507066458463669
1696965174689635000,1.166635009765625,-0.10930728912353516,-0.02410125732421875,0.07613909989595413
1696965174699649300,1.176649169921875,0.7988595962524414,0.2337493896484375,0.09114660322666168
1696965174709663500,1.18666357421875,0.01340484619140625,-0.3274739980697632,-0.12886370718479156
1696965174719677700,1.196677734375,-0.6132526397705078,-0.008878827095031738,0.012414775788784027
1696965174729692000,1.20669189453125,1.1305570602416992,-0.24468529224395752,0.23267033696174622
1696965174739706000,1.2167060546875,-0.22763538360595703,-0.11349248886108398,0.074319988489151
1696965174749720300,1.22672021484375,-0.472381591796875,-0.18642175197601318,-0.343450665473938
1696965174759734500,1.236734619140625,0.15903759002685547,-0.026720523834228516,0.07396677881479263
1696965174769748700,1.246748779296875,0.17226314544677734,-0.24323415756225586,0.02935323864221573
1696965174779763000,1.256762939453125,-1.4298038482666016,-0.03058791160583496,-0.3406583368778229
1696965174789777200,1.266777099609375,0.7488851547241211,0.0049173831939697266,0.12629364430904388
1696965174799791400,1.276791259765625,0.06361007690429688,-0.06956946849822998,0.12233632802963257
1696965174809805600,1.2868056640625,-1.1625299453735352,-0.2238065004348755,-0.4233188331127167
1696965174819820000,1.296820068359375,-0.2784566879272461,-0.010376811027526855,-0.2458910495042801
1696965174829834200,1.306834228515625,-0.3282012939453125,0.07291924953460693,0.06051177531480789
1696965174839848400,1.316848388671875,-0.9051361083984375,-0.2674272060394287,-0.20261944830417633
1696965174849862700,1.326862548828125,0.18582439422607422,0.0047446489334106445,-0.23600459098815918
1696965174859876900,1.336876953125,-0.33823299407958984,0.06892943382263184,0.04490391165018082
1696965174869891000,1.34689111328125,0.04962921142578125,-0.11858761310577393,-0.08058010786771774
1696965174879905300,1.3569052734375,-0.6352128982543945,-0.36583566665649414,-0.3256863057613373
1696965174889919500,1.36691943359375,0.9006328582763672,-0.1835423707962036,0.13175438344478607
1696965174899933700,1.37693359375,-0.20426559448242188,0.07227659225463867,-0.039158158004283905
1696965174909948000,1.386947998046875,0.7578506469726562,-0.2812913656234741,-0.02462838590145111
1696965174919962000,1.396962158203125,0.005852699279785156,-0.7523422241210938,-0.38620710372924805
1696965174929976600,1.4069765625,0.6718482971191406,0.04951131343841553,0.2740679383277893
1696965174939990800,1.41699072265625,0.20583534240722656,-0.4099123477935791,-0.10023274272680283
1696965174950005000,1.4270048828125,0.13812637329101562,-0.28196465969085693,-0.23422184586524963
1696965174960019200,1.437019287109375,1.2123327255249023,-0.07876729965209961,-0.07071264833211899
1696965174970033700,1.44703369140625,-1.3691225051879883,-0.12489068508148193,-0.3220425844192505
1696965174980048000,1.4570478515625,1.6376008987426758,-0.08857870101928711,0.34627312421798706
1696965174990062000,1.46706201171875,0.34685230255126953,-0.3302983045578003,-0.09628769010305405
1696965175000076300,1.477076171875,-1.5341148376464844,-0.09885036945343018,-0.1650843620300293
1696965175010090800,1.4870908203125,1.8449878692626953,0.0663367509841919,0.1581866443157196
1696965175020105000,1.49710498046875,-0.46992015838623047,-0.0056612491607666016,0.10734385997056961
1696965175030119200,1.507119140625,-0.06664562225341797,-0.27023494243621826,0.04991026222705841
1696965175040133400,1.51713330078125,-0.16111373901367188,0.200342059135437,-0.13827064633369446
1696965175050147800,1.52714794921875,0.7921276092529297,-0.24751949310302734,0.6883217692375183
1696965175060162000,1.537162109375,-0.4502239227294922,-0.07674896717071533,-0.13175693154335022
1696965175070176300,1.54717626953125,-0.1136941909790039,0.09689736366271973,0.2298051416873932
1696965175080190500,1.5571904296875,0.7247867584228516,-0.4481542110443115,0.10839200764894485
1696965175090205000,1.567204833984375,-1.9351191520690918,0.2938830852508545,0.10474037379026413
1696965175100219100,1.57721923828125,1.7137393951416016,-0.018061041831970215,0.06821981072425842
1696965175110233300,1.5872333984375,-1.9857501983642578,-0.3253815174102783,-0.4254685640335083
1696965175120247600,1.59724755859375,0.08362960815429688,-0.21070706844329834,0.2014029175043106
1696965175130261800,1.60726171875,-0.24062824249267578,-0.062119245529174805,-0.3733012080192566
1696965175140276200,1.617276123046875,-0.9145975112915039,-0.09310257434844971,-0.03626956045627594
1696965175150290400,1.62729052734375,-0.10422897338867188,-0.3121185302734375,0.22513705492019653
1696965175160304600,1.6373046875,-1.5695695877075195,-0.40691208839416504,-0.16498862206935883
1696965175170318800,1.64731884765625,1.5776491165161133,0.10451745986938477,0.2531717121601105
1696965175180333300,1.657333251953125,-1.4312477111816406,-0.4320652484893799,-0.10436129570007324
1696965175190347500,1.667347412109375,0.7725048065185547,-0.2485595941543579,-0.0676841288805008
1696965175200361700,1.67736181640625,-0.09384918212890625,0.012967228889465332,0.03655855357646942
1696965175210376000,1.6873759765625,-0.22165298461914062,-0.45519065856933594,0.18297487497329712
1696965175220390400,1.697390380859375,-0.5392923355102539,-0.271881103515625,-0.020945467054843903
1696965175230404600,1.707404541015625,1.5259838104248047,-0.21931254863739014,0.1610974371433258
1696965175240418800,1.717418701171875,-0.6640291213989258,0.04711604118347168,-0.13213461637496948
1696965175250433000,1.72743310546875,0.27814769744873047,-0.40122532844543457,-0.3310829699039459
1696965175260447500,1.737447509765625,0.2242727279663086,-0.15752017498016357,-0.12916570901870728
1696965175270461700,1.747461669921875,0.28980064392089844,-0.18651366233825684,-0.04119117558002472
1696965175280476000,1.757475830078125,-0.6262006759643555,-0.26286542415618896,-0.2785932123661041
1696965175290490000,1.767489990234375,0.2635488510131836,-0.3484055995941162,0.1341383159160614
1696965175300504600,1.777504638671875,0.9528112411499023,0.009078264236450195,-0.12685218453407288
1696965175310518800,1.787518798828125,-0.9242839813232422,-0.2124699354171753,-0.170634925365448
1696965175320533000,1.797532958984375,1.262721061706543,-0.3409978151321411,0.09098375588655472
1696965175330547200,1.807547119140625,-0.2350168228149414,-0.12356507778167725,0.09952451288700104
1696965175340561400,1.8175615234375,-0.36209869384765625,-0.38662099838256836,-0.010137520730495453
1696965175350575600,1.82757568359375,0.1261920928955078,-0.2015528678894043,0.13241168856620789
1696965175360590000,1.837590087890625,1.1405525207519531,-0.02271890640258789,0.2515057623386383
1696965175370604300,1.847604248046875,-0.7806224822998047,-0.3022341728210449,-0.1692792773246765
1696965175380618500,1.857618408203125,0.2054605484008789,-0.22226214408874512,0.0418119877576828
1696965175390632700,1.8676328125,0.4524507522583008,-0.05781888961791992,0.061908379197120667
1696965175400647000,1.87764697265625,-0.7693367004394531,-0.09905004501342773,0.1304052323102951
1696965175410661000,1.8876611328125,0.29763031005859375,-0.6203536987304688,-0.28022870421409607
1696965175420675300,1.89767529296875,0.1677989959716797,0.027500391006469727,-0.1201099306344986
1696965175430689500,1.907689453125,0.03373908996582031,-0.15134680271148682,-0.18110954761505127
1696965175440703700,1.917703857421875,-0.25206756591796875,-0.3100719451904297,-0.44365179538726807
1696965175450718000,1.927718017578125,-0.06454086303710938,-0.039395689964294434,0.30903521180152893
1696965175460732200,1.937732177734375,0.1408681869506836,-0.021372437477111816,-0.2319573014974594
1696965175470746400,1.947746337890625,-0.8794441223144531,-0.266066312789917,0.08489634096622467
1696965175480760600,1.957760498046875,1.7081890106201172,-0.26507508754730225,-0.04204298555850983
1696965175490774800,1.96777490234375,-1.5554122924804688,-0.17117702960968018,-0.23785291612148285
1696965175500789000,1.9777890625,0.6783285140991211,-0.46513068675994873,-0.16571374237537384
1696965175510803200,1.98780322265625,0.46533775329589844,0.07387304306030273,0.02414843440055847
1696965175520817400,1.9978173828125,-0.5901956558227539,-0.2518467903137207,-0.11808272451162338
1696965175530831600,2.00783154296875,-0.5966386795043945,-0.33187341690063477,-0.1279003918170929
1696965175540845800,2.017845703125,1.0700159072875977,-0.29317808151245117,0.006525009870529175
1696965175550860000,2.027860107421875,-0.37470245361328125,-0.326595664024353,-0.011498019099235535
1696965175560874200,2.037874267578125,0.2659893035888672,-0.44471275806427,-0.09179220348596573
1696965175570888400,2.047888427734375,0.3315715789794922,-0.2724168300628662,0.17934903502464294
1696965175580902700,2.057902587890625,0.29668617248535156,-0.2294844388961792,-0.15495643019676208
1696965175590916900,2.067916748046875,-0.9583272933959961,-0.3154788017272949,0.16244277358055115
1696965175600931300,2.077931396484375,1.7064781188964844,-0.48603641986846924,0.1812548190355301
1696965175610945500,2.087945556640625,-0.9712352752685547,-0.4389626979827881,0.0053599923849105835
1696965175620959700,2.097959716796875,0.5257492065429688,-0.4134659767150879,0.1226072907447815
1696965175630974000,2.107973876953125,0.15157794952392578,-0.11347532272338867,0.041182681918144226
1696965175640988200,2.11798828125,-0.10642433166503906,-0.538886308670044,0.012422874569892883
1696965175651002400,2.12800244140625,-0.39183807373046875,-0.294244647026062,-0.17385414242744446
1696965175661016600,2.1380166015625,0.4207735061645508,-0.5186682939529419,0.004102528095245361
1696965175671030800,2.14803076171875,-0.08640480041503906,-0.3463871479034424,0.07325553894042969
1696965175681045000,2.158044921875,-0.20985031127929688,-0.3266807794570923,-0.30330464243888855
1696965175691059200,2.16805908203125,0.06316471099853516,-0.4842294454574585,0.08203735947608948
1696965175701073700,2.17807373046875,0.4969358444213867,-0.30684328079223633,0.0906098335981369
1696965175711087900,2.188087890625,-1.0978269577026367,-0.26402175426483154,-0.16996654868125916
1696965175721102000,2.19810205078125,0.7718582153320312,-0.7020851373672485,0.21755434572696686
1696965175731116300,2.2081162109375,0.31546592712402344,-0.21903789043426514,0.08177518844604492
1696965175741130800,2.218130859375,-0.782658576965332,-0.6052967309951782,-0.17286725342273712
1696965175751145000,2.22814501953125,0.7470798492431641,-0.4081031084060669,0.14413726329803467
1696965175761159200,2.2381591796875,0.004694938659667969,-0.21732497215270996,0.051206693053245544
1696965175771173400,2.24817333984375,-0.9060354232788086,-0.3323277235031128,-0.010496646165847778
1696965175781187800,2.258187744140625,0.5814046859741211,-0.4703472852706909,-0.004203289747238159
1696965175791202000,2.2682021484375,-0.1077413558959961,-0.34161627292633057,-0.2006140947341919
1696965175801216300,2.27821630859375,-1.2230920791625977,-0.7994668483734131,-0.49995505809783936
1696965175811230500,2.28823046875,0.49483585357666016,-0.22540414333343506,-0.36909371614456177
1696965175821245000,2.298244873046875,-0.11758613586425781,-0.550992488861084,-0.47466033697128296
1696965175831259100,2.308259033203125,-1.3903589248657227,-0.5686298608779907,-0.40998029708862305
1696965175841273300,2.3182734375,0.9387607574462891,-0.5577998161315918,-0.33958184719085693
1696965175851287600,2.32828759765625,-0.14778423309326172,-0.2046433687210083,-0.033976808190345764
1696965175861301800,2.3383017578125,-0.013522148132324219,-0.5905992984771729,-0.22930070757865906
1696965175871316200,2.348316162109375,-0.12778472900390625,-0.5698480606079102,-0.10790607333183289
1696965175881330400,2.358330322265625,1.1082735061645508,-0.6632611751556396,-0.0027928948402404785
1696965175891344600,2.3683447265625,-0.46099281311035156,-0.6709398031234741,-0.229551300406456
1696965175901358800,2.37835888671875,0.8098974227905273,-0.5773766040802002,-0.03900325298309326
1696965175911373300,2.388373291015625,0.9830751419067383,-0.5763281583786011,-0.048737138509750366
1696965175921387500,2.398387451171875,-0.8576335906982422,-0.44077932834625244,-0.2907870411872864
1696965175931401700,2.408401611328125,1.1067190170288086,-0.7969716191291809,-0.06923484802246094
1696965175941416000,2.418416015625,0.20534801483154297,-0.5993198156356812,-0.2443816363811493
1696965175951430400,2.428430419921875,-0.6445779800415039,-0.7119700908660889,-0.5514073371887207
1696965175961444600,2.438444580078125,0.19317150115966797,-0.6095776557922363,-0.26194751262664795
1696965175971458800,2.448458740234375,1.0083513259887695,-0.4842958450317383,-0.04823523759841919
1696965175981473000,2.45847314453125,-0.5079736709594727,-0.6747267246246338,-0.5260410308837891
1696965175991487500,2.468487548828125,-0.14786911010742188,-0.7205116748809814,-0.04590419679880142
1696965176001501700,2.478501708984375,0.8500747680664062,-0.41825318336486816,0.210142120718956
1696965176011516000,2.488515869140625,0.14551353454589844,-0.5855414867401123,-0.04866813123226166
1696965176021530000,2.498530029296875,-0.594456672668457,-0.7656275629997253,0.14966805279254913
1696965176031544600,2.508544677734375,1.4979581832885742,-0.3916287422180176,0.21129298210144043
1696965176041558800,2.518558837890625,-0.05849456787109375,-0.4691253900527954,0.0685768574476242
1696965176051573000,2.528572998046875,0.0850667953491211,-0.5782482624053955,0.19508129358291626
1696965176061587200,2.538587158203125,0.9915752410888672,-0.3780546188354492,0.39598584175109863
1696965176071601700,2.5486015625,-0.1715412139892578,-0.29349756240844727,0.14706352353096008
1696965176081616000,2.558615966796875,-0.5094490051269531,-0.35138607025146484,0.1418764442205429
1696965176091630000,2.568630126953125,0.0797872543334961,-0.633853554725647,0.16467010974884033
1696965176101644300,2.578644287109375,0.4424467086791992,-0.21415269374847412,0.1681608110666275
1696965176111658800,2.58865869140625,-0.5610208511352539,-0.34540855884552,-0.044280871748924255
1696965176121673000,2.5986728515625,0.6678638458251953,-0.3940925598144531,0.36628466844558716
1696965176131687200,2.608687255859375,0.2838573455810547,-0.14755606651306152,0.5585247874259949
1696965176141701400,2.618701416015625,-1.153376579284668,-0.35969460010528564,-0.0639495998620987
1696965176151715800,2.6287158203125,-0.14636898040771484,-0.4898803234100342,0.7129167318344116
1696965176161730000,2.63872998046875,1.3386192321777344,-0.013386845588684082,0.46993064880371094
1696965176171744300,2.648744140625,-0.8995761871337891,-0.5136624574661255,0.013516038656234741
1696965176181758500,2.658758544921875,0.6503534317016602,-0.12702226638793945,0.45423147082328796
1696965176191773000,2.66877294921875,0.6195735931396484,-0.10128176212310791,0.3389725089073181
1696965176201787100,2.678787109375,-1.806905746459961,-0.3238147497177124,-0.13463330268859863
1696965176211801300,2.68880126953125,-0.043526649475097656,-0.29522693157196045,0.40064379572868347
1696965176221815600,2.698815673828125,0.944915771484375,0.303760290145874,0.22613541781902313
1696965176231830000,2.708830078125,-1.315842628479004,-0.5257331132888794,-0.2263423055410385
1696965176241844200,2.71884423828125,-0.35619163513183594,-0.06674706935882568,0.028713315725326538
1696965176251858400,2.7288583984375,0.41866493225097656,0.04082834720611572,0.24227645993232727
1696965176261872600,2.73887255859375,-0.8951845169067383,0.014471650123596191,-0.11330761760473251
1696965176271887000,2.74888720703125,-0.8773746490478516,-0.4546445608139038,-0.04615908861160278
1696965176281901300,2.7589013671875,0.5150899887084961,0.1611652374267578,0.3580944240093231
1696965176291915500,2.76891552734375,0.2556791305541992,-0.1567096710205078,-0.05345577001571655
1696965176301929700,2.7789296875,-1.1006660461425781,-0.2718830108642578,-0.008959010243415833
1696965176311944200,2.788944091796875,1.4763984680175781,-0.2299652099609375,0.1650945544242859
1696965176321958400,2.79895849609375,-0.18022441864013672,0.17406010627746582,-0.049853354692459106
1696965176331972600,2.80897265625,-1.4539623260498047,-0.5768930912017822,0.011482104659080505
1696965176341986800,2.81898681640625,1.6209402084350586,-0.008896470069885254,-0.045178383588790894
1696965176352001300,2.829001220703125,-0.5564994812011719,-0.0928879976272583,-0.27832382917404175
1696965176362015500,2.839015380859375,-0.33475494384765625,-0.22698819637298584,-0.3658275604248047
1696965176372029700,2.84902978515625,0.2777986526489258,-0.2712792158126831,-0.057227134704589844
1696965176382044000,2.8590439453125,0.6160125732421875,0.08144104480743408,-0.27612438797950745
1696965176392058400,2.869058349609375,-1.8969225883483887,-0.23563218116760254,-0.5234572887420654
1696965176402072600,2.879072509765625,0.9456682205200195,-0.015659689903259277,0.08103422820568085
1696965176412086800,2.889086669921875,0.44136714935302734,-0.08892571926116943,-0.0914587527513504
1696965176422101000,2.89910107421875,-0.7677764892578125,-0.17562294006347656,-0.10084368288516998
1696965176432115200,2.909115234375,1.1017580032348633,-0.25704169273376465,-0.03136801719665527
1696965176442129700,2.919129638671875,0.36305999755859375,-0.03387761116027832,0.04427453875541687
1696965176452143900,2.929143798828125,-0.8363609313964844,-0.44977056980133057,0.011591315269470215
1696965176462158000,2.939157958984375,1.6255321502685547,-0.2636134624481201,0.07178518176078796
1696965176472172300,2.94917236328125,0.7466249465942383,-0.48039257526397705,0.20106813311576843
1696965176482186800,2.959186767578125,0.6870288848876953,-0.17507696151733398,0.021537989377975464
1696965176492201000,2.969200927734375,0.7471179962158203,-0.77413010597229,0.07650509476661682
1696965176502215200,2.979215087890625,1.924306869506836,-0.44540226459503174,0.27908438444137573
1696965176512229400,2.9892294921875,-0.42134857177734375,-0.7145110368728638,0.1222173273563385
1696965176522243800,2.999243896484375,1.986964225769043,-0.7779262065887451,0.23516637086868286
1696965176532258000,3.009258056640625,1.9713687896728516,-0.923977255821228,0.36527764797210693
1696965176542272300,3.019272216796875,0.6522359848022461,-1.0639287233352661,0.10412931442260742
1696965176552286500,3.029286376953125,0.6363964080810547,-1.414147138595581,0.3064382076263428
1696965176562301000,3.039301025390625,3.0225086212158203,-0.7475329637527466,0.22661137580871582
1696965176572315100,3.049315185546875,-0.1333608627319336,-1.0287790298461914,-0.15553775429725647
1696965176582329300,3.059329345703125,1.9975719451904297,-1.4474643468856812,0.10967960953712463
1696965176592343600,3.069343505859375,2.5937271118164062,-1.3608421087265015,0.2295922338962555
1696965176602358000,3.07935791015625,0.9722795486450195,-1.5843517780303955,0.09040758013725281
1696965176612372200,3.089372314453125,1.0991554260253906,-1.4683213233947754,-0.010302156209945679
1696965176622386400,3.099386474609375,3.1694259643554688,-1.0400757789611816,0.52889084815979
1696965176632400600,3.109400634765625,1.67535400390625,-1.329190969467163,-0.05057290196418762
1696965176642415000,3.1194150390625,1.074446678161621,-1.5364046096801758,-0.18456962704658508
1696965176652429300,3.12942919921875,3.293222427368164,-1.1916792392730713,0.6384142637252808
1696965176662443500,3.139443603515625,1.7466421127319336,-1.5261738300323486,0.1782017946243286
1696965176672457700,3.149457763671875,0.3531780242919922,-1.0526589155197144,0.12505939602851868
1696965176682472200,3.15947216796875,3.2192935943603516,-0.644905686378479,0.9978796243667603
1696965176692486400,3.169486328125,1.4727067947387695,-1.131692886352539,0.5007525682449341
1696965176702500600,3.17950048828125,-0.6073932647705078,-0.8524130582809448,0.18325716257095337
1696965176712514800,3.189514892578125,1.894301414489746,-0.8239830732345581,1.3410773277282715
1696965176722529300,3.199529296875,0.7109098434448242,-0.48587214946746826,0.9900344610214233
1696965176732543500,3.20954345703125,-1.5242128372192383,-0.7597076892852783,0.2356351912021637
1696965176742557700,3.2195576171875,0.034834861755371094,-0.35399651527404785,0.8505649566650391
1696965176752572000,3.229572021484375,-1.1140108108520508,-0.2703096866607666,1.1814545392990112
1696965176762586400,3.23958642578125,-2.216315269470215,-0.5348860025405884,0.3125652074813843
1696965176772600600,3.2496005859375,-1.968505859375,0.32933950424194336,0.20698294043540955
1696965176782614800,3.25961474609375,-1.0721931457519531,0.848589301109314,0.5469781160354614
1696965176792629000,3.26962890625,-2.852844715118408,-0.269366979598999,0.6359199285507202
1696965176802643500,3.2796435546875,-2.264535427093506,-0.2183138132095337,0.9781564474105835
1696965176812657700,3.28965771484375,-3.034820556640625,-0.14325416088104248,1.171384572982788
1696965176822672000,3.299671875,-3.377554416656494,0.4869692325592041,1.0013792514801025
1696965176832686000,3.30968603515625,-3.146543502807617,1.2027851343154907,0.5424078106880188
1696965176842700500,3.319700439453125,-2.266911506652832,1.2113103866577148,0.7427915334701538
1696965176852714800,3.32971484375,-3.434206008911133,0.2358001470565796,0.5557239055633545
1696965176862729000,3.33972900390625,-4.378524303436279,-0.0843273401260376,0.7895969152450562
1696965176872743200,3.3497431640625,-3.4769749641418457,0.2964385747909546,0.8075627684593201
1696965176882757600,3.359757568359375,-4.063699245452881,1.1787083148956299,0.6399296522140503
1696965176892771800,3.369771728515625,-4.45283317565918,0.8361647129058838,-0.1280793994665146
1696965176902786000,3.3797861328125,-4.793731212615967,1.0956571102142334,-0.24596917629241943
1696965176912800300,3.38980029296875,-3.6582231521606445,0.6028798818588257,-0.20838221907615662
1696965176922814700,3.399814697265625,-5.874429702758789,-0.07429027557373047,-0.8508515357971191
1696965176932829000,3.409828857421875,-4.392160892486572,0.7057478427886963,-0.718726396560669
1696965176942843100,3.419843017578125,-3.6076231002807617,0.9898567199707031,-0.20508170127868652
1696965176952857300,3.429857421875,-5.017952919006348,0.1855616569519043,-0.9209544658660889
1696965176962871600,3.43987158203125,-3.558823585510254,0.6545084714889526,-0.7834559679031372
1696965176972886000,3.449885986328125,-3.0836849212646484,0.8760302066802979,-1.247008204460144
1696965176982900200,3.459900146484375,-3.8801965713500977,0.6513305902481079,-1.3559887409210205
1696965176992914400,3.46991455078125,-2.577533721923828,0.7677838802337646,-1.70128333568573
1696965177002928600,3.4799287109375,-1.2737751007080078,0.7449566125869751,-0.9694575667381287
1696965177012943000,3.489943115234375,-2.023202419281006,0.25477445125579834,-0.9561939239501953
1696965177022957300,3.499957275390625,-1.5621891021728516,0.289273738861084,-1.2617449760437012
1696965177032971500,3.509971435546875,-0.47650718688964844,0.6188186407089233,-0.8327763080596924
1696965177042985700,3.51998583984375,-0.19187641143798828,0.3372924327850342,-0.8577147126197815
1696965177053000000,3.53,0.33092689514160156,-0.28787827491760254,-0.48667269945144653
1696965177063014100,3.54001416015625,1.2918710708618164,0.1294618844985962,-0.5649303793907166
1696965177073028400,3.5500283203125,0.6451091766357422,-0.4107426404953003,-0.22296759486198425
1696965177083042600,3.56004248046875,0.0812826156616211,-0.35536646842956543,-0.4453310966491699
1696965177093056800,3.570056884765625,1.0719842910766602,-0.6127253770828247,-0.14140543341636658
1696965177103071000,3.580071044921875,2.346630096435547,-0.23426556587219238,-0.2988337576389313
1696965177113085200,3.590085205078125,0.698883056640625,-0.5888227224349976,-0.5130361318588257
1696965177123099400,3.600099365234375,3.1883134841918945,-0.679407000541687,-0.041463837027549744
1696965177133113600,3.610113525390625,2.589655876159668,-0.33785808086395264,0.22351916134357452
1696965177143127800,3.6201279296875,0.7601413726806641,-0.3884791135787964,0.2272377908229828
1696965177153142000,3.63014208984375,2.461672782897949,-0.5213124752044678,0.2923988997936249
1696965177163156200,3.64015625,3.876922607421875,-0.6704719066619873,0.701237142086029
1696965177173170400,3.65017041015625,1.948756217956543,-0.030675888061523438,0.19532336294651031
1696965177183184600,3.6601845703125,2.735036849975586,-0.8803567290306091,0.11494763195514679
1696965177193198800,3.67019873046875,4.193132400512695,-0.4164207875728607,0.8813962936401367
1696965177203213300,3.68021337890625,2.6038713455200195,-0.3981681168079376,0.43680232763290405
1696965177213227500,3.6902275390625,2.915925979614258,-0.5392864942550659,0.1380564570426941
1696965177223241700,3.70024169921875,4.0635881423950195,-0.3972158133983612,0.9642000198364258
1696965177233256000,3.710255859375,4.372023582458496,-0.1548774242401123,0.42493295669555664
1696965177243270100,3.720270263671875,1.970703125,-0.907801628112793,-0.41890227794647217
1696965177253284400,3.730284423828125,3.971926689147949,-0.6356298923492432,0.8535065650939941
1696965177263298600,3.740298583984375,4.305037498474121,-0.27363526821136475,0.4979913830757141
1696965177273312800,3.750312744140625,1.6702938079833984,-0.7495768070220947,-0.2743045687675476
1696965177283327000,3.760326904296875,3.5054845809936523,-0.7967404127120972,0.5734410881996155
1696965177293341200,3.770341064453125,3.993269920349121,-0.23867452144622803,0.38195833563804626
1696965177303355400,3.78035546875,1.0730524063110352,-0.824345588684082,-0.47797510027885437
1696965177313369600,3.79036962890625,2.2221269607543945,-0.5011419057846069,0.18768072128295898
1696965177323383800,3.8003837890625,2.5655651092529297,-0.10468953847885132,0.3855859935283661
1696965177333398000,3.81039794921875,0.10818862915039062,-0.9523209929466248,-0.6407817006111145
1696965177343412200,3.820412109375,0.6818857192993164,-0.2045431137084961,0.07999633252620697
1696965177353426400,3.830426513671875,1.7940950393676758,0.017542779445648193,0.4281485080718994
1696965177363440600,3.840440673828125,0.5669784545898438,-0.31073933839797974,0.028953447937965393
1696965177373454800,3.850454833984375,-0.2796897888183594,-0.27851587533950806,-0.9880369901657104
1696965177383469000,3.860468994140625,-0.7272205352783203,-0.710588276386261,-0.07644358277320862
1696965177393483500,3.8704833984375,1.029078483581543,0.383284330368042,0.8900690078735352
1696965177403497700,3.880497802734375,-0.5974617004394531,-0.40528804063796997,-0.5654659271240234
1696965177413512000,3.890511962890625,-0.6524276733398438,-0.3245586156845093,-0.22840054333209991
1696965177423526100,3.900526123046875,0.7213850021362305,-0.263805627822876,0.4538494646549225
1696965177433540600,3.91054052734375,-0.8326683044433594,-0.45210304856300354,-0.09713253378868103
1696965177443554800,3.920554931640625,-0.7008686065673828,-0.21314287185668945,-0.3523009419441223
1696965177453569000,3.930569091796875,-0.02446269989013672,-0.2625637650489807,0.2595374584197998
1696965177463583200,3.940583251953125,-0.2962007522583008,-0.1381523609161377,0.26107996702194214
1696965177473597700,3.95059765625,-1.2601308822631836,-0.018307805061340332,-0.04511956870555878
1696965177483612000,3.96061181640625,0.9560279846191406,-0.3041267395019531,0.3505403399467468
1696965177493626000,3.970626220703125,-1.3206043243408203,-0.22083693742752075,0.16371884942054749
1696965177503640300,3.980640380859375,-0.7818260192871094,-0.20745164155960083,0.09511271119117737
1696965177513654800,3.99065478515625,-0.6075773239135742,0.09271883964538574,-0.09900066256523132
1696965177523669000,4.0006689453125,-0.27137088775634766,-0.15660244226455688,0.34755465388298035
1696965177533683200,4.01068310546875,-1.3890304565429688,-0.07771444320678711,-0.17223286628723145
1696965177543697400,4.020697509765625,-0.5923242568969727,-0.29543137550354004,0.23154610395431519
1696965177553711900,4.0307119140625,0.2451934814453125,0.05286592245101929,0.06192240118980408
1696965177563726000,4.04072607421875,-2.0017528533935547,-0.24923276901245117,-0.056767165660858154
1696965177573740300,4.050740234375,-0.18616199493408203,-0.14080339670181274,-0.05371439456939697
1696965177583754500,4.06075439453125,-0.4920196533203125,-0.14872050285339355,0.014938503503799438
1696965177593769000,4.07076904296875,-0.4533042907714844,-0.33517569303512573,-0.05052247643470764
1696965177603783200,4.080783203125,-0.7254037857055664,-0.4437691271305084,-0.15380904078483582
1696965177613797400,4.09079736328125,0.040164947509765625,-0.29766154289245605,0.05256512761116028
1696965177623811600,4.1008115234375,-0.9597158432006836,-0.5091825723648071,0.02912205457687378
1696965177633826000,4.110825927734375,0.11203575134277344,-0.27872735261917114,-0.1129036694765091
1696965177643840300,4.12084033203125,0.005535125732421875,-0.35438600182533264,0.087739497423172
1696965177653854500,4.1308544921875,0.07117462158203125,-0.6340854167938232,0.3716218173503876
1696965177663868700,4.14086865234375,0.2369365692138672,-0.4913661777973175,0.41114291548728943
1696965177673883100,4.150883056640625,0.8658018112182617,-0.5210424661636353,0.5816980600357056
1696965177683897300,4.1608974609375,0.4656181335449219,-0.8755935430526733,0.6665125489234924
1696965177693911600,4.17091162109375,0.448638916015625,-0.6739420890808105,0.6767387986183167
1696965177703925800,4.18092578125,1.4114322662353516,-0.5310813188552856,0.6649402976036072
1696965177713940200,4.190940185546875,0.049312591552734375,-0.8430789709091187,0.571691632270813
1696965177723954400,4.200954345703125,-0.04300975799560547,-0.7286303639411926,0.771522045135498
1696965177733968600,4.21096875,1.4897756576538086,-0.6441904902458191,0.5431675910949707
1696965177743982800,4.22098291015625,-0.5509271621704102,-0.7811391353607178,0.6559956669807434
1696965177753997300,4.230997314453125,0.14212894439697266,-0.7163771986961365,0.4567611515522003
1696965177764011500,4.241011474609375,-0.32279109954833984,-0.7642130255699158,0.43733155727386475
1696965177774025700,4.251025634765625,0.9673643112182617,-0.687878429889679,0.9438384771347046
1696965177784040000,4.2610400390625,-1.3250389099121094,-0.666285514831543,0.5990431904792786
1696965177794054400,4.271054443359375,0.23538875579833984,-0.5258033871650696,0.8963397741317749
1696965177804068600,4.281068603515625,0.14809322357177734,-0.39765605330467224,0.9639499187469482
1696965177814082800,4.291082763671875,-0.7990808486938477,-0.9074239134788513,1.1511741876602173
1696965177824097000,4.301096923828125,-0.2099008560180664,-0.6181608438491821,0.934893786907196
1696965177834111500,4.311111572265625,0.2681589126586914,-0.3814311921596527,1.3109670877456665
1696965177844125700,4.321125732421875,-0.5787382125854492,-0.8539515733718872,1.0626784563064575
1696965177854140000,4.331139892578125,-0.7591629028320312,-0.35187438130378723,0.8780184984207153
1696965177864154000,4.341154052734375,0.08373832702636719,-0.4277050197124481,1.1968119144439697
1696965177874168600,4.35116845703125,-0.6715259552001953,-0.6633793115615845,0.8951430320739746
1696965177884182800,4.361182861328125,-1.3530635833740234,-0.39868131279945374,0.6036018133163452
1696965177894197000,4.371197021484375,0.09388542175292969,-0.3426777422428131,0.429936945438385
1696965177904211200,4.381211181640625,-0.7850914001464844,-0.49484145641326904,0.4967935383319855
1696965177914225400,4.391225341796875,-2.058474540710449,-0.4995339810848236,-0.10697409510612488
1696965177924240000,4.401239990234375,-0.8863296508789062,-0.40211743116378784,-0.3334537744522095
1696965177934254000,4.411254150390625,-0.5579814910888672,-0.10144001245498657,-0.30390024185180664
1696965177944268300,4.421268310546875,-2.203996181488037,-0.4959277808666229,-0.7194998860359192
1696965177954282500,4.431282470703125,-1.3367843627929688,-0.03014284372329712,-0.9009336233139038
1696965177964297000,4.441296875,-0.47145557403564453,-0.055480122566223145,-0.6924272179603577
1696965177974311200,4.451311279296875,-1.9211583137512207,-0.1580437421798706,-1.255558729171753
1696965177984325400,4.461325439453125,-1.8952040672302246,-0.06938421726226807,-1.5223431587219238
1696965177994339600,4.471339599609375,-0.024433135986328125,-0.02997368574142456,-0.9970013499259949
1696965178004354000,4.48135400390625,-1.4843406677246094,-0.025046467781066895,-1.596983551979065
1696965178014368300,4.4913681640625,-1.4877586364746094,0.3487052917480469,-1.7735322713851929
1696965178024382500,4.501382568359375,-0.33452510833740234,0.04707670211791992,-1.4074019193649292
1696965178034396700,4.511396728515625,-1.1338863372802734,0.3244696855545044,-1.1535030603408813
1696965178044411100,4.5214111328125,-0.8082513809204102,0.14843136072158813,-1.6118818521499634
1696965178054425300,4.53142529296875,-0.5932741165161133,0.33625686168670654,-1.6049619913101196
1696965178064439600,4.541439453125,-0.4791879653930664,0.29018592834472656,-1.3031203746795654
1696965178074453800,4.551453857421875,-0.5996809005737305,-0.1363086700439453,-1.6596163511276245
1696965178084468200,4.56146826171875,-0.1655569076538086,-0.3695265054702759,-1.7257627248764038
1696965178094482400,4.571482421875,-0.3347291946411133,0.40257835388183594,-1.1126269102096558
1696965178104496600,4.58149658203125,-0.46543407440185547,0.09957313537597656,-1.2111390829086304
1696965178114510800,4.5915107421875,0.2595682144165039,0.09924232959747314,-1.495023488998413
1696965178124525300,4.601525390625,0.06991195678710938,0.5588486194610596,-0.9155595302581787
1696965178134539500,4.61153955078125,0.6164751052856445,0.1160653829574585,-1.0398576259613037
1696965178144553700,4.6215537109375,0.7649383544921875,0.4784102439880371,-0.920017659664154
1696965178154568000,4.63156787109375,1.051457405090332,0.1341332197189331,-0.8138132095336914
1696965178164582400,4.64158251953125,-0.7608442306518555,0.4565690755844116,-0.783424973487854
1696965178174596600,4.6515966796875,2.1860427856445312,0.5662752389907837,0.014078333973884583
1696965178184610800,4.66161083984375,0.7195339202880859,0.8374788761138916,-0.4172287583351135
1696965178194625000,4.671625,0.6278524398803711,0.3417245149612427,-0.1557164192199707
1696965178204639500,4.681639404296875,2.156195640563965,1.077493667602539,0.04064245522022247
1696965178214653700,4.69165380859375,0.26384639739990234,0.8508671522140503,0.3258960247039795
1696965178224668000,4.70166796875,1.448542594909668,0.8244999647140503,0.168712317943573
1696965178234682000,4.71168212890625,1.1535673141479492,0.8798617124557495,0.7740085124969482
1696965178244696600,4.721696533203125,1.647500991821289,0.6890817880630493,1.0080814361572266
1696965178254710800,4.731710693359375,0.3766489028930664,0.8674852848052979,0.7123515009880066
1696965178264725000,4.74172509765625,2.343987464904785,0.760992169380188,0.8702801465988159
1696965178274739200,4.7517392578125,0.00070953369140625,0.678036093711853,0.995149552822113
1696965178284753700,4.761753662109375,1.237466812133789,0.4453774690628052,1.1544749736785889
1696965178294767900,4.771767822265625,0.6026678085327148,0.41794610023498535,0.9309219121932983
1696965178304782000,4.781781982421875,0.8439083099365234,0.47287893295288086,0.8835707902908325
1696965178314796300,4.79179638671875,0.5491952896118164,0.09308087825775146,0.8112508654594421
1696965178324810800,4.801810791015625,0.8955192565917969,0.3985646963119507,0.6853125095367432
1696965178334825000,4.811824951171875,-0.6752557754516602,0.11474323272705078,0.8875814080238342
1696965178344839200,4.821839111328125,0.6536731719970703,0.03868746757507324,0.6591808795928955
1696965178354853400,4.831853271484375,0.05839824676513672,0.032826781272888184,0.672555685043335
1696965178364867600,4.84186767578125,0.2052173614501953,0.09037232398986816,0.7380968332290649
1696965178374881800,4.8518818359375,-0.3412332534790039,-0.0870286226272583,0.37020790576934814
1696965178384896000,4.86189599609375,0.7911157608032227,0.013191938400268555,0.37591344118118286
1696965178394910200,4.87191015625,-1.1233940124511719,-0.4135572910308838,0.3600468039512634
1696965178404924400,4.88192431640625,0.46006107330322266,-0.35520803928375244,0.4016987681388855
1696965178414938600,4.891938720703125,0.042252540588378906,0.14545583724975586,0.13407251238822937
1696965178424952800,4.901952880859375,-0.06867027282714844,-0.6888717412948608,-0.0629144161939621
1696965178434967000,4.911967041015625,-0.47089195251464844,-0.4641263484954834,-0.2749910354614258
1696965178444981200,4.921981201171875,0.4805135726928711,-0.021678447723388672,-0.017564862966537476
1696965178454995500,4.931995361328125,-0.9885530471801758,-0.593877911567688,-0.335310161113739
1696965178465010000,4.942010009765625,-0.09320640563964844,-0.2372204065322876,-0.5303571224212646
1696965178475024100,4.952024169921875,0.1358776092529297,-0.6337339878082275,-0.5448169112205505
1696965178485038300,4.962038330078125,-0.9259128570556641,-0.48922502994537354,-0.5173254013061523
1696965178495052500,4.972052490234375,0.17497825622558594,-0.39276421070098877,-0.8495746850967407
1696965178505066800,4.982066650390625,-0.8102436065673828,-0.4321305751800537,-0.759972333908081
1696965178515081000,4.9920810546875,0.018117904663085938,-0.465878963470459,-0.46787652373313904
1696965178525095200,5.00209521484375,-1.0096626281738281,-0.6828243732452393,-0.8926936388015747
1696965178535109400,5.012109375,-0.018163681030273438,-0.4066781997680664,-0.7245349287986755
1696965178545123600,5.02212353515625,-0.4960908889770508,-0.09943723678588867,-0.6822397708892822
1696965178555137800,5.0321376953125,-0.3373260498046875,-0.5758844614028931,-0.829979419708252
1696965178565152000,5.042152099609375,-0.045014381408691406,-0.31155097484588623,-0.695920467376709
1696965178575166200,5.052166259765625,-0.84771728515625,-0.4786093235015869,-0.6314524412155151
1696965178585180400,5.062180419921875,-0.9698495864868164,-0.04268240928649902,-0.7244454622268677
1696965178595194600,5.072194580078125,0.30383777618408203,-0.4019962549209595,-0.45595717430114746
1696965178605208800,5.082208740234375,-0.4948253631591797,-0.2544670104980469,-0.6374041438102722
1696965178615223000,5.09222314453125,-1.2676582336425781,-0.18345439434051514,-0.8592535257339478
1696965178625237200,5.1022373046875,0.9865036010742188,-0.03595161437988281,-0.38208943605422974
1696965178635251500,5.11225146484375,-0.9511499404907227,-0.2439262866973877,-0.42597997188568115
1696965178645265700,5.122265625,-0.8339157104492188,-0.30208075046539307,-0.48776572942733765
1696965178655279900,5.13227978515625,0.5112056732177734,0.11759388446807861,-0.03945828229188919
1696965178665294300,5.14229443359375,0.4719734191894531,-0.11944282054901123,-0.3117150366306305
1696965178675308500,5.15230859375,-1.3448867797851562,-0.25095629692077637,-0.48087742924690247
1696965178685322800,5.16232275390625,1.387324333190918,0.04983711242675781,0.054617077112197876
1696965178695337000,5.1723369140625,-1.0482378005981445,0.10842525959014893,-0.1588365137577057
1696965178705351400,5.182351318359375,0.18756580352783203,-0.07518351078033447,-0.13120049238204956
1696965178715365600,5.19236572265625,0.43091773986816406,-0.08121359348297119,0.10375908762216568
1696965178725379800,5.2023798828125,-0.32483768463134766,-0.050662994384765625,0.07460980862379074
1696965178735394000,5.21239404296875,-0.36211204528808594,0.010157942771911621,-0.2448386698961258
1696965178745408500,5.222408447265625,0.8527622222900391,0.04702651500701904,-0.2267170548439026
1696965178755422700,5.232422607421875,-0.39629459381103516,-0.02299630641937256,0.007785536348819733
1696965178765437000,5.24243701171875,-0.17534542083740234,0.01905691623687744,-0.21312351524829865
1696965178775451100,5.252451171875,0.6232366561889648,-0.18740487098693848,0.011022642254829407
1696965178785465600,5.262465576171875,0.16314220428466797,-0.06941747665405273,-0.039323367178440094
1696965178795479800,5.272479736328125,-0.6111860275268555,-0.02351367473602295,-0.02385595440864563
1696965178805494000,5.282493896484375,1.7032489776611328,0.1775972843170166,-0.08412490785121918
1696965178815508200,5.29250830078125,-0.2886495590209961,-0.01710367202758789,-0.3717779815196991
1696965178825522700,5.302522705078125,-0.2590761184692383,-0.3671395778656006,0.21831664443016052
1696965178835537000,5.312536865234375,1.342350959777832,0.03585922718048096,-0.060389742255210876
1696965178845551000,5.322551025390625,-0.05602264404296875,0.13282406330108643,-0.06191183254122734
1696965178855565300,5.3325654296875,0.05411815643310547,-0.4417835474014282,0.01981665939092636
1696965178865579500,5.34257958984375,0.6752786636352539,0.30891919136047363,-0.22481799125671387
1696965178875594000,5.352593994140625,0.912867546081543,0.415594220161438,0.3878590166568756
1696965178885608200,5.362608154296875,-1.3545417785644531,-0.7909607887268066,-0.4330199956893921
1696965178895622400,5.372622314453125,1.6977205276489258,0.18180668354034424,0.527092695236206
1696965178905636600,5.38263671875,-0.6383724212646484,0.2504596710205078,-0.15812665224075317
1696965178915651000,5.392651123046875,-0.49806880950927734,-0.22429132461547852,-0.07684949040412903
1696965178925665300,5.402665283203125,1.849431037902832,0.41304779052734375,0.1319815218448639
1696965178935679500,5.412679443359375,-2.1404175758361816,-0.093086838722229,-0.08491829037666321
1696965178945693700,5.422693603515625,0.5839605331420898,-0.06746280193328857,0.48298388719558716
1696965178955708200,5.432708251953125,-0.14882946014404297,0.14819860458374023,-0.2408612221479416
1696965178965722400,5.442722412109375,-1.5292577743530273,-0.1601884365081787,0.06775902956724167
1696965178975736600,5.452736572265625,1.355910301208496,0.35398221015930176,0.25906264781951904
1696965178985750800,5.462750732421875,-1.1323366165161133,0.040813565254211426,-0.3462887406349182
1696965178995765200,5.47276513671875,-0.7329130172729492,-0.09255087375640869,-0.0060410648584365845
1696965179005779500,5.482779541015625,0.8171291351318359,-0.08637726306915283,0.3426983654499054
1696965179015793700,5.492793701171875,-1.0868558883666992,-0.04864299297332764,-0.20417001843452454
1696965179025808000,5.502807861328125,-0.3578672409057617,0.11502408981323242,-0.1879492551088333
1696965179035822300,5.512822265625,0.9571380615234375,0.2540677785873413,-0.060670770704746246
1696965179045836500,5.52283642578125,-1.4107770919799805,-0.06694996356964111,0.2069815993309021
1696965179055850800,5.532850830078125,1.1826066970825195,0.05031871795654297,-0.30176249146461487
1696965179065865000,5.542864990234375,-1.0615425109863281,0.015810608863830566,0.1675717532634735
1696965179075879400,5.55287939453125,1.0148944854736328,-0.020263314247131348,0.21989598870277405
1696965179085893600,5.5628935546875,-1.0808830261230469,-0.19682908058166504,-0.4662892520427704
1696965179095907800,5.572907958984375,1.5596895217895508,0.4689826965332031,0.11424677819013596
1696965179105922000,5.582922119140625,-1.0201454162597656,-0.2103896141052246,-0.3953372836112976
1696965179115936500,5.5929365234375,0.5975503921508789,-0.2851918935775757,-0.06685065478086472
1696965179125950700,5.60295068359375,0.29969310760498047,0.036116600036621094,-0.24576601386070251
1696965179135965000,5.61296484375,-0.2841005325317383,0.0027685165405273438,-0.4282170236110687
1696965179145979100,5.622979248046875,0.9207544326782227,-0.13958656787872314,-0.4791146516799927
1696965179155993600,5.63299365234375,-0.8257389068603516,0.008058667182922363,-0.2345324456691742
1696965179166007800,5.6430078125,0.4329872131347656,-0.0907754898071289,-0.3869549632072449
1696965179176022000,5.65302197265625,0.13088703155517578,-0.04798233509063721,-0.35361409187316895
1696965179186036200,5.6630361328125,-0.47633838653564453,-0.3061560392379761,-0.3344736695289612
1696965179196050700,5.67305078125,-0.030735015869140625,0.38307011127471924,-0.2235839068889618
1696965179206065000,5.68306494140625,0.4663867950439453,-0.1056816577911377,-0.31307587027549744
1696965179216079000,5.6930791015625,-1.2168970108032227,0.08997642993927002,-0.22920452058315277
1696965179226093300,5.70309326171875,0.8648815155029297,0.014200448989868164,0.060523197054862976
1696965179236107800,5.713107666015625,0.1364297866821289,-0.2258542776107788,-0.34071826934814453
1696965179246122000,5.7231220703125,-0.4851875305175781,-0.014723777770996094,0.0918445885181427
1696965179256136200,5.73313623046875,0.4479379653930664,-0.28286123275756836,-0.3460947573184967
1696965179266150400,5.743150390625,0.016837120056152344,0.2810087203979492,0.17458412051200867
1696965179276164900,5.753164794921875,0.48506736755371094,-0.3312239646911621,-0.17290079593658447
1696965179286179000,5.763178955078125,-0.7537317276000977,0.0697551965713501,-0.2336651086807251
1696965179296193300,5.773193359375,1.5420160293579102,-0.207419753074646,-0.22936928272247314
1696965179306207500,5.78320751953125,-1.8642621040344238,-0.3280768394470215,-0.41820400953292847
1696965179316222000,5.793221923828125,2.379305839538574,0.017112135887145996,-0.037262819707393646
1696965179326236200,5.803236083984375,-2.1185946464538574,0.09598898887634277,-0.32346782088279724
1696965179336250400,5.81325048828125,1.6380853652954102,-0.06582427024841309,-0.010134883224964142
1696965179346264600,5.8232646484375,0.2052774429321289,0.1476973295211792,-0.0024817362427711487
1696965179356279000,5.833279052734375,-0.3017158508300781,-0.23563706874847412,-0.0577763170003891
1696965179366293200,5.843293212890625,0.4206819534301758,-0.2306070327758789,0.007253557443618774
1696965179376307500,5.853307373046875,0.5297441482543945,0.10291159152984619,-0.02914649248123169
1696965179386321700,5.86332177734375,0.02676105499267578,0.053698182106018066,0.18077228963375092
1696965179396336000,5.873336181640625,1.1116247177124023,-0.004849076271057129,0.16351941227912903
1696965179406350300,5.883350341796875,-0.16690731048583984,-0.17888331413269043,-0.005721785128116608
1696965179416364500,5.893364501953125,-0.022991180419921875,-0.24183619022369385,-0.09472910314798355
1696965179426378800,5.903378662109375,1.0381889343261719,0.18707656860351562,0.012353852391242981
1696965179436393000,5.91339306640625,-0.9617166519165039,-0.002298712730407715,-0.439623087644577
1696965179446407400,5.923407470703125,0.09699058532714844,0.025001168251037598,-0.031373582780361176
1696965179456421600,5.933421630859375,0.43155860900878906,0.01285099983215332,-0.13589157164096832
1696965179466435800,5.943435791015625,-1.1127796173095703,0.04343259334564209,-0.2545424997806549
1696965179476450000,5.953449951171875,0.47671031951904297,0.08048820495605469,-0.3016662001609802
1696965179486464500,5.963464599609375,-1.1202116012573242,0.0959392786026001,-0.08884388953447342
1696965179496478700,5.973478759765625,0.36890602111816406,0.037600159645080566,-0.2181534767150879
1696965179506493000,5.983492919921875,-1.1657037734985352,0.05845904350280762,-0.23135541379451752
1696965179516507100,5.993507080078125,1.0882463455200195,0.18607425689697266,-0.004937969148159027
1696965179526521600,6.003521484375,-0.9643325805664062,-0.1851053237915039,-0.23110345005989075
1696965179536535800,6.013535888671875,0.3238077163696289,0.4350404739379883,-0.08281123638153076
1696965179546550000,6.023550048828125,-0.8332309722900391,-0.1849532127380371,-0.1837131381034851
1696965179556564200,6.033564208984375,0.9229021072387695,0.2584714889526367,0.17135292291641235
1696965179566578700,6.04357861328125,-0.8329763412475586,-0.23714232444763184,-0.3737773299217224
1696965179576593000,6.053593017578125,0.215911865234375,0.24911022186279297,0.038052015006542206
1696965179586607000,6.063607177734375,-0.32444000244140625,-0.011477470397949219,-0.309874951839447
1696965179596621300,6.073621337890625,-0.8155555725097656,0.07204878330230713,-0.148838073015213
1696965179606635800,6.0836357421875,0.2762336730957031,-0.0537639856338501,0.35570797324180603
1696965179616650000,6.09364990234375,-0.28335094451904297,0.31702160835266113,-0.25690701603889465
1696965179626664200,6.103664306640625,0.14289188385009766,-0.09645271301269531,0.08660745620727539
1696965179636678400,6.113678466796875,-0.5693120956420898,0.14551198482513428,0.021233752369880676
1696965179646692900,6.12369287109375,-0.47690677642822266,0.158003568649292,-0.03738648071885109
1696965179656707000,6.13370703125,0.17430877685546875,0.30967915058135986,-0.03466210141777992
1696965179666721300,6.14372119140625,-0.6574516296386719,0.09216201305389404,0.029611721634864807
1696965179676735500,6.153735595703125,0.36214733123779297,0.1869645118713379,0.13919928669929504
1696965179686750000,6.16375,-0.7521352767944336,0.27633392810821533,-0.1544269621372223
1696965179696764200,6.17376416015625,0.18164539337158203,0.2755138874053955,-0.189791738986969
1696965179706778400,6.1837783203125,-0.6598386764526367,0.16913866996765137,0.15860524773597717
1696965179716792600,6.19379248046875,0.1637420654296875,0.31714916229248047,-0.14455546438694
1696965179726807000,6.20380712890625,-0.6203622817993164,0.3732576370239258,-0.02080613374710083
1696965179736821200,6.2138212890625,0.2508659362792969,0.0719461441040039,0.081767737865448
1696965179746835500,6.22383544921875,-0.5526657104492188,0.30611085891723633,-0.39407879114151
1696965179756849700,6.233849609375,0.055606842041015625,0.31050539016723633,0.20339933037757874
1696965179766864100,6.243864013671875,0.3038797378540039,0.09526312351226807,-0.30413681268692017
1696965179776878300,6.25387841796875,-0.3611268997192383,0.3910723924636841,-0.22249330580234528
1696965179786892500,6.263892578125,0.35170555114746094,0.09490251541137695,0.24767035245895386
1696965179796906800,6.27390673828125,-0.2513256072998047,0.21876895427703857,-0.3423267602920532
1696965179806921200,6.283921142578125,-0.22683143615722656,0.39053022861480713,0.007021401077508926
1696965179816935400,6.293935302734375,0.3184785842895508,-0.12620830535888672,-0.16634228825569153
1696965179826949600,6.30394970703125,0.13609981536865234,0.5047755241394043,-0.16597524285316467
1696965179836963800,6.3139638671875,0.41178131103515625,0.10528600215911865,-0.042699091136455536
1696965179846978300,6.323978271484375,-0.04258441925048828,0.10777366161346436,-0.3286980092525482
1696965179856992500,6.333992431640625,0.3821687698364258,0.24693620204925537,0.18123669922351837
1696965179867006700,6.3440068359375,0.32874298095703125,-0.045136451721191406,-0.3365243375301361
1696965179877021000,6.35402099609375,-0.1948070526123047,0.3171656131744385,-0.1400565207004547
1696965179887035400,6.364035400390625,0.7931098937988281,-0.18327462673187256,-0.4125489592552185
1696965179897049600,6.374049560546875,-0.21388912200927734,0.39709925651550293,-0.1116415411233902
1696965179907063800,6.384063720703125,0.2467479705810547,0.008072257041931152,-0.21162548661231995
1696965179917078000,6.394078125,-0.2564687728881836,0.19412577152252197,-0.2937619686126709
1696965179927092500,6.404092529296875,0.6901893615722656,0.08591055870056152,0.2061634659767151
1696965179937106700,6.414106689453125,-0.27269744873046875,-0.04958999156951904,-0.26695504784584045
1696965179947121000,6.424120849609375,-0.04656696319580078,0.2561185359954834,-0.20162299275398254
1696965179957135000,6.434135009765625,-0.12092971801757812,0.06615447998046875,-0.394659161567688
1696965179967149300,6.4441494140625,0.03209495544433594,0.3079555034637451,-0.08336535841226578
1696965179977163800,6.454163818359375,-0.14731979370117188,0.24985086917877197,-0.31074729561805725
1696965179987178000,6.464177978515625,-0.6346139907836914,-0.09518563747406006,-0.24601300060749054
1696965179997192200,6.474192138671875,0.1109628677368164,0.22621166706085205,-0.06699208915233612
1696965180007206400,6.484206298828125,-0.1686716079711914,0.20222842693328857,-0.3725341558456421
1696965180017220900,6.494220947265625,-0.12334156036376953,0.056558966636657715,-0.4895912706851959
1696965180027235000,6.504235107421875,-0.9457063674926758,0.33331549167633057,-0.3482978641986847
1696965180037249300,6.514249267578125,0.5776815414428711,0.0445249080657959,-0.11595761775970459
1696965180047263500,6.524263427734375,-0.2609987258911133,0.33028173446655273,-0.1259956657886505
1696965180057278000,6.53427783203125,-0.5958471298217773,-0.1652367115020752,-0.21541300415992737
1696965180067292200,6.544292236328125,0.8368349075317383,0.285114049911499,-0.06987744569778442
1696965180077306400,6.554306396484375,-1.2923011779785156,-0.18220961093902588,-0.5108951330184937
1696965180087320600,6.564320556640625,0.31214141845703125,0.17910706996917725,-0.08714571595191956
1696965180097335000,6.5743349609375,-0.09811687469482422,0.10927391052246094,-0.06547985970973969
1696965180107349200,6.584349365234375,0.030775070190429688,0.17292845249176025,-0.27746742963790894
1696965180117363500,6.594363525390625,-0.49736976623535156,0.09920167922973633,-0.27026620507240295
1696965180127377700,6.604377685546875,0.05269813537597656,-0.23230814933776855,-0.16415175795555115
1696965180137392000,6.61439208984375,-0.3863229751586914,0.26154208183288574,-0.2381688505411148
1696965180147406300,6.62440625,0.17603492736816406,0.16748476028442383,-0.12423016875982285
1696965180157420500,6.634420654296875,0.6724472045898438,0.04242861270904541,-0.023615412414073944
1696965180167434800,6.644434814453125,-0.3281211853027344,0.19731104373931885,-0.054335229098796844
1696965180177449200,6.65444921875,0.2520732879638672,-0.21090662479400635,-0.08170658349990845
1696965180187463400,6.66446337890625,0.5116443634033203,0.3676912784576416,0.1394476592540741
1696965180197477600,6.6744775390625,-0.23643112182617188,-0.2469632625579834,0.18271160125732422
1696965180207491800,6.684491943359375,0.8981132507324219,0.13458561897277832,0.0451267845928669
1696965180217506300,6.69450634765625,-0.4500255584716797,-0.21696603298187256,-0.16211025416851044
1696965180227520500,6.7045205078125,0.5327825546264648,-0.035115838050842285,-0.11030024290084839
1696965180237534700,6.71453466796875,0.34030818939208984,0.13857769966125488,0.18467876315116882
1696965180247549000,6.724548828125,0.06153106689453125,-0.29824674129486084,-0.20972339808940887
1696965180257563400,6.7345634765625,0.8614988327026367,0.17694377899169922,0.23888708651065826
1696965180267577600,6.74457763671875,-0.36346435546875,-0.274752140045166,-0.11931805312633514
1696965180277591800,6.754591796875,-0.2630929946899414,0.2095792293548584,0.18614287674427032
1696965180287606000,6.76460595703125,1.0557289123535156,0.18698203563690186,-0.022982610389590263
1696965180297620500,6.774620361328125,-1.015625,0.17212486267089844,0.2788003981113434
1696965180307634700,6.784634765625,1.356679916381836,0.015184640884399414,0.20123660564422607
1696965180317649000,6.79464892578125,-2.0247244834899902,-0.0386812686920166,-0.0679343044757843
1696965180327663000,6.8046630859375,1.3206596374511719,0.10620272159576416,0.38104864954948425
1696965180337677600,6.814677490234375,-1.7411375045776367,0.09602737426757812,-0.596721351146698
1696965180347691800,6.82469189453125,0.8772830963134766,0.10073244571685791,0.4833035469055176
1696965180357706000,6.8347060546875,-1.1274337768554688,-0.056116342544555664,-0.5333064198493958
1696965180367720200,6.84472021484375,-0.6849870681762695,0.1926957368850708,-0.2687292695045471
1696965180377734700,6.854734619140625,0.9794816970825195,-0.04406630992889404,0.1897507905960083
1696965180387748900,6.864748779296875,-2.3060154914855957,-0.2552109956741333,-0.492828369140625
1696965180397763000,6.87476318359375,1.7805891036987305,0.09758269786834717,-0.04914163053035736
1696965180407777300,6.88477734375,-1.8845648765563965,-0.03651881217956543,-0.4026211202144623
1696965180417791700,6.894791748046875,1.9383316040039062,0.10866856575012207,0.31666406989097595
1696965180427806000,6.904805908203125,-1.469198226928711,-0.1206202507019043,-0.6696611642837524
1696965180437820200,6.914820068359375,1.0003366470336914,-0.05750691890716553,0.2147088199853897
1696965180447834400,6.92483447265625,0.10406780242919922,-0.008782029151916504,-0.15268464386463165
1696965180457848800,6.934848876953125,-0.23549747467041016,-0.15217208862304688,-0.27782532572746277
1696965180467863000,6.944863037109375,0.2716550827026367,0.07766091823577881,0.26762691140174866
1696965180477877200,6.954877197265625,0.7441034317016602,-0.18541944026947021,-0.18973468244075775
1696965180487891500,6.964891357421875,-0.24689483642578125,-0.16671764850616455,-0.11406515538692474
1696965180497906000,6.974906005859375,0.1695413589477539,-0.14276254177093506,-0.14621120691299438
1696965180507920100,6.984920166015625,-0.05533027648925781,0.042679548263549805,-0.23261618614196777
1696965180517934300,6.994934326171875,0.5471315383911133,-0.07819771766662598,-0.21529847383499146
1696965180527948500,7.004948486328125,-0.8016548156738281,-0.022681593894958496,-0.4239654541015625
1696965180537962800,7.014962646484375,0.6771602630615234,-0.2288968563079834,-0.05690562725067139
1696965180547977200,7.024977294921875,-1.2262468338012695,-0.015819072723388672,-0.6149685978889465
1696965180557991400,7.034991455078125,1.190323829650879,0.12670791149139404,0.06302598118782043
1696965180568005600,7.045005615234375,-1.1779117584228516,-0.029188871383666992,-0.30863654613494873
1696965180578019800,7.055019775390625,0.3736591339111328,-0.0070378780364990234,-0.08294199407100677
1696965180588034300,7.065034423828125,0.3585186004638672,0.33130156993865967,-0.04823068529367447
1696965180598048500,7.075048583984375,-0.4830589294433594,-0.461334228515625,-0.007917426526546478
1696965180608062700,7.085062744140625,0.6986532211303711,0.2798888683319092,-0.14241135120391846
1696965180618077000,7.095076904296875,-0.9036664962768555,-0.15388619899749756,-0.5351799130439758
1696965180628091400,7.10509130859375,1.2970609664916992,0.5813688039779663,0.381832480430603
1696965180638105600,7.115105712890625,-1.3581790924072266,-0.35931146144866943,-0.6452152132987976
1696965180648119800,7.125119873046875,0.6286029815673828,0.3145383596420288,-0.010102052241563797
1696965180658134000,7.135134033203125,-0.3094348907470703,0.1926661729812622,-0.35291245579719543
1696965180668148500,7.1451484375,-0.2176198959350586,-0.08691978454589844,-0.13242903351783752
1696965180678162700,7.15516259765625,-0.3222007751464844,0.2860114574432373,-0.2152996063232422
1696965180688177000,7.165177001953125,0.41949939727783203,0.1646268367767334,-0.18343597650527954
