time,seconds_elapsed,z,y,x
1696959033058020400,0.167020263671875,2.0571861267089844,-0.9000235795974731,-0.5723150968551636
1696959033067947000,0.176947021484375,-3.1331887245178223,-1.382764220237732,-0.4634491801261902
1696959033077909200,0.1869091796875,-1.532149314880371,-1.0492600202560425,-0.8388733267784119
1696959033087907800,0.196907958984375,1.530137062072754,-0.4724525511264801,-1.2836182117462158
1696959033097942000,0.20694189453125,0.4242057800292969,-0.5656222701072693,-1.1054227352142334
1696959033108009200,0.21700927734375,-1.311335563659668,-0.5950021147727966,-1.4306085109710693
1696959033118106400,0.2271064453125,-0.2646751403808594,-0.6196496486663818,-1.1099226474761963
1696959033128228400,0.237228271484375,0.09652233123779297,-0.3036481738090515,-0.9172376394271851
1696959033138370600,0.24737060546875,-1.8769159317016602,-0.43098780512809753,-0.9581780433654785
1696959033148526300,0.2575263671875,0.06717205047607422,-0.2407570332288742,-1.2717511653900146
1696959033158690000,0.26768994140625,0.07955741882324219,0.33436840772628784,-0.789615273475647
1696959033168855000,0.27785498046875,-0.10859966278076172,-0.22588640451431274,-0.5152989625930786
1696959033178901500,0.287901611328125,-1.148564338684082,0.4372994303703308,-1.2308106422424316
1696959033188915200,0.297915283203125,1.7060298919677734,0.3779914379119873,0.3994200825691223
1696959033198928600,0.3079287109375,-2.5625977516174316,-0.278481662273407,-0.43614017963409424
1696959033208942300,0.3179423828125,-1.268723487854004,-0.09298960119485855,-0.3491702079772949
1696959033218955800,0.327955810546875,-0.2670564651489258,0.3066970705986023,0.057686448097229004
1696959033228969500,0.337969482421875,-0.2988595962524414,0.7860345244407654,0.01091456413269043
1696959033238983000,0.34798291015625,-2.7006616592407227,0.5263853073120117,0.2774559259414673
1696959033248996600,0.35799658203125,-0.37793922424316406,0.561347484588623,0.728356122970581
1696959033259010000,0.368010009765625,-1.0561647415161133,0.7584102153778076,0.8603199124336243
1696959033269023500,0.3780234375,-2.603548526763916,0.15136376023292542,0.5098901987075806
1696959033279037200,0.388037109375,-1.0655193328857422,0.6270475387573242,0.9480997323989868
1696959033289050600,0.398050537109375,0.4576873779296875,0.9589871168136597,1.1626472473144531
1696959033299064300,0.408064208984375,-1.253875732421875,0.9354742765426636,1.183689832687378
1696959033309077800,0.418077880859375,-1.6233758926391602,0.9360160827636719,1.2567989826202393
1696959033319091200,0.42809130859375,-0.2792959213256836,0.969423770904541,1.8429702520370483
1696959033329105000,0.43810498046875,0.08699798583984375,0.8481078147888184,1.9327049255371094
1696959033339118300,0.448118408203125,-1.3991060256958008,0.6185645461082458,1.3733172416687012
1696959033349132000,0.458132080078125,-0.38770580291748047,0.716333270072937,1.3531339168548584
1696959033359145500,0.4681455078125,1.0419769287109375,1.0149891376495361,1.425105333328247
1696959033369159000,0.478158935546875,-1.5121021270751953,0.7410750389099121,1.3458895683288574
1696959033379172600,0.488172607421875,-0.18516159057617188,0.9031555652618408,1.5171277523040771
1696959033389186000,0.49818603515625,1.1296215057373047,1.28997802734375,2.278294801712036
1696959033399199700,0.50819970703125,0.2335948944091797,0.7024530172348022,1.4946225881576538
1696959033409213200,0.518213134765625,-1.823075294494629,0.3879425525665283,1.2886006832122803
1696959033419226600,0.5282265625,0.6354036331176758,0.46248024702072144,1.5179755687713623
1696959033429240300,0.538240234375,0.8663120269775391,0.9401344656944275,1.11428701877594
1696959033439253800,0.548253662109375,-0.943206787109375,0.6544830203056335,1.0254912376403809
1696959033449267500,0.558267333984375,0.41872215270996094,0.7811022996902466,1.2329837083816528
1696959033459281000,0.568281005859375,1.4956121444702148,0.7338137626647949,1.3105000257492065
1696959033469294600,0.578294677734375,-0.7312183380126953,0.12368690967559814,0.7781505584716797
1696959033479308000,0.58830810546875,-1.506082534790039,0.04973626136779785,0.7317195534706116
1696959033489321700,0.59832177734375,0.7508726119995117,0.3773750066757202,0.7041527032852173
1696959033499335400,0.60833544921875,0.6859149932861328,0.6447525024414062,0.7056122422218323
1696959033509349000,0.61834912109375,-0.8218002319335938,0.043378233909606934,0.5587939023971558
1696959033519362800,0.62836279296875,0.6567001342773438,0.3720310926437378,0.4880902171134949
1696959033529376300,0.638376220703125,1.3189001083374023,0.4953424334526062,0.7185969352722168
1696959033539390000,0.648389892578125,-0.7747611999511719,-0.21791458129882812,0.14322417974472046
1696959033549403600,0.658403564453125,-1.1003971099853516,0.08845877647399902,0.18721167743206024
1696959033559417300,0.668417236328125,1.5707836151123047,0.4307587146759033,0.35120728611946106
1696959033569431000,0.67843115234375,0.3959197998046875,0.5530863404273987,0.47463223338127136
1696959033579444500,0.688444580078125,-0.32176876068115234,0.11066335439682007,0.10009753704071045
1696959033589458200,0.698458251953125,0.6598014831542969,0.2079792618751526,0.22177782654762268
1696959033599471900,0.708471923828125,1.1829347610473633,0.41189253330230713,0.20105063915252686
1696959033609485600,0.718485595703125,-0.4478178024291992,-0.35167670249938965,-0.4303644299507141
1696959033619499300,0.728499267578125,-0.8229084014892578,0.19802308082580566,-0.17699825763702393
1696959033629512700,0.7385126953125,2.0781612396240234,0.49736177921295166,0.13745474815368652
1696959033639526400,0.7485263671875,0.5236577987670898,0.13331341743469238,0.44489628076553345
1696959033649540000,0.7585400390625,-0.7865428924560547,-0.0954200029373169,-0.3613561689853668
1696959033659553800,0.7685537109375,0.41991710662841797,0.18541288375854492,-0.19252505898475647
1696959033669567500,0.7785673828125,1.2034502029418945,0.4746708869934082,-0.12111231684684753
1696959033679581000,0.788580810546875,-1.155777931213379,-0.10619890689849854,-0.460755854845047
1696959033689594600,0.7985947265625,-0.7805080413818359,0.19026362895965576,-0.21934616565704346
1696959033699608300,0.8086083984375,1.5889892578125,0.5703308582305908,0.3269291818141937
1696959033709622000,0.8186220703125,-0.03384876251220703,0.18655884265899658,-0.24569165706634521
1696959033719635700,0.8286357421875,-1.9335250854492188,-0.02844524383544922,-0.6551127433776855
1696959033729649200,0.838649169921875,0.40900516510009766,0.4514594078063965,-0.0995919406414032
1696959033739662800,0.848662841796875,0.6834964752197266,0.822628378868103,-0.004856780171394348
1696959033749676500,0.858676513671875,-1.1173124313354492,-0.05423855781555176,-0.2427307665348053
1696959033759690200,0.868690185546875,-0.4264202117919922,0.5014011859893799,-0.1879969835281372
1696959033769704000,0.878703857421875,0.7528476715087891,0.6044644117355347,0.440068781375885
1696959033779717400,0.88871728515625,0.38941097259521484,0.4492877721786499,-0.0019138902425765991
1696959033789731000,0.89873095703125,-1.6879005432128906,0.39655745029449463,-0.2760655879974365
1696959033799744800,0.908744873046875,0.5053310394287109,0.5885807275772095,0.15090766549110413
1696959033809758200,0.91875830078125,1.0871143341064453,0.9929872751235962,0.48383644223213196
1696959033819772000,0.92877197265625,-0.7525873184204102,-0.3078383207321167,-0.06636664271354675
1696959033829785600,0.93878564453125,-0.47827625274658203,0.2933626174926758,0.21493524312973022
1696959033839799000,0.948799072265625,1.2943153381347656,0.6654675006866455,0.7104515433311462
1696959033849812700,0.958812744140625,0.07271480560302734,0.20063340663909912,0.23483888804912567
1696959033859826200,0.968826171875,-1.439009666442871,-0.008698582649230957,-0.1874183863401413
1696959033869840000,0.97883984375,0.989018440246582,0.5472453832626343,0.4302949011325836
1696959033879853600,0.988853515625,0.8794403076171875,0.31317269802093506,1.0168356895446777
1696959033889867000,0.998866943359375,0.008152961730957031,-0.6154470443725586,0.03863859176635742
1696959033899880700,1.008880615234375,-0.7639923095703125,0.059797048568725586,0.15851899981498718
1696959033909894100,1.01889404296875,1.7378921508789062,0.31744325160980225,0.9622999429702759
1696959033919907800,1.028907958984375,0.9242563247680664,0.09810876846313477,0.29183098673820496
1696959033929921500,1.038921630859375,-1.4460506439208984,-0.3573267459869385,-0.02402164600789547
1696959033939935000,1.04893505859375,0.5750675201416016,0.22128725051879883,0.6940483450889587
1696959033949948700,1.05894873046875,1.0157556533813477,0.4414076805114746,0.7655658721923828
1696959033959962000,1.068962158203125,-0.4685993194580078,-0.3665475845336914,-0.21543249487876892
1696959033969975800,1.078975830078125,-1.3933258056640625,0.5071394443511963,0.06261790543794632
1696959033979989500,1.088989501953125,1.4055843353271484,1.2003122568130493,0.4620774984359741
1696959033990003000,1.0990029296875,-0.03069305419921875,1.6673977375030518,-0.31393301486968994
1696959034000016600,1.1090166015625,-1.529348373413086,0.4524921178817749,-1.028425693511963
1696959034010030000,1.119030029296875,-0.15760231018066406,-0.1403573751449585,-0.6244001984596252
1696959034020043800,1.129043701171875,1.3297710418701172,-0.10444927215576172,0.4131253957748413
1696959034030057500,1.139057373046875,-0.7087259292602539,0.5475205183029175,-0.004278961103409529
1696959034040071000,1.14907080078125,-0.5168323516845703,-0.02866947650909424,-0.060020461678504944
1696959034050084600,1.159084716796875,0.7888298034667969,-0.23899388313293457,1.0185145139694214
1696959034060098000,1.16909814453125,0.9484348297119141,0.4756138324737549,1.3276960849761963
1696959034070111700,1.17911181640625,-0.8065624237060547,0.6750205755233765,-0.11007232964038849
1696959034080125400,1.18912548828125,0.05083656311035156,0.19222617149353027,-0.11260721832513809
1696959034090139000,1.199138916015625,1.503920555114746,0.5005642175674438,0.938809871673584
1696959034100152600,1.209152587890625,0.38500118255615234,0.8137251138687134,0.9146212935447693
1696959034110166000,1.219166015625,-1.2849130630493164,0.499683141708374,0.5594423413276672
1696959034120179700,1.2291796875,0.6691389083862305,0.08903336524963379,1.8921239376068115
1696959034130193400,1.239193359375,1.3814544677734375,0.8189858198165894,2.6440517902374268
1696959034140206800,1.249206787109375,-1.7552213668823242,0.04663538932800293,-0.46382206678390503
1696959034150220500,1.259220458984375,-0.6949863433837891,0.5046592950820923,0.11764419823884964
1696959034160234000,1.26923388671875,0.5467615127563477,0.8376768827438354,0.33455950021743774
1696959034170247700,1.27924755859375,-0.3930950164794922,0.4650024175643921,0.10069236904382706
1696959034180261400,1.289261474609375,-1.4727087020874023,0.08693182468414307,-0.2856196165084839
1696959034190274800,1.29927490234375,-0.0015268325805664062,0.18360400199890137,0.000022649765014648438
1696959034200288500,1.30928857421875,1.168208122253418,0.6481564044952393,0.45928674936294556
1696959034210302000,1.319302001953125,-0.1521587371826172,-0.12694883346557617,-0.3023587465286255
1696959034220315600,1.329315673828125,-1.1914310455322266,0.2895946502685547,-0.052412644028663635
1696959034230329300,1.339329345703125,1.6512126922607422,0.5891025066375732,0.6666936278343201
1696959034240342800,1.3493427734375,1.0258398056030273,0.3609815835952759,0.4594000279903412
1696959034250356500,1.3593564453125,-0.9021320343017578,-0.5818544626235962,-0.22039932012557983
1696959034260370000,1.369369873046875,0.3460416793823242,0.19946515560150146,0.31305718421936035
1696959034270383600,1.379383544921875,1.9319820404052734,0.45042669773101807,0.27081844210624695
1696959034280397300,1.389397216796875,0.16848087310791016,-0.30504465103149414,-0.4886515736579895
1696959034290410800,1.39941064453125,-1.5487909317016602,-0.3252131938934326,-0.6538551449775696
1696959034300424400,1.409424560546875,0.6791133880615234,0.41618776321411133,0.09448155760765076
1696959034310438000,1.41943798828125,0.8793373107910156,0.3415524959564209,-0.5162851810455322
1696959034320451600,1.42945166015625,-1.8514251708984375,-0.7356719970703125,-1.1122268438339233
1696959034330465300,1.43946533203125,-0.3537883758544922,-0.08987176418304443,-0.31337663531303406
1696959034340479000,1.44947900390625,1.3949861526489258,0.5010383129119873,0.09090492129325867
1696959034350492700,1.45949267578125,-0.2647275924682617,0.2496635913848877,-0.557593822479248
1696959034360506400,1.46950634765625,-1.8226227760314941,-0.1971454620361328,-0.6037556529045105
1696959034370519800,1.479519775390625,1.030625343322754,0.7198017835617065,0.387661874294281
1696959034380533500,1.489533447265625,0.8290872573852539,0.705191969871521,0.07571234554052353
1696959034390547200,1.499547119140625,-1.4928503036499023,-0.2891136407852173,-0.9873918294906616
1696959034400561000,1.509560791015625,-0.7399873733520508,0.6530766487121582,-0.1504184603691101
1696959034410574600,1.51957470703125,0.4647378921508789,0.7826842069625854,0.11443637311458588
1696959034420588000,1.529588134765625,0.2813272476196289,0.607223391532898,-0.13025234639644623
1696959034430601700,1.539601806640625,-1.3425712585449219,0.07590484619140625,-0.7074224352836609
1696959034440615400,1.549615478515625,-0.3053932189941406,0.8257133960723877,0.1569732129573822
1696959034450629000,1.559629150390625,1.1153182983398438,0.845467209815979,0.2229277789592743
1696959034460642800,1.569642822265625,-0.928248405456543,-0.1353827714920044,-0.6098839044570923
1696959034470656300,1.57965625,-1.4168386459350586,0.530476450920105,-0.4004899859428406
1696959034480670000,1.589669921875,1.7911663055419922,0.7391235828399658,0.602539598941803
1696959034490683600,1.59968359375,0.9710569381713867,0.6204506158828735,0.36172446608543396
1696959034500697300,1.609697265625,-1.290879249572754,-0.291098952293396,-0.20139215886592865
1696959034510711000,1.6197109375,-0.37311744689941406,0.4613419771194458,0.40121370553970337
1696959034520724500,1.629724365234375,1.9194822311401367,0.7027729749679565,0.5334218740463257
1696959034530738200,1.63973828125,-0.333984375,-0.08303165435791016,-0.26964038610458374
1696959034540752000,1.649751953125,-1.0551986694335938,-0.2364649772644043,0.19435915350914001
1696959034550765600,1.659765625,1.0087194442749023,0.3327782154083252,0.8646972179412842
1696959034560779300,1.669779296875,1.6601696014404297,0.29311883449554443,0.3433722257614136
1696959034570792700,1.679792724609375,-1.6392126083374023,-0.7898955345153809,-0.20366448163986206
1696959034580806400,1.689806396484375,-0.11971569061279297,0.3814338445663452,0.1442338079214096
1696959034590820000,1.699820068359375,1.362717628479004,0.15520799160003662,0.8736931085586548
1696959034600833800,1.709833740234375,0.9788227081298828,-0.09201538562774658,0.26362350583076477
1696959034610847500,1.719847412109375,-1.6928391456604004,-0.43946683406829834,-0.18459507822990417
1696959034620861000,1.72986083984375,1.0842170715332031,0.405492901802063,0.7291181087493896
1696959034630874600,1.73987451171875,1.435959815979004,0.5542597770690918,0.4062713086605072
1696959034640888300,1.749888427734375,-0.8199701309204102,-0.4710043668746948,0.07537838816642761
1696959034650902000,1.759902099609375,-0.8857946395874023,0.3182528018951416,0.040954649448394775
1696959034660915700,1.769915771484375,0.7675409317016602,0.6960209608078003,1.0550585985183716
1696959034670929200,1.77992919921875,0.6210594177246094,0.38685083389282227,0.2571326792240143
1696959034680942800,1.78994287109375,-1.6112308502197266,-0.08953750133514404,-0.14402146637439728
1696959034690956500,1.79995654296875,0.1561107635498047,0.613754153251648,0.25725024938583374
1696959034700970200,1.80997021484375,0.4082040786743164,0.759552001953125,0.5203506350517273
1696959034710984000,1.81998388671875,-0.3604001998901367,0.29419827461242676,-0.07373824715614319
1696959034720997400,1.829997314453125,-2.020504951477051,0.22375249862670898,-0.19927242398262024
1696959034731011000,1.840010986328125,0.4254121780395508,0.8837008476257324,0.37088945508003235
1696959034741024800,1.850024658203125,0.42369842529296875,0.9941294193267822,0.21061363816261292
1696959034751038500,1.86003857421875,-1.417191505432129,0.21439242362976074,-0.007531888782978058
1696959034761052200,1.87005224609375,-0.961247444152832,0.6408250331878662,0.039046287536621094
1696959034771065600,1.880065673828125,0.5737075805664062,1.1075962781906128,0.3873237371444702
1696959034781079300,1.890079345703125,0.15175819396972656,0.7796938419342041,0.3262500464916229
1696959034791093000,1.900093017578125,-1.4879131317138672,0.3358057737350464,-0.024306394159793854
1696959034801106700,1.910106689453125,0.39760589599609375,0.8244073390960693,0.34866103529930115
1696959034811120400,1.920120361328125,0.6912260055541992,0.9848464727401733,0.6290197968482971
1696959034821133800,1.9301337890625,-0.8894481658935547,0.16769039630889893,-0.03140230476856232
1696959034831147500,1.9401474609375,-1.2802457809448242,0.1669400930404663,-0.04992423579096794
1696959034841161200,1.9501611328125,0.8423690795898438,0.7952344417572021,0.1353345811367035
1696959034851175000,1.9601748046875,0.8811435699462891,0.6795356273651123,-0.002691105008125305
1696959034861188600,1.970188720703125,-1.6158151626586914,-0.0920877456665039,-0.40972286462783813
1696959034871202300,1.980202392578125,0.031940460205078125,0.43339264392852783,-0.29064318537712097
1696959034881215700,1.9902158203125,0.5609197616577148,0.5830813646316528,0.24318534135818481
1696959034891229400,2.0002294921875,0.6963834762573242,0.054923295974731445,0.06183217465877533
1696959034901243100,2.0102431640625,-1.237264633178711,-0.07531273365020752,-0.37155213952064514
1696959034911256800,2.0202568359375,0.9613132476806641,0.44130659103393555,0.45339229702949524
1696959034921270500,2.0302705078125,2.2581329345703125,0.8464903831481934,0.5129857659339905
1696959034931284000,2.040283935546875,-1.1229476928710938,-0.3277033567428589,-0.15748465061187744
1696959034941297700,2.050297607421875,-0.3309335708618164,0.2754262685775757,0.17331476509571075
1696959034951311400,2.060311279296875,1.5396966934204102,0.562743067741394,0.643873929977417
1696959034961325000,2.070324951171875,0.5312395095825195,0.14819538593292236,0.14714041352272034
1696959034971338800,2.0803388671875,-0.9679327011108398,-0.250083327293396,-0.46779391169548035
1696959034981352200,2.090352294921875,-0.052689552307128906,0.7430921792984009,0.738479495048523
1696959034991366000,2.100365966796875,1.8024320602416992,0.722947359085083,0.535680890083313
1696959035001379600,2.110379638671875,-0.8852519989013672,-0.06494486331939697,-0.3297361135482788
1696959035011393300,2.120393310546875,-1.0907115936279297,0.17370223999023438,-0.3885664939880371
1696959035021407000,2.130406982421875,0.3830442428588867,0.7162189483642578,0.5931433439254761
1696959035031420400,2.14042041015625,0.9298944473266602,0.5150934457778931,0.08662254363298416
1696959035041434000,2.15043408203125,-1.482034683227539,-0.18993759155273438,-0.35526829957962036
1696959035051447800,2.16044775390625,-0.04472064971923828,0.3364158868789673,0.1331237405538559
1696959035061461500,2.17046142578125,1.2336177825927734,0.7721091508865356,0.9049527645111084
1696959035071475200,2.18047509765625,0.4700813293457031,-0.26397180557250977,0.09152940660715103
1696959035081488600,2.190488525390625,-1.7064361572265625,-0.02445697784423828,0.09120408445596695
1696959035091502300,2.20050244140625,1.7012605667114258,0.2864677906036377,1.275620698928833
1696959035101516000,2.21051611328125,1.1978588104248047,0.501994252204895,0.8451322913169861
1696959035111529700,2.22052978515625,-0.8866910934448242,-0.526666522026062,-0.1798410713672638
1696959035121543400,2.23054345703125,-0.46772289276123047,-0.12350058555603027,0.43528783321380615
1696959035131556900,2.240556884765625,1.265538215637207,-0.013608574867248535,0.7216798663139343
1696959035141570600,2.250570556640625,0.35872459411621094,0.07061409950256348,-0.054800283163785934
1696959035151584300,2.260584228515625,-1.135549545288086,-0.3307673931121826,-0.2212865948677063
1696959035161598000,2.270597900390625,0.7769412994384766,0.058705925941467285,0.75520259141922
1696959035171611600,2.280611572265625,1.8084402084350586,0.21048355102539062,0.7502523064613342
1696959035181625000,2.290625,-0.6174783706665039,-0.4692955017089844,0.02220796048641205
1696959035191638800,2.300638671875,-1.0871963500976562,-0.30823302268981934,0.06592016667127609
1696959035201652500,2.310652587890625,1.588266372680664,0.047643303871154785,0.8061345815658569
1696959035211666200,2.320666259765625,1.22857666015625,0.3795098066329956,0.27063310146331787
1696959035221679900,2.330679931640625,-1.4766426086425781,-0.7569289207458496,-0.4680148661136627
1696959035231693300,2.340693359375,-0.5785312652587891,-0.44657063484191895,0.041993848979473114
1696959035241707000,2.35070703125,1.608321189880371,0.3200199604034424,0.6199336051940918
1696959035251720700,2.360720703125,-0.02979278564453125,-0.34581053256988525,-0.23582810163497925
1696959035261734400,2.370734375,-1.260824203491211,-0.542290449142456,-0.4950360059738159
1696959035271748000,2.380748046875,0.8765115737915039,0.07746350765228271,0.19688811898231506
1696959035281761500,2.390761474609375,1.082505226135254,0.2923167943954468,0.1802368462085724
1696959035291775200,2.400775146484375,-1.2597684860229492,-0.5048600435256958,-0.6990677118301392
1696959035301789000,2.410788818359375,-0.9783210754394531,-0.23228538036346436,-0.18032792210578918
1696959035311802600,2.420802734375,1.5060310363769531,0.23877108097076416,0.4109256863594055
1696959035321816300,2.43081640625,0.40239715576171875,0.1328202486038208,-0.24476782977581024
1696959035331829800,2.440829833984375,-1.8086905479431152,-0.5041528940200806,-0.721989631652832
1696959035341843500,2.450843505859375,0.7076435089111328,0.050383806228637695,0.088729627430439
1696959035351857200,2.460857177734375,1.3484811782836914,0.43805134296417236,0.1654183268547058
1696959035361870800,2.470870849609375,-1.062037467956543,-0.6736682653427124,-0.6814411878585815
1696959035371884500,2.480884521484375,-1.1776647567749023,-0.33758533000946045,-0.704296886920929
1696959035381898200,2.490898193359375,1.2167997360229492,-0.007775664329528809,0.02048105001449585
1696959035391911700,2.50091162109375,0.41939830780029297,0.0038475990295410156,-0.3497469425201416
1696959035401925400,2.51092529296875,-1.0765628814697266,-0.7073706388473511,-0.5282323360443115
1696959035411939000,2.52093896484375,0.12925052642822266,-0.47492313385009766,0.09705768525600433
1696959035421952800,2.530952880859375,1.2395715713500977,-0.04820454120635986,0.4310266375541687
1696959035431966500,2.540966552734375,0.00276947021484375,-0.8074688911437988,-0.30328458547592163
1696959035441980000,2.55097998046875,-1.5969791412353516,-1.1409298181533813,-0.4766215682029724
1696959035451993600,2.56099365234375,1.1279869079589844,-0.6567047834396362,0.427870512008667
1696959035462007300,2.57100732421875,0.5832939147949219,-0.6582061052322388,0.11397242546081543
1696959035472021000,2.58102099609375,-1.8109817504882812,-1.4406614303588867,-0.2770463526248932
1696959035482034700,2.59103466796875,0.2323141098022461,-0.8633835315704346,-0.08605936914682388
1696959035492048100,2.601048095703125,0.9984989166259766,-0.6479299068450928,0.34502264857292175
1696959035502061800,2.611061767578125,0.22983360290527344,-1.063140630722046,0.1916572004556656
1696959035512075500,2.621075439453125,-1.3281679153442383,-1.1891839504241943,0.3409092128276825
1696959035522089200,2.631089111328125,1.4957427978515625,-0.6165852546691895,0.9168899059295654
1696959035532103000,2.64110302734375,1.464982032775879,-0.3976548910140991,0.7311702370643616
1696959035542116400,2.651116455078125,-1.1048336029052734,-1.2898012399673462,0.4934637248516083
1696959035552130000,2.661130126953125,-0.1762247085571289,-0.8605141639709473,0.5739184617996216
1696959035562143700,2.671143798828125,1.9850492477416992,-0.4815402030944824,0.9275575876235962
1696959035572157400,2.681157470703125,0.6734714508056641,-0.7068926095962524,0.8612366914749146
1696959035582171100,2.691171142578125,-1.3683748245239258,-1.2015974521636963,0.4419540762901306
1696959035592184600,2.7011845703125,0.7114877700805664,-0.6629303693771362,0.8727957606315613
1696959035602198300,2.7111982421875,1.7768402099609375,-0.3721780776977539,1.1012030839920044
1696959035612212000,2.7212119140625,-0.6268396377563477,-1.0133321285247803,0.5189448595046997
1696959035622225700,2.7312255859375,-0.8501758575439453,-1.096291422843933,0.5236354470252991
1696959035632239400,2.7412392578125,1.9726190567016602,-0.4592655897140503,1.0948166847229004
1696959035642252800,2.751252685546875,1.234231948852539,-0.3142324686050415,0.7352454662322998
1696959035652266500,2.7612666015625,-1.5732421875,-1.332335352897644,0.22787758708000183
1696959035662280200,2.7712802734375,0.522007942199707,-0.6991267204284668,0.5812257528305054
1696959035672294000,2.7812939453125,1.7937498092651367,-0.3574272394180298,0.8757397532463074
1696959035682307600,2.7913076171875,-0.3901329040527344,-0.9866815805435181,0.18851922452449799
1696959035692321000,2.801321044921875,-1.110464096069336,-1.0531096458435059,0.020284220576286316
1696959035702334700,2.811334716796875,1.413050651550293,-0.7046428918838501,0.7199147939682007
1696959035712348400,2.821348388671875,1.498082160949707,-0.30262160301208496,0.35592371225357056
1696959035722362000,2.831362060546875,-1.591536521911621,-1.257846713066101,-0.3491927981376648
1696959035732375800,2.841375732421875,-0.42673206329345703,-0.9036731719970703,0.188772052526474
1696959035742389200,2.85138916015625,1.827484130859375,-0.30065083503723145,0.5252608060836792
1696959035752403000,2.86140283203125,-0.08404064178466797,-0.8136067390441895,-0.14483460783958435
1696959035762416600,2.871416748046875,-1.764678955078125,-1.2080081701278687,-0.5125654339790344
1696959035772430300,2.881430419921875,1.0098199844360352,-0.5074989795684814,0.3608919382095337
1696959035782444000,2.891444091796875,1.2352180480957031,-0.31381523609161377,0.09896162152290344
1696959035792457500,2.90145751953125,-1.3520069122314453,-1.0278668403625488,-0.5953431129455566
1696959035802471200,2.91147119140625,-1.0469846725463867,-0.7248523235321045,-0.2303774058818817
1696959035812484900,2.92148486328125,1.410247802734375,-0.4051525592803955,0.4033680856227875
1696959035822498600,2.93149853515625,0.42662525177001953,-0.36085045337677,-0.2287248820066452
1696959035832512300,2.94151220703125,-1.985938549041748,-1.1704655885696411,-0.6597580909729004
1696959035842526000,2.95152587890625,0.1736602783203125,-0.43252456188201904,0.2839930057525635
1696959035852539400,2.961539306640625,1.8631973266601562,0.04612243175506592,0.2133694291114807
1696959035862553000,2.971552978515625,-0.811981201171875,-0.6900862455368042,-0.3293294906616211
1696959035872566800,2.98156689453125,-1.5398797988891602,-0.8390305042266846,-0.41067180037498474
1696959035882580500,2.99158056640625,0.9861164093017578,-0.14239442348480225,0.5281270742416382
1696959035892594200,3.00159423828125,1.216827392578125,0.005199790000915527,0.14978964626789093
1696959035902607600,3.011607666015625,-1.4227581024169922,-0.7929757833480835,-0.4075133800506592
1696959035912621300,3.021621337890625,-0.6972589492797852,-0.5016348361968994,0.11375601589679718
1696959035922635000,3.031635009765625,1.7736129760742188,0.18763291835784912,0.6217986941337585
1696959035932648700,3.041648681640625,0.4595966339111328,-0.11544406414031982,0.01686277985572815
1696959035942662400,3.051662353515625,-1.905522346496582,-0.8356395959854126,-0.23904532194137573
1696959035952675800,3.06167578125,0.8031959533691406,-0.1054227352142334,0.6421475410461426
1696959035962689500,3.071689453125,1.6267995834350586,0.2897026538848877,0.4881203770637512
1696959035972703200,3.081703125,-1.1144962310791016,-0.5814481973648071,-0.09372514486312866
1696959035982717000,3.091717041015625,-0.7719411849975586,-0.5305547714233398,0.17825767397880554
1696959035992730600,3.101730712890625,1.326869010925293,-0.0035663843154907227,0.7666738629341125
1696959036002744000,3.111744140625,1.1651620864868164,0.09028136730194092,0.2533146142959595
1696959036012757800,3.1217578125,-1.5937557220458984,-0.6703248023986816,-0.17148521542549133
1696959036022771500,3.131771484375,-0.328094482421875,-0.5042684078216553,0.579258382320404
1696959036032785200,3.14178515625,2.0320968627929688,0.2652381658554077,0.651192307472229
1696959036042798800,3.151798828125,-0.23282432556152344,-0.3209233283996582,0.06375882029533386
1696959036052812300,3.161812255859375,-1.5453853607177734,-0.8970277309417725,0.009211406111717224
1696959036062826000,3.171825927734375,1.219782829284668,-0.1107938289642334,0.6747716069221497
1696959036072839700,3.181839599609375,1.6364202499389648,0.20732223987579346,0.38642817735671997
1696959036082853400,3.191853271484375,-1.4249000549316406,-0.6164140701293945,-0.23436205089092255
1696959036092867000,3.2018671875,-0.6420421600341797,-0.5419245958328247,0.2915832996368408
1696959036102880500,3.211880615234375,1.5903615951538086,0.04136240482330322,0.6464674472808838
1696959036112894200,3.221894287109375,0.8025236129760742,0.03354752063751221,-0.0726148709654808
1696959036122908000,3.231907958984375,-2.0032310485839844,-0.8508192300796509,-0.3051670789718628
1696959036132921600,3.241921630859375,0.5675382614135742,-0.255043625831604,0.5818544626235962
1696959036142935300,3.251935302734375,2.0752906799316406,0.4594358205795288,0.22355498373508453
1696959036152948700,3.26194873046875,-1.0446500778198242,-0.4141099452972412,-0.39614182710647583
1696959036162962400,3.27196240234375,-1.418778419494629,-0.5314078330993652,0.009725376963615417
1696959036172976000,3.28197607421875,1.4943351745605469,0.1425114870071411,0.4624446630477905
1696959036182989800,3.29198974609375,0.9886608123779297,0.3109104633331299,-0.04552903771400452
1696959036193003500,3.30200341796875,-1.550210952758789,-0.5085119009017944,-0.4637976288795471
1696959036203017000,3.312016845703125,-0.5759353637695312,-0.30106544494628906,0.32569199800491333
1696959036213030700,3.32203076171875,1.986093521118164,0.38566863536834717,0.2569805979728699
1696959036223044400,3.33204443359375,0.04620361328125,0.09899282455444336,-0.35286885499954224
1696959036233058000,3.34205810546875,-2.079324245452881,-0.7181556224822998,-0.15388143062591553
1696959036243071700,3.35207177734375,1.198740005493164,0.1294323205947876,0.5190930366516113
1696959036253085200,3.362085205078125,1.3866949081420898,0.4692326784133911,0.11618547141551971
1696959036263099000,3.372098876953125,-1.6263303756713867,-0.5085264444351196,-0.3403325080871582
1696959036273112600,3.382112548828125,-0.9432039260864258,-0.37761974334716797,0.2285289317369461
1696959036283126300,3.392126220703125,1.7107601165771484,0.2381305694580078,0.4799635410308838
1696959036293140000,3.402139892578125,0.5453958511352539,0.20566701889038086,-0.048260048031806946
1696959036303153400,3.4121533203125,-1.753563404083252,-0.6224352121353149,-0.15126675367355347
1696959036313167000,3.4221669921875,0.10015869140625,-0.1569579839706421,0.5436244606971741
1696959036323180800,3.432180908203125,1.900979995727539,0.4620872735977173,0.391447514295578
1696959036333194500,3.442194580078125,-0.6501235961914062,-0.15878677368164062,-0.12345954030752182
1696959036343208200,3.452208251953125,-1.6035404205322266,-0.6024794578552246,0.16215617954730988
1696959036353222000,3.462221923828125,1.5778369903564453,0.18650472164154053,0.609950065612793
1696959036363235300,3.4722353515625,1.3778972625732422,0.5022674798965454,0.13993202149868011
1696959036373249000,3.4822490234375,-1.7689356803894043,-0.4616471529006958,-0.1411547064781189
1696959036383262700,3.4922626953125,-0.2924785614013672,-0.3171396255493164,0.5250411033630371
1696959036393276400,3.5022763671875,1.915684700012207,0.31161653995513916,0.4738830327987671
1696959036403290000,3.5122900390625,0.085968017578125,0.1439356803894043,-0.15003572404384613
1696959036413303600,3.522303466796875,-1.9538192749023438,-0.7463932037353516,0.07661651074886322
1696959036423317200,3.532317138671875,0.9420299530029297,-0.18630540370941162,0.6590187549591064
1696959036433331000,3.5423310546875,2.306271553039551,0.5260171890258789,-0.010694056749343872
1696959036443344600,3.5523447265625,-2.2618517875671387,-0.4779698848724365,-0.25977474451065063
1696959036453358300,3.5623583984375,-0.7315034866333008,-0.6579852104187012,0.4453662633895874
1696959036463371800,3.572371826171875,2.0992469787597656,0.22382056713104248,0.4278665781021118
1696959036473385500,3.582385498046875,0.10200023651123047,0.09337842464447021,-0.2245446741580963
1696959036483399200,3.592399169921875,-2.339205265045166,-0.6345229148864746,-0.07503484189510345
1696959036493412900,3.602412841796875,1.2601900100708008,-0.3671070337295532,0.522888720035553
1696959036503426600,3.612426513671875,1.845168113708496,0.5068596601486206,0.020127609372138977
1696959036513440000,3.62243994140625,-2.2822065353393555,-0.3398493528366089,-0.37148118019104004
1696959036523453700,3.63245361328125,-0.39829444885253906,-0.6494835615158081,0.48767179250717163
1696959036533467400,3.64246728515625,2.7233314514160156,0.3022376298904419,0.18399950861930847
1696959036543481000,3.652481201171875,-1.1672544479370117,0.1364119052886963,-0.4792667627334595
1696959036553494800,3.662494873046875,-2.1146907806396484,-0.6811785697937012,0.2281724214553833
1696959036563508200,3.67250830078125,3.199678421020508,0.1475512981414795,0.21109211444854736
1696959036573522000,3.68252197265625,-0.22366714477539062,0.6249914169311523,-0.44434502720832825
1696959036583535600,3.69253564453125,-2.8028573989868164,-0.3665623664855957,-0.07673539221286774
1696959036593549300,3.70254931640625,3.0677404403686523,-0.14566218852996826,0.2843795716762543
1696959036603563000,3.71256298828125,-0.39820384979248047,0.7817103862762451,-0.1814725250005722
1696959036613576400,3.722576416015625,-1.98785400390625,0.013048291206359863,-0.23613393306732178
1696959036623590100,3.732590087890625,2.3376541137695312,0.17902350425720215,0.10156615078449249
1696959036633603800,3.742603759765625,-1.0069694519042969,0.7142674922943115,-0.10370767116546631
1696959036643617500,3.752617431640625,-0.2680950164794922,0.29395341873168945,-0.2042337954044342
1696959036653631200,3.76263134765625,0.9047327041625977,0.7572212219238281,0.1368110328912735
1696959036663644700,3.772644775390625,-1.2278671264648438,0.6015994548797607,0.14770859479904175
1696959036673658400,3.782658447265625,1.2133769989013672,0.8890069723129272,-0.31964027881622314
1696959036683672000,3.792672119140625,-1.4785852432250977,0.7688056230545044,0.2127445638179779
1696959036693685800,3.802685791015625,1.4264554977416992,0.9237344264984131,-0.1878504455089569
1696959036703699500,3.812699462890625,-1.0936689376831055,1.0355323553085327,0.1260955035686493
1696959036713713000,3.822712890625,0.7398757934570312,0.8513308763504028,-0.15691296756267548
1696959036723726600,3.8327265625,-0.3160543441772461,1.4830362796783447,0.12147626280784607
1696959036733740300,3.842740234375,-0.2764415740966797,0.9586118459701538,-0.04146730899810791
1696959036743754000,3.85275390625,0.2614908218383789,1.6475028991699219,0.11704649031162262
1696959036753767700,3.862767578125,-0.9092178344726562,1.0503767728805542,-0.01757565140724182
1696959036763781000,3.872781005859375,0.6241111755371094,1.6397285461425781,0.0032661259174346924
1696959036773794800,3.882794921875,-0.7719802856445312,1.094390630722046,-0.040852174162864685
1696959036783808500,3.89280859375,0.18262863159179688,1.7087794542312622,0.18018309772014618
1696959036793822200,3.902822265625,0.24975967407226562,1.025111198425293,-0.014018356800079346
1696959036803836000,3.9128359375,-0.5039424896240234,1.6482512950897217,0.02208930253982544
1696959036813849300,3.922849365234375,0.472503662109375,1.1004979610443115,0.12742763757705688
1696959036823863000,3.932863037109375,-0.4824237823486328,1.154624104499817,-0.2575156092643738
1696959036833876700,3.942876708984375,-0.4380474090576172,1.0587846040725708,0.22844159603118896
1696959036843890400,3.952890380859375,0.8977947235107422,0.19312644004821777,-0.03642192482948303
1696959036853904100,3.962904052734375,-1.4214773178100586,1.4737814664840698,-1.2355846166610718
1696959036863917800,3.972917724609375,-0.021833419799804688,0.7215715646743774,1.0567706823349
1696959036873931300,3.98293115234375,-0.159393310546875,1.8372254371643066,-0.12465888261795044
1696959036883945000,3.992945068359375,-2.0985894203186035,0.8121508359909058,0.03297315537929535
1696959036893958700,4.002958740234375,-1.6341552734375,1.233818531036377,-0.16998213529586792
1696959036903972400,4.012972412109375,1.7152509689331055,1.6787097454071045,-0.44097548723220825
1696959036913986000,4.022986083984375,-0.3431844711303711,1.4085009098052979,-0.3744214177131653
1696959036923999500,4.03299951171875,2.477414131164551,1.5420119762420654,0.43294182419776917
1696959036934013200,4.04301318359375,-1.3609304428100586,0.8294370174407959,0.4990847110748291
1696959036944027000,4.05302685546875,3.0251455307006836,2.1435861587524414,-0.22774356603622437
1696959036954040600,4.06304052734375,-3.480647563934326,0.18405139446258545,0.005895018577575684
1696959036964054300,4.07305419921875,-0.6904325485229492,1.2818940877914429,-0.27551090717315674
1696959036974067700,4.083067626953125,-0.511744499206543,1.4793202877044678,-0.05544498562812805
1696959036984081400,4.093081298828125,0.9331874847412109,2.1660614013671875,0.28228557109832764
1696959036994095000,4.10309521484375,-1.3921356201171875,1.53116774559021,0.14955401420593262
1696959037004108800,4.11310888671875,1.2534008026123047,2.089092254638672,0.27876076102256775
1696959037014122500,4.12312255859375,1.4372749328613281,2.194708824157715,-0.05646155774593353
1696959037024136000,4.133135986328125,-1.5681171417236328,1.2649027109146118,0.23357655107975006
1696959037034149600,4.143149658203125,0.5627012252807617,1.799943447113037,-0.015760943293571472
1696959037044163300,4.153163330078125,0.5703420639038086,1.812770962715149,0.10559400916099548
1696959037054177000,4.163177001953125,-0.5011062622070312,1.5957462787628174,0.0793132334947586
1696959037064190700,4.173190673828125,0.5084695816040039,1.6489124298095703,-0.04138532280921936
1696959037074204200,4.1832041015625,0.506810188293457,1.7521101236343384,0.13405311107635498
1696959037084217900,4.1932177734375,-0.6025590896606445,1.438938021659851,0.27927011251449585
1696959037094231600,4.2032314453125,1.128342628479004,1.7586309909820557,0.19242814183235168
1696959037104245200,4.213245361328125,-1.9567198753356934,1.1460078954696655,0.184738427400589
1696959037114259000,4.223259033203125,2.258371353149414,2.090247631072998,0.3236052989959717
1696959037124272400,4.2332724609375,-2.631483554840088,0.9865161180496216,0.28768929839134216
1696959037134286000,4.2432861328125,1.6280708312988281,1.8886244297027588,0.5379416346549988
1696959037144299500,4.253299560546875,-1.1909122467041016,1.3302055597305298,0.45376110076904297
1696959037154313200,4.263313232421875,-0.06998157501220703,1.4814549684524536,0.20439675450325012
1696959037164327000,4.273326904296875,-0.012705802917480469,1.5364404916763306,0.40396052598953247
1696959037174340400,4.28334033203125,0.7516765594482422,1.7591867446899414,0.8191038370132446
1696959037184354000,4.29335400390625,-1.4531164169311523,1.0654067993164062,0.5990114212036133
1696959037194367500,4.303367431640625,0.16913127899169922,1.4566669464111328,-0.3624023497104645
1696959037204381200,4.313381103515625,-1.016021728515625,1.1067805290222168,0.5593200922012329
1696959037214395000,4.323394775390625,1.9058837890625,1.996363878250122,0.2099405825138092
1696959037224408300,4.333408203125,-1.879178524017334,1.0024217367172241,0.3365970551967621
1696959037234422000,4.343422119140625,-0.42745113372802734,1.1768401861190796,0.49526333808898926
1696959037244435500,4.353435546875,0.462066650390625,1.5439871549606323,-0.3028373718261719
1696959037254449200,4.36344921875,-1.1119327545166016,1.151296615600586,0.25059062242507935
1696959037264462800,4.373462890625,-0.5361833572387695,1.036361575126648,0.6126815676689148
1696959037274476300,4.383476318359375,1.8488636016845703,1.7413533926010132,-0.2535775899887085
1696959037284490000,4.393489990234375,-1.8836350440979004,0.662844181060791,0.53790283203125
1696959037294503400,4.40350341796875,1.6088905334472656,0.34038496017456055,-0.3801437318325043
1696959037304517000,4.41351708984375,-2.1665282249450684,1.2516990900039673,0.27403777837753296
1696959037314530800,4.42353076171875,2.5030412673950195,1.163453459739685,0.6870869994163513
1696959037324544300,4.433544189453125,-1.4802131652832031,1.3415429592132568,0.23901164531707764
1696959037334558000,4.443557861328125,1.4519023895263672,0.9564642906188965,0.3789867162704468
1696959037344571400,4.4535712890625,0.16230392456054688,0.7881124019622803,-0.861810564994812
1696959037354585000,4.463585205078125,0.26544761657714844,0.12087202072143555,0.19735625386238098
1696959037364598800,4.473598876953125,0.5183115005493164,-0.023159384727478027,0.9730880260467529
1696959037374612200,4.4836123046875,2.685122489929199,1.1061633825302124,-1.7287118434906006
1696959037384626000,4.4936259765625,-2.3641228675842285,0.3852400779724121,-0.2747364640235901
1696959037394639400,4.503639404296875,-1.2585506439208984,0.13046610355377197,0.3436623513698578
1696959037404653000,4.513653076171875,-2.0362820625305176,1.0438114404678345,0.40924549102783203
1696959037414666800,4.523666748046875,-1.8266997337341309,0.7244647741317749,0.5566120743751526
1696959037424680200,4.53368017578125,2.386223793029785,1.8079982995986938,-0.05747309327125549
1696959037434694000,4.54369384765625,1.7251672744750977,1.6343539953231812,0.1971043348312378
1696959037444707600,4.55370751953125,1.4524345397949219,-0.8891856670379639,1.1834520101547241
1696959037454721000,4.563720947265625,0.39635658264160156,1.7652463912963867,0.065141960978508
1696959037464734700,4.573734619140625,-3.5246148109436035,0.4433640241622925,0.4954110085964203
1696959037474748400,4.58374853515625,-1.1370601654052734,0.43898439407348633,-0.4718465209007263
1696959037484762000,4.59376220703125,-0.11771297454833984,1.7879772186279297,-0.03858967125415802
1696959037494775800,4.60377587890625,-3.94614315032959,0.2776205539703369,0.7142336368560791
1696959037504789200,4.613789306640625,4.062419891357422,1.904138207435608,1.2744507789611816
1696959037514803000,4.623802978515625,-2.9215073585510254,0.4047204256057739,-0.3201558589935303
1696959037524816600,4.633816650390625,1.5006637573242188,1.373090147972107,0.17454570531845093
1696959037534830300,4.643830322265625,0.9556455612182617,1.3722074031829834,-0.4870612621307373
1696959037544844000,4.653843994140625,-1.2077350616455078,0.16455864906311035,-0.2528108060359955
1696959037554857500,4.663857421875,0.5815181732177734,0.6000478267669678,1.0291122198104858
1696959037564871200,4.67387109375,0.65576171875,1.821532130241394,0.1832324117422104
1696959037574884900,4.683884765625,-1.5350866317749023,0.8537578582763672,-0.05471697449684143
1696959037584898600,4.693898681640625,-2.4549241065979004,0.8056693077087402,-0.41867995262145996
1696959037594912300,4.703912353515625,-2.894303321838379,0.6335744857788086,0.33380451798439026
1696959037604926000,4.713926025390625,3.41573429107666,2.2851617336273193,1.048040747642517
1696959037614939400,4.723939453125,1.251215934753418,2.1144142150878906,0.2621992230415344
1696959037624953000,4.733953125,1.1612567901611328,1.4968082904815674,0.496857613325119
1696959037634966800,4.743966796875,-0.13207435607910156,1.441590666770935,-0.00564207136631012
1696959037644980500,4.75398046875,-0.3047018051147461,1.1503219604492188,-0.27472737431526184
1696959037654994200,4.763994140625,-3.0094404220581055,0.96381676197052,-0.1844300627708435
1696959037665007600,4.774007568359375,-0.1734018325805664,1.4147104024887085,-0.09858576953411102
1696959037675021300,4.784021240234375,-1.6506261825561523,1.1056396961212158,0.10697667300701141
1696959037685035000,4.794034912109375,3.2753334045410156,2.247195243835449,0.8237175941467285
1696959037695048700,4.804048583984375,0.18860721588134766,1.7585312128067017,0.25026535987854004
1696959037705062400,4.8140625,-0.008185386657714844,0.9812530279159546,-0.2986373007297516
1696959037715075800,4.824075927734375,-0.12899208068847656,1.2727863788604736,0.1844586879014969
1696959037725089500,4.834089599609375,1.0658483505249023,1.0507748126983643,-0.3829996883869171
1696959037735103200,4.844103271484375,0.11591434478759766,0.503076434135437,-0.55498206615448
1696959037745117000,4.854116943359375,-0.6781272888183594,-0.19304430484771729,0.3498963713645935
1696959037755130600,4.864130615234375,0.5606288909912109,0.5950784683227539,0.19469134509563446
1696959037765144000,4.87414404296875,-0.48833560943603516,0.38222455978393555,-0.6049089431762695
1696959037775157800,4.88415771484375,-0.5644512176513672,-0.25408053398132324,-0.3389878273010254
1696959037785171500,4.89417138671875,-0.3915538787841797,0.7059437036514282,0.2348087728023529
1696959037795185200,4.90418505859375,0.39208984375,-0.12680327892303467,0.23424015939235687
1696959037805198800,4.91419873046875,-1.3734245300292969,-0.01631462574005127,-0.13592809438705444
1696959037815212300,4.92421240234375,0.36394500732421875,0.06552767753601074,0.6024377346038818
1696959037825226000,4.93422607421875,-0.0677652359008789,-0.06994044780731201,0.007884442806243896
1696959037835239700,4.94423974609375,-0.38936805725097656,0.32979631423950195,0.30339235067367554
1696959037845253400,4.95425341796875,0.3615760803222656,0.1827768087387085,0.14351581037044525
1696959037855267000,4.96426708984375,-0.4340801239013672,0.09910356998443604,0.44728443026542664
1696959037865280500,4.974280517578125,1.2293052673339844,0.0018755197525024414,0.38839685916900635
1696959037875294200,4.984294189453125,-1.5706605911254883,-0.035092949867248535,-0.056572750210762024
1696959037885308000,4.994307861328125,0.9841489791870117,0.0903019905090332,0.294657438993454
1696959037895321600,5.004321533203125,0.14934062957763672,0.07485032081604004,-0.11576656997203827
1696959037905335300,5.014335205078125,-1.797360897064209,-0.13860976696014404,-0.05177363008260727
1696959037915348700,5.0243486328125,0.9016895294189453,0.047835350036621094,0.2817618250846863
1696959037925362400,5.034362548828125,-0.7405691146850586,0.047025203704833984,0.31496667861938477
1696959037935376100,5.044376220703125,-0.24758052825927734,-0.35367774963378906,-0.03810475766658783
1696959037945389800,5.054389892578125,-0.07100105285644531,-0.23330140113830566,0.0630786120891571
1696959037955403500,5.064403564453125,0.8795709609985352,-0.19579851627349854,0.16864898800849915
1696959037965417000,5.0744169921875,-1.3505802154541016,-0.4819209575653076,0.016017436981201172
1696959037975430700,5.0844306640625,1.084477424621582,-0.6864062547683716,0.2988584637641907
1696959037985444400,5.0944443359375,0.1399984359741211,-0.22418832778930664,0.13138838112354279
1696959037995458000,5.1044580078125,-0.6880092620849609,-0.6633787155151367,0.007101014256477356
1696959038005471700,5.1144716796875,0.9714508056640625,-0.47219645977020264,0.27114152908325195
1696959038015485200,5.124485107421875,0.8684253692626953,0.0034104585647583008,0.1947813779115677
1696959038025499000,5.134498779296875,-1.4619007110595703,-0.9914250373840332,-0.20927976071834564
1696959038035512600,5.1445126953125,1.1840076446533203,-0.4649930000305176,0.41694530844688416
1696959038045526300,5.1545263671875,1.305201530456543,-0.13370156288146973,0.1938873678445816
1696959038055540000,5.1645400390625,-1.2410621643066406,-0.9050173759460449,-0.5500456094741821
1696959038065553400,5.174553466796875,-0.287384033203125,-0.6085922718048096,-0.12440941482782364
1696959038075567000,5.184567138671875,1.433537483215332,-0.11820471286773682,0.14249135553836823
1696959038085580800,5.194580810546875,-0.2622079849243164,-0.7327704429626465,-0.28192800283432007
1696959038095594500,5.204594482421875,-1.2895536422729492,-0.7280775308609009,-0.34990692138671875
1696959038105608200,5.214608154296875,1.031198501586914,-0.43280911445617676,0.37733370065689087
1696959038115622000,5.224621826171875,1.0188121795654297,-0.282670259475708,0.031823575496673584
1696959038125635300,5.23463525390625,-1.827695369720459,-1.082581877708435,-0.6381008625030518
1696959038135649000,5.24464892578125,-0.16992664337158203,-0.6761957406997681,-0.016101934015750885
1696959038145662700,5.254662841796875,1.799224853515625,-0.09503400325775146,0.4387347400188446
1696959038155676400,5.264676513671875,-0.4038410186767578,-0.9734205007553101,-0.41425418853759766
1696959038165690000,5.274690185546875,-1.8465542793273926,-1.0303502082824707,-0.4124608039855957
1696959038175703600,5.28470361328125,1.2785911560058594,-0.30493056774139404,0.346041738986969
1696959038185717200,5.29471728515625,1.232102394104004,-0.3985304832458496,0.1489647775888443
1696959038195731000,5.30473095703125,-0.7497520446777344,-1.2135164737701416,-0.8500915765762329
1696959038205744600,5.31474462890625,-1.0156335830688477,-0.7888138294219971,-0.18188178539276123
1696959038215758300,5.32475830078125,1.4765558242797852,-0.3793090581893921,0.4562394917011261
1696959038225771800,5.334771728515625,1.1812162399291992,-0.4640878438949585,-0.20753207802772522
1696959038235785500,5.344785400390625,-1.7035026550292969,-1.222589373588562,-0.7455936074256897
1696959038245799200,5.354799072265625,-0.0507049560546875,-0.5584033727645874,0.2985071539878845
1696959038255812900,5.364812744140625,1.655527114868164,-0.03622019290924072,0.605075478553772
1696959038265826600,5.37482666015625,0.5425262451171875,-0.895950436592102,-0.3221658170223236
1696959038275840000,5.384840087890625,-1.5376882553100586,-1.0895594358444214,-0.4047567546367645
1696959038285853700,5.394853759765625,0.30597782135009766,-0.397860050201416,0.5354577898979187
1696959038295867400,5.404867431640625,1.3421955108642578,-0.0718146562576294,0.4591652452945709
1696959038305881000,5.414881103515625,0.09627056121826172,-0.597443699836731,-0.3551049828529358
1696959038315894800,5.424894775390625,-1.8155403137207031,-1.0786441564559937,-0.2380286604166031
1696959038325908200,5.434908203125,0.08124828338623047,-0.19509613513946533,0.5996953248977661
1696959038335922000,5.444921875,1.5434083938598633,0.015436291694641113,0.4093492925167084
1696959038345935600,5.454935546875,-0.3816347122192383,-0.8209428787231445,-0.29169556498527527
1696959038355949300,5.46494921875,-1.8431196212768555,-0.8757424354553223,-0.1497015655040741
1696959038365963000,5.474962890625,0.5125980377197266,-0.1939326524734497,0.5357294678688049
1696959038375976400,5.4849765625,1.390519142150879,-0.025589823722839355,0.3495848774909973
1696959038385990100,5.494990234375,-0.5053606033325195,-0.7955758571624756,-0.4093097746372223
1696959038396003800,5.50500390625,-2.4063992500305176,-0.8969942331314087,-0.04843941330909729
1696959038406017500,5.515017578125,1.2219247817993164,-0.16723716259002686,0.5874764323234558
1696959038416031200,5.52503125,1.8401365280151367,0.1627044677734375,0.20218051970005035
1696959038426044700,5.535044677734375,-1.7917790412902832,-1.0464903116226196,-0.42386841773986816
1696959038436058400,5.545058349609375,-1.7733502388000488,-0.5920974016189575,0.3588569760322571
1696959038446072000,5.555072021484375,2.6899147033691406,0.19768786430358887,0.710232675075531
1696959038456085800,5.565085693359375,0.7907991409301758,0.20591294765472412,-0.1493913233280182
1696959038466099500,5.575099365234375,-2.85306453704834,-0.8823717832565308,-0.46737048029899597
1696959038476113000,5.58511279296875,0.8336200714111328,-0.23317170143127441,0.6286672949790955
1696959038486126600,5.595126708984375,2.4376821517944336,0.8830016851425171,0.42808911204338074
1696959038496140300,5.605140380859375,-2.4239401817321777,-0.26108574867248535,-0.5555543303489685
1696959038506154000,5.615154052734375,-0.21045494079589844,-0.5107537508010864,0.18517522513866425
1696959038516167700,5.625167724609375,2.4286327362060547,1.0450611114501953,0.678059458732605
1696959038526181000,5.63518115234375,-1.849668025970459,0.43416857719421387,-0.3091214597225189
1696959038536194800,5.64519482421875,0.12815189361572266,-0.3713928461074829,-0.1566344052553177
1696959038546208500,5.65520849609375,1.5384244918823242,1.283098578453064,0.5844491124153137
1696959038556222200,5.66522216796875,-1.456949234008789,0.2133427858352661,-0.07246056944131851
1696959038566236000,5.67523583984375,0.9838266372680664,0.5863771438598633,-0.05759832635521889
1696959038576249300,5.685249267578125,-0.24614620208740234,0.7671658992767334,0.19256240129470825
1696959038586263000,5.695262939453125,0.0220184326171875,0.5601484775543213,0.0635838508605957
1696959038596276700,5.70527685546875,0.6388168334960938,1.0964977741241455,0.32940736413002014
1696959038606290400,5.71529052734375,-0.7053976058959961,0.4564938545227051,-0.00823618471622467
1696959038616304000,5.72530419921875,0.7685785293579102,1.3472602367401123,0.3161587119102478
1696959038626317800,5.73531787109375,-0.6523933410644531,0.7303189039230347,0.023359008133411407
1696959038636331300,5.745331298828125,0.1523141860961914,1.0617749691009521,0.011896873824298382
1696959038646345000,5.755344970703125,-0.3447885513305664,1.0000122785568237,0.33593469858169556
1696959038656358700,5.765358642578125,0.033789634704589844,1.0108084678649902,-0.06383460015058517
1696959038666372400,5.775372314453125,-0.45828819274902344,1.2983479499816895,0.2234116941690445
1696959038676386000,5.785385986328125,-0.06993770599365234,0.9073758125305176,-0.06713452935218811
1696959038686399500,5.7953994140625,0.31754589080810547,1.510792851448059,0.39500683546066284
1696959038696413200,5.8054130859375,-0.5146818161010742,0.7752033472061157,-0.11009678989648819
1696959038706427000,5.815427001953125,0.5285654067993164,1.646985411643982,0.48425230383872986
1696959038716440600,5.825440673828125,-0.39015960693359375,0.7625995874404907,0.1358281821012497
1696959038726454300,5.835454345703125,0.3946685791015625,1.5917117595672607,0.32771730422973633
1696959038736467700,5.8454677734375,-0.141387939453125,0.8268370628356934,0.2694914937019348
1696959038746481400,5.8554814453125,0.25579261779785156,1.4259878396987915,0.3028630018234253
1696959038756495000,5.8654951171875,-0.12706756591796875,0.8197485208511353,0.09009386599063873
1696959038766508800,5.8755087890625,-0.02614879608154297,1.3085910081863403,0.20382244884967804
1696959038776522500,5.8855224609375,-0.2745800018310547,0.7031594514846802,0.06266073137521744
1696959038786536000,5.895535888671875,0.10389423370361328,1.4455809593200684,0.10549318790435791
1696959038796549600,5.905549560546875,-0.8187742233276367,0.7016276121139526,0.058375995606184006
1696959038806563300,5.915563232421875,0.559779167175293,1.5210299491882324,0.07197903841733932
1696959038816577000,5.925576904296875,-0.6124801635742188,0.7240104675292969,0.07311154901981354
1696959038826590700,5.9355908203125,-0.3146524429321289,1.3483424186706543,0.1002434492111206
1696959038836604200,5.945604248046875,-0.1753225326538086,0.9008251428604126,-0.013836320489645004
1696959038846617900,5.955617919921875,-0.31354618072509766,1.4868934154510498,0.10885186493396759
1696959038856631600,5.965631591796875,-0.22686195373535156,0.7909326553344727,0.06121023744344711
1696959038866645200,5.975645263671875,-0.2597770690917969,1.5730082988739014,0.055379416793584824
1696959038876659000,5.985658935546875,-0.5317678451538086,0.9204579591751099,0.13522563874721527
1696959038886672400,5.99567236328125,0.09074592590332031,1.6403907537460327,0.014701515436172485
1696959038896686000,6.00568603515625,-0.38286876678466797,0.9018551111221313,0.17201945185661316
1696959038906699800,6.01569970703125,-0.1287689208984375,1.3879718780517578,0.10750152170658112
1696959038916713500,6.02571337890625,-0.2338848114013672,1.2094131708145142,0.06947065889835358
1696959038926727200,6.03572705078125,-0.28130626678466797,1.4896756410598755,0.13403645157814026
1696959038936740600,6.04574072265625,0.04878520965576172,0.909738302230835,0.21932300925254822
1696959038946754300,6.05575439453125,-0.5823221206665039,1.45339035987854,-0.09101207554340363
1696959038956768000,6.06576806640625,-0.6482372283935547,1.0986698865890503,0.3368890881538391
1696959038966781700,6.07578173828125,0.1656026840209961,1.5034661293029785,-0.10446396470069885
1696959038976795400,6.08579541015625,-0.8627300262451172,0.986138105392456,0.012338735163211823
1696959038986808800,6.095808837890625,-0.6505584716796875,1.0377779006958008,-0.311275839805603
1696959038996822500,6.105822509765625,-0.4009666442871094,1.3774635791778564,0.035958461463451385
1696959039006836200,6.115836181640625,-0.4383583068847656,1.026177167892456,-0.3488158881664276
1696959039016850000,6.125849853515625,-1.0496492385864258,1.299808382987976,-0.09569693356752396
1696959039026863600,6.135863525390625,-0.08659553527832031,1.0726627111434937,-0.3991284966468811
1696959039036877000,6.145876953125,-1.8027076721191406,1.2744921445846558,-0.1265440434217453
1696959039046890800,6.155890869140625,0.5070228576660156,1.1569427251815796,-0.35904914140701294
1696959039056904400,6.165904541015625,-0.7976303100585938,1.4991447925567627,0.2450438290834427
1696959039066918100,6.175918212890625,0.25148487091064453,0.7143915891647339,-0.13172878324985504
1696959039076931800,6.185931884765625,-0.5590486526489258,1.4885739088058472,0.1470111608505249
1696959039086945500,6.195945556640625,0.6179828643798828,0.897050142288208,-0.17571096122264862
1696959039096959000,6.205958984375,-0.5002584457397461,0.9526036977767944,-0.04890374839305878
1696959039106972700,6.21597265625,-0.01685619354248047,0.5967535972595215,-0.141619011759758
1696959039116986400,6.225986328125,-0.3377847671508789,0.9682407379150391,-0.38039278984069824
1696959039127000000,6.236,0.10989952087402344,0.6075159311294556,-0.06310461461544037
1696959039137013800,6.246013671875,-0.6512660980224609,0.07418692111968994,-0.544031023979187
1696959039147027200,6.256027099609375,0.1171102523803711,0.7704211473464966,-0.16312672197818756
1696959039157041000,6.266041015625,-0.7996082305908203,0.20098578929901123,-0.20107586681842804
1696959039167054600,6.2760546875,0.23955821990966797,0.3403981924057007,-0.06408841907978058
1696959039177068300,6.286068359375,-0.44359493255615234,0.38565540313720703,-0.13071413338184357
1696959039187082000,6.29608203125,-0.1736907958984375,0.2069462537765503,-0.030995670706033707
1696959039197095400,6.306095458984375,0.021404266357421875,0.4910869598388672,0.1675311028957367
1696959039207109000,6.316109130859375,0.3778524398803711,0.1501384973526001,-0.037796616554260254
1696959039217122800,6.326122802734375,0.031325340270996094,0.7041676044464111,0.31970569491386414
1696959039227136500,6.336136474609375,0.31230926513671875,0.11429238319396973,0.1111745834350586
1696959039237150200,6.346150146484375,0.38144969940185547,0.6972917318344116,0.003884578123688698
1696959039247163600,6.35616357421875,0.0019865036010742188,0.17699480056762695,0.02013115957379341
1696959039257177300,6.36617724609375,-0.06040191650390625,0.48140275478363037,0.3782499134540558
1696959039267191000,6.37619091796875,0.8631811141967773,0.4776097536087036,0.7612177133560181
1696959039277204700,6.386204833984375,0.14324951171875,0.11812663078308105,0.6375429034233093
1696959039287218400,6.396218505859375,1.1410255432128906,0.13574624061584473,0.6437171101570129
1696959039297232000,6.40623193359375,-0.4013490676879883,0.19643700122833252,0.1145516037940979
1696959039307245600,6.41624560546875,0.970667839050293,0.24191820621490479,0.4232686758041382
1696959039317259300,6.42625927734375,-0.6523408889770508,0.22495543956756592,0.3566288650035858
1696959039327273000,6.43627294921875,0.46701908111572266,-0.12628984451293945,0.3306029438972473
1696959039337286700,6.44628662109375,-0.05072784423828125,0.33047592639923096,0.4131581485271454
1696959039347300000,6.456300048828125,-0.6770954132080078,-0.2318209409713745,0.1848987191915512
1696959039357313800,6.466313720703125,0.6383495330810547,0.5741754770278931,0.35437244176864624
1696959039367327500,6.476327392578125,-0.26681041717529297,0.4265260696411133,0.5350938439369202
1696959039377341200,6.486341064453125,0.28769874572753906,-0.06879961490631104,0.4341281056404114
1696959039387355000,6.49635498046875,-0.19614219665527344,0.6267693042755127,0.4691658914089203
1696959039397368300,6.506368408203125,-0.30140209197998047,-0.15040051937103271,0.33629947900772095
1696959039407382000,6.516382080078125,0.3725776672363281,0.31202232837677,0.7084088325500488
1696959039417395700,6.526395751953125,-0.8954591751098633,0.43439388275146484,0.6241263747215271
1696959039427409400,6.536409423828125,0.9029064178466797,0.3322545289993286,0.43309152126312256
1696959039437423000,6.546423095703125,-0.9877052307128906,-0.07609772682189941,0.11397749930620193
1696959039447436500,6.5564365234375,-0.5989274978637695,-0.6546515226364136,0.10831700265407562
1696959039457450200,6.5664501953125,0.17606163024902344,0.08204662799835205,0.2734338045120239
1696959039467464000,6.5764638671875,-0.3793516159057617,0.29538261890411377,-0.2704661786556244
1696959039477477600,6.5864775390625,0.2993745803833008,0.2705700397491455,-0.07506732642650604
1696959039487491300,6.5964912109375,-0.22753429412841797,0.09104418754577637,0.22173675894737244
1696959039497504800,6.6065048828125,-0.046217918395996094,-0.2821204662322998,-0.14999186992645264
1696959039507518500,6.6165185546875,0.35954761505126953,0.09450602531433105,0.07305770367383957
1696959039517532200,6.6265322265625,1.1081733703613281,0.2708137035369873,0.2868720293045044
1696959039527545900,6.6365458984375,1.3486518859863281,-0.03805732727050781,0.2381633222103119
1696959039537559600,6.6465595703125,0.5943202972412109,-0.13942325115203857,0.39915958046913147
1696959039547573000,6.656572998046875,-0.04792022705078125,-0.0032330751419067383,0.12142422050237656
1696959039557586700,6.666586669921875,1.0459022521972656,0.11503970623016357,0.0354214608669281
1696959039567600400,6.676600341796875,-0.6344137191772461,-0.3138378858566284,-0.403497576713562
1696959039577614000,6.686614013671875,-0.3802051544189453,-0.5148715972900391,-0.11080101877450943
1696959039587627800,6.696627685546875,0.6956977844238281,-0.03386247158050537,-0.06876666098833084
1696959039597641500,6.706641357421875,-1.0028018951416016,-0.17125999927520752,-0.5145508050918579
1696959039607655000,6.716655029296875,0.4520549774169922,-0.2542024850845337,-0.27179086208343506
1696959039617668600,6.726668701171875,0.11646175384521484,-0.18200743198394775,0.14816436171531677
1696959039627682300,6.736682373046875,0.44086360931396484,-0.3760727643966675,-0.17872537672519684
1696959039637696000,6.746696044921875,-0.014254570007324219,0.32277870178222656,0.04852905124425888
1696959039647709400,6.75670947265625,0.21034717559814453,-0.0598529577255249,-0.02885366603732109
1696959039657723100,6.76672314453125,0.5250091552734375,-0.25941789150238037,-0.366886705160141
1696959039667736600,6.776736572265625,0.03143024444580078,0.06191599369049072,-0.03419692814350128
1696959039677750300,6.786750244140625,-0.403564453125,-0.05264389514923096,-0.5194535255432129
1696959039687764000,6.796763916015625,0.2326059341430664,-0.3702569007873535,-0.2592281699180603
1696959039697777400,6.80677734375,-0.5513887405395508,-0.36600935459136963,-0.33491867780685425
1696959039707791000,6.816791015625,-0.48835086822509766,-0.4150022268295288,-0.865208625793457
1696959039717804500,6.826804443359375,-0.5588359832763672,-0.28453493118286133,-0.08472640812397003
1696959039727818200,6.836818359375,-0.2946348190307617,-0.306801438331604,0.07022520154714584
1696959039737832000,6.84683203125,0.3079061508178711,-0.20872175693511963,-0.45654821395874023
1696959039747845400,6.856845458984375,-0.21394824981689453,0.29502367973327637,-0.07099258899688721
1696959039757859000,6.866859130859375,-0.13222503662109375,0.05137515068054199,-0.34169015288352966
1696959039767872500,6.87687255859375,-0.12299919128417969,-0.3512740135192871,-0.01036044955253601
1696959039777886200,6.88688623046875,0.904719352722168,-0.7747018337249756,0.2910327911376953
1696959039787900000,6.89689990234375,0.634404182434082,-0.426216721534729,-0.2929854094982147
1696959039797913300,6.906913330078125,1.8893699645996094,-0.3753150701522827,0.392835408449173
1696959039807927000,6.916927001953125,0.0687713623046875,-1.0057175159454346,-0.04183104634284973
1696959039817940500,6.9269404296875,1.1574735641479492,-1.2763772010803223,-0.04892706125974655
1696959039827954200,6.9369541015625,1.5182695388793945,-0.9362549781799316,0.35194534063339233
1696959039837968000,6.9469677734375,-0.5741300582885742,-1.3007596731185913,0.24054385721683502
1696959039847981300,6.956981201171875,2.1177682876586914,-1.0294817686080933,0.44298261404037476
1696959039857995000,6.9669951171875,1.5444774627685547,-1.069056749343872,0.19659607112407684
1696959039868008400,6.977008544921875,-0.9682779312133789,-1.7024953365325928,0.18781304359436035
1696959039878022100,6.987022216796875,2.298534393310547,-1.3561222553253174,0.9658560752868652
1696959039888035800,6.997035888671875,0.4587068557739258,-0.6325182914733887,0.40149787068367004
1696959039898049300,7.00704931640625,0.448089599609375,-0.8800628185272217,1.1665053367614746
1696959039908063000,7.01706298828125,2.2544031143188477,-0.678266167640686,1.2958450317382812
1696959039918076700,7.02707666015625,0.18514442443847656,-0.591460108757019,1.0843197107315063
1696959039928090400,7.03709033203125,0.40035247802734375,-0.9142177104949951,1.1360502243041992
1696959039938103800,7.047103759765625,1.633509635925293,-0.4843021631240845,1.2354825735092163
1696959039948117500,7.057117431640625,-1.337209701538086,-0.3179931640625,0.9445978999137878
1696959039958131200,7.067131103515625,1.4052677154541016,-0.47511816024780273,1.160899043083191
1696959039968145000,7.077144775390625,-0.0351715087890625,0.4389747381210327,0.6859344244003296
1696959039978158600,7.08715869140625,-1.9361310005187988,-0.3852485418319702,0.9101715683937073
1696959039988172000,7.097172119140625,0.6839513778686523,-0.09484779834747314,0.6770758032798767
1696959039998185700,7.107185791015625,-0.7405862808227539,0.4901946783065796,0.41675421595573425
1696959040008199400,7.117199462890625,-2.047107696533203,-0.1145331859588623,0.0038234293460845947
1696959040018213000,7.127213134765625,-0.6360483169555664,0.24364745616912842,0.1707797646522522
1696959040028226800,7.137226806640625,-1.7992072105407715,0.6466623544692993,0.26266467571258545
1696959040038240300,7.147240234375,-1.837141990661621,0.22592973709106445,-0.27413254976272583
1696959040048254000,7.15725390625,0.5148525238037109,0.4496591091156006,-0.07171943038702011
1696959040058267600,7.167267578125,-1.655085563659668,-0.006091117858886719,-0.04493328928947449
1696959040068281300,7.17728125,-0.5658359527587891,-0.4761117696762085,-0.31824448704719543
1696959040078295000,7.187294921875,0.34917449951171875,0.47161865234375,-0.4255526661872864
1696959040088308500,7.19730859375,-1.8112125396728516,0.24747586250305176,-0.6311379075050354
1696959040098322200,7.207322265625,-0.7458171844482422,-0.11618077754974365,-1.4794811010360718
1696959040108335900,7.2173359375,-1.4317398071289062,-0.29958510398864746,-1.4375239610671997
1696959040118349600,7.227349609375,-2.388763904571533,-0.41793012619018555,-1.1206865310668945
1696959040128363300,7.23736328125,0.1448535919189453,-0.10381805896759033,-0.938893735408783
1696959040138376700,7.247376708984375,0.3739967346191406,-0.43862926959991455,-0.7858300805091858
1696959040148390400,7.257390380859375,-0.22460269927978516,-0.9329241514205933,-0.9523167014122009
1696959040158404000,7.267404052734375,0.846221923828125,-0.202978253364563,-0.9584288597106934
1696959040168417800,7.277417724609375,0.10333061218261719,-0.05891382694244385,-0.726793646812439
1696959040178431500,7.287431396484375,-0.32268619537353516,-0.31926000118255615,-0.39085397124290466
1696959040188445000,7.29744482421875,2.320784568786621,-0.34663891792297363,-0.5769930481910706
1696959040198458600,7.307458740234375,-1.1402273178100586,-0.03037130832672119,-0.7691934704780579
1696959040208472300,7.317472412109375,0.06183910369873047,-0.5065575838088989,-1.2864090204238892
1696959040218486000,7.327486083984375,0.13811111450195312,-0.07020926475524902,-0.9101477265357971
1696959040228499700,7.337499755859375,0.056804656982421875,-0.20528936386108398,-0.9313230514526367
1696959040238513200,7.34751318359375,-1.2102136611938477,-0.6897685527801514,-0.7868942022323608
1696959040248526800,7.35752685546875,2.1478872299194336,-0.0344620943069458,-0.12678439915180206
1696959040258540500,7.36754052734375,-0.8582735061645508,-0.48087871074676514,-0.286376416683197
1696959040268554200,7.37755419921875,0.0610504150390625,-0.9698566198348999,-0.5797295570373535
1696959040278568000,7.38756787109375,1.012221336364746,-0.012978076934814453,0.27947720885276794
1696959040288581400,7.397581298828125,-0.4569520950317383,-0.2831367254257202,-0.06615442037582397
1696959040298595000,7.407594970703125,-0.15528297424316406,-0.6187559366226196,0.10207375138998032
1696959040308608800,7.41760888671875,1.179173469543457,0.16772115230560303,0.28666484355926514
1696959040318622500,7.42762255859375,-1.136775016784668,-0.5207656621932983,0.21810249984264374
1696959040328636200,7.43763623046875,1.5565853118896484,-0.5765072107315063,0.35502108931541443
1696959040338649900,7.44764990234375,0.019316673278808594,-0.13859033584594727,0.534870445728302
1696959040348663300,7.457663330078125,-0.3582115173339844,-0.34384119510650635,0.5101293325424194
1696959040358677000,7.467677001953125,1.2343378067016602,0.11455798149108887,1.2134829759597778
1696959040368690700,7.477690673828125,-0.08697032928466797,0.10079753398895264,1.166863203048706
1696959040378704400,7.487704345703125,-0.736720085144043,0.009939432144165039,1.1391956806182861
1696959040388718000,7.497718017578125,1.7125329971313477,0.594414472579956,1.067493200302124
1696959040398731500,7.5077314453125,-1.010300636291504,0.355138897895813,0.9960447549819946
1696959040408745200,7.5177451171875,0.970977783203125,0.032591938972473145,0.9661228656768799
1696959040418759000,7.527759033203125,0.3767356872558594,0.5536336898803711,0.9640266299247742
1696959040428772600,7.537772705078125,-1.1766414642333984,0.1899874210357666,0.7494717836380005
1696959040438786300,7.547786376953125,0.3034782409667969,0.02430713176727295,0.8408346772193909
1696959040448799700,7.5577998046875,0.4564676284790039,0.8179640769958496,1.3972175121307373
1696959040458813400,7.5678134765625,-0.9822921752929688,0.08483266830444336,0.7977554798126221
1696959040468827100,7.5778271484375,0.8842935562133789,0.3118860721588135,0.9157927632331848
1696959040478840800,7.5878408203125,-0.2348337173461914,0.1365753412246704,0.9754164218902588
1696959040488854500,7.5978544921875,-0.24351882934570312,-0.19045007228851318,0.631745457649231
1696959040498868000,7.607867919921875,1.4067659378051758,0.07700788974761963,0.4128425419330597
1696959040508881700,7.617881591796875,-1.7453351020812988,-0.28568100929260254,-0.051296673715114594
1696959040518895400,7.627895263671875,-0.27838706970214844,-0.46796488761901855,-0.5920422077178955
1696959040528909000,7.637908935546875,0.00013065338134765625,-0.11659598350524902,-0.3076276183128357
1696959040538922800,7.6479228515625,-0.39609241485595703,-0.23787391185760498,-0.30036064982414246
1696959040548936200,7.657936279296875,0.6230869293212891,-0.3248821496963501,-0.22492246329784393
1696959040558950000,7.667949951171875,-1.3040704727172852,0.13781476020812988,-0.10590428113937378
1696959040568963600,7.677963623046875,0.3958549499511719,0.13682842254638672,-0.4836975336074829
1696959040578977300,7.687977294921875,0.1320819854736328,0.03559255599975586,-0.6461178064346313
1696959040588991000,7.697990966796875,-0.08316898345947266,-0.5433796644210815,-0.7556023597717285
1696959040599004400,7.70800439453125,-0.1643972396850586,-0.6462432146072388,-1.0386757850646973
1696959040609018000,7.71801806640625,1.212407112121582,0.22971606254577637,-0.6162125468254089
1696959040619031800,7.72803173828125,-0.649662971496582,-0.15306627750396729,-0.8446532487869263
1696959040629045500,7.73804541015625,1.2393980026245117,0.12095177173614502,-0.6677863001823425
1696959040639059200,7.74805908203125,-0.044132232666015625,-0.2440859079360962,-0.1687556505203247
1696959040649072600,7.75807275390625,-0.5032272338867188,-0.619052529335022,-0.7128094434738159
1696959040659086300,7.76808642578125,0.9842557907104492,-0.2780872583389282,-0.5944937467575073
1696959040669100000,7.77810009765625,-1.1590547561645508,-0.9565064907073975,-0.5159406065940857
1696959040679113700,7.78811376953125,1.6820745468139648,-0.3209191560745239,-0.3484768867492676
1696959040689127400,7.79812744140625,0.6460285186767578,-0.4704158306121826,-0.03357856720685959
1696959040699140900,7.808140869140625,0.8736515045166016,-0.626115083694458,-0.1200793907046318
1696959040709154600,7.818154541015625,0.40816688537597656,-0.5591820478439331,-0.2789444327354431
1696959040719168300,7.828168212890625,-0.38619422912597656,-0.5861424207687378,-0.2433355450630188
1696959040729182000,7.838181884765625,1.0341501235961914,-0.44140589237213135,-0.3004568815231323
1696959040739195600,7.848195556640625,0.21457290649414062,-0.30273401737213135,0.061018869280815125
1696959040749209000,7.858208984375,0.4863462448120117,-0.435060977935791,0.30463212728500366
1696959040759222800,7.868222900390625,2.2345399856567383,-0.1965651512145996,0.7374247908592224
1696959040769236500,7.878236572265625,0.43718719482421875,-0.47998571395874023,0.39312684535980225
1696959040779250200,7.888250244140625,1.3872833251953125,-0.4701566696166992,0.5261596441268921
1696959040789264000,7.898263916015625,0.6628780364990234,-0.45825207233428955,0.8057918548583984
1696959040799277600,7.908277587890625,-0.031524658203125,-0.4488915205001831,0.2731003165245056
1696959040809291000,7.918291015625,1.154306411743164,0.017574429512023926,0.4825175106525421
1696959040819304700,7.9283046875,0.14374446868896484,-0.4305233955383301,0.13641755282878876
1696959040829318400,7.938318359375,1.1569595336914062,-0.5560791492462158,0.3481334149837494
1696959040839332000,7.94833203125,0.54815673828125,-0.3831298351287842,0.45949670672416687
1696959040849345800,7.958345703125,0.06940555572509766,-0.709831953048706,0.6106038093566895
1696959040859359200,7.968359130859375,2.325840950012207,-0.34981751441955566,0.8107857704162598
1696959040869373000,7.978373046875,-1.249037742614746,-0.9507640600204468,0.561224102973938
1696959040879386600,7.98838671875,1.8131914138793945,-0.6551012992858887,0.8047415614128113
1696959040889400300,7.998400390625,-0.12580108642578125,-0.7211829423904419,0.9256210327148438
1696959040899414000,8.0084140625,0.5966148376464844,-0.9372459650039673,0.828691840171814
1696959040909427500,8.018427490234375,1.289076805114746,-0.22365689277648926,0.9287832975387573
1696959040919441200,8.028441162109376,-0.6488170623779297,-0.5814125537872314,0.46619507670402527
1696959040929454800,8.038454833984375,0.7442026138305664,-0.8469598293304443,0.3690939247608185
1696959040939468500,8.048468505859375,-0.4225177764892578,-0.8466931581497192,0.495199590921402
1696959040949482200,8.058482177734374,-0.30609130859375,-0.8436398506164551,0.07250078022480011
1696959040959495700,8.06849560546875,0.32666587829589844,-0.4943009614944458,-0.28000882267951965
1696959040969509400,8.07850927734375,-0.045981407165527344,-0.287652850151062,0.099774569272995
1696959040979523000,8.088523193359375,0.9016485214233398,-0.8767870664596558,-0.25071635842323303
1696959040989536800,8.098536865234376,-0.4950733184814453,-0.39718949794769287,-0.09056467562913895
1696959040999550500,8.108550537109375,-0.043152809143066406,-0.6665736436843872,-0.27512478828430176
1696959041009564000,8.11856396484375,0.45501708984375,-0.24505066871643066,0.03717156872153282
1696959041019577600,8.12857763671875,-0.4000110626220703,-0.6299206018447876,0.3118169903755188
1696959041029591300,8.13859130859375,0.41443443298339844,-0.30386078357696533,0.19684270024299622
1696959041039605000,8.14860498046875,-0.2444906234741211,-0.23966765403747559,0.44243261218070984
1696959041049618700,8.15861865234375,0.11575984954833984,-0.4650915861129761,0.3363180160522461
1696959041059632000,8.168632080078124,0.6570396423339844,-0.22325921058654785,0.5356605052947998
1696959041069645800,8.178645751953125,0.4180259704589844,-0.28798937797546387,0.6719455718994141
1696959041079659500,8.188659423828126,0.1125955581665039,-0.09865367412567139,0.7434334754943848
1696959041089673200,8.198673095703125,-0.010174751281738281,-0.13573908805847168,0.622735321521759
1696959041099687000,8.20868701171875,-1.4232902526855469,-0.22354865074157715,0.1960706263780594
1696959041109700400,8.218700439453125,0.8089132308959961,0.4334641695022583,0.3231213688850403
1696959041119714000,8.228714111328125,-1.5521926879882812,-0.21613621711730957,0.03980892151594162
1696959041129727700,8.238727783203124,-0.1944875717163086,-0.1309664249420166,-0.3032001852989197
1696959041139741400,8.248741455078125,-0.8851032257080078,-0.01979696750640869,-0.106572225689888
1696959041149755100,8.258755126953124,-1.5601110458374023,0.0695652961730957,-0.37270599603652954
1696959041159768600,8.2687685546875,0.21822643280029297,0.15850889682769775,-0.10428633540868759
1696959041169782300,8.2787822265625,-0.9945087432861328,-0.14598214626312256,-0.2139817178249359
1696959041179796000,8.2887958984375,-0.1783580780029297,-0.06502234935760498,-0.34329187870025635
1696959041189809700,8.2988095703125,-0.47719860076904297,0.16589999198913574,-0.35548943281173706
1696959041199823400,8.3088232421875,-1.2824621200561523,-0.16012489795684814,-0.4269959330558777
1696959041209836800,8.3188369140625,0.8872756958007812,0.1529080867767334,0.0039056986570358276
1696959041219850500,8.3288505859375,-1.5076560974121094,-0.1412564516067505,-0.09183093905448914
1696959041229864200,8.3388642578125,0.380401611328125,0.025134563446044922,-0.16168539226055145
1696959041239878000,8.3488779296875,-0.3690042495727539,0.26054930686950684,-0.1938638985157013
1696959041249891600,8.3588916015625,-1.073965072631836,-0.19053828716278076,-0.40571725368499756
1696959041259905000,8.368905029296876,1.0236167907714844,0.21341967582702637,-0.2511812150478363
1696959041269918700,8.378918701171875,-1.2616081237792969,0.08610248565673828,-0.6123015880584717
1696959041279932400,8.388932373046876,-0.0145416259765625,-0.1730586290359497,-0.8702735900878906
1696959041289946000,8.398946044921875,-0.6628236770629883,0.17851042747497559,-0.7368131875991821
1696959041299959800,8.408959716796875,-1.1567773818969727,-0.3488069772720337,-1.0451704263687134
1696959041309973500,8.418973388671875,-0.40689563751220703,0.31943297386169434,-0.9250003099441528
1696959041319987000,8.428987060546875,-1.1834449768066406,0.23070669174194336,-0.8009405136108398
1696959041330000600,8.439000732421874,-0.4434490203857422,-0.2860679626464844,-0.5738074779510498
1696959041340014300,8.449014404296875,0.20902061462402344,0.2336413860321045,-0.546129584312439
1696959041350028000,8.459028076171874,-1.4630231857299805,-0.5177444219589233,-0.5658756494522095
1696959041360041700,8.469041748046875,1.5046091079711914,0.09507036209106445,-0.06208391487598419
1696959041370055200,8.47905517578125,-0.49027061462402344,-0.02771449089050293,-0.25901952385902405
1696959041380068900,8.48906884765625,0.20003509521484375,-0.2801278829574585,-0.5010730624198914
1696959041390082600,8.49908251953125,-0.9314823150634766,-0.0002512931823730469,-0.32222944498062134
1696959041400096300,8.50909619140625,0.1515026092529297,-0.4476771354675293,-0.5966672897338867
1696959041410110000,8.51910986328125,-0.3349590301513672,0.029968976974487305,-0.2991126477718353
1696959041420123400,8.529123291015624,0.48861122131347656,0.030846118927001953,-0.42314425110816956
1696959041430137000,8.53913720703125,-0.3477745056152344,-0.17530310153961182,0.15384642779827118
1696959041440150800,8.54915087890625,0.5095634460449219,-0.3085430860519409,-0.005107402801513672
1696959041450164500,8.55916455078125,-1.870898723602295,-0.3304176330566406,-0.122457355260849
1696959041460178200,8.56917822265625,1.6567182540893555,0.45958638191223145,0.13544413447380066
1696959041470191600,8.579191650390625,-0.8171300888061523,0.03323245048522949,-0.12447360157966614
1696959041480205300,8.589205322265625,0.7629604339599609,-0.4587503671646118,0.0560951828956604
1696959041490219000,8.599218994140625,0.6521701812744141,0.46904492378234863,0.7307317852973938
1696959041500232700,8.609232666015625,-0.12236976623535156,0.3858511447906494,0.21353836357593536
1696959041510246400,8.619246337890624,0.26116371154785156,0.7201759815216064,0.2744804620742798
1696959041520259800,8.629259765625,-1.7071280479431152,0.3918180465698242,0.3697701692581177
1696959041530273500,8.6392734375,0.18061542510986328,0.6320972442626953,0.6023707985877991
1696959041540287200,8.649287353515625,0.0906982421875,0.6916961669921875,0.3195297420024872
1696959041550301000,8.659301025390626,-0.8835945129394531,0.20807337760925293,0.007974714040756226
1696959041560314600,8.669314697265625,0.3429231643676758,0.471099853515625,0.5157080888748169
1696959041570328000,8.679328125,0.25249767303466797,0.31159281730651855,0.21165765821933746
1696959041580341800,8.689341796875,-0.9229536056518555,0.32158517837524414,-0.03891398012638092
1696959041590355500,8.69935546875,0.13170242309570312,0.12982869148254395,0.14588387310504913
1696959041600369200,8.709369140625,-1.659947395324707,0.18817710876464844,-0.21378599107265472
1696959041610382800,8.7193828125,0.47618865966796875,0.7871284484863281,0.34029150009155273
1696959041620396300,8.729396240234376,-1.3974485397338867,-0.017191410064697266,0.18928322196006775
1696959041630410000,8.739409912109375,0.8573312759399414,-0.16690516471862793,0.031685829162597656
1696959041640423700,8.749423583984376,-0.9837207794189453,0.3355259895324707,0.21665778756141663
1696959041650437400,8.759437255859375,0.5959529876708984,-0.15376806259155273,0.4959365725517273
1696959041660451000,8.769451171875,1.3409099578857422,0.17730331420898438,0.43871212005615234
1696959041670464500,8.779464599609375,-0.8936090469360352,-0.4326961040496826,-0.03606694936752319
1696959041680478200,8.789478271484375,1.3550901412963867,-0.03656339645385742,-0.04864533245563507
1696959041690492000,8.799491943359374,-0.21957874298095703,0.11697673797607422,-0.2882869243621826
1696959041700505600,8.809505615234375,-0.6874475479125977,-0.4564778804779053,-0.7943601608276367
1696959041710519300,8.819519287109374,-0.049475669860839844,0.48775792121887207,-0.09883363544940948
1696959041720532700,8.82953271484375,-0.7423715591430664,0.04209399223327637,-0.15286989510059357
1696959041730546400,8.83954638671875,1.118821144104004,-0.12659621238708496,-0.2385709583759308
1696959041740560100,8.84956005859375,-0.59930419921875,-0.21881580352783203,-0.027323558926582336
1696959041750573800,8.85957373046875,0.46305274963378906,-0.17038345336914062,0.34905949234962463
1696959041760587500,8.86958740234375,0.8160209655761719,0.03827619552612305,-0.0681208074092865
1696959041770601000,8.87960107421875,-1.2313432693481445,-0.3158830404281616,-0.5389054417610168
1696959041780614700,8.88961474609375,1.0657472610473633,0.3532412052154541,0.3040265142917633
1696959041790628400,8.89962841796875,-0.41314697265625,-0.0845804214477539,0.03817056119441986
1696959041800642000,8.90964208984375,-0.08732223510742188,-0.4372144937515259,-0.35669079422950745
1696959041810655700,8.91965576171875,0.4295978546142578,0.4501078128814697,-0.07853257656097412
1696959041820669400,8.92966943359375,-0.7997150421142578,-0.09096002578735352,-0.13449916243553162
1696959041830683000,8.939682861328125,0.832061767578125,0.15237021446228027,0.06608012318611145
1696959041840696600,8.949696533203126,-0.9713468551635742,0.16945958137512207,0.17185358703136444
1696959041850710300,8.959710205078125,1.1195173263549805,-0.3185368776321411,0.16543467342853546
1696959041860724000,8.969723876953125,0.02756786346435547,0.2920215129852295,0.37777015566825867
1696959041870737700,8.979737548828124,-0.11549663543701172,-0.1643538475036621,0.36727651953697205
1696959041880751000,8.989751220703125,0.4586172103881836,0.41765618324279785,0.5103923678398132
1696959041890764800,8.999764892578124,-0.9804935455322266,0.027364730834960938,0.3632628917694092
1696959041900778500,9.009778564453125,1.1438474655151367,-0.6179802417755127,0.24639205634593964
1696959041910792200,9.019792236328126,0.2574424743652344,-0.7908312082290649,0.37519651651382446
1696959041920806000,9.029805908203125,0.22312355041503906,-0.6636995077133179,0.5107471942901611
1696959041930819300,9.0398193359375,1.4319477081298828,-0.10891366004943848,0.5394760370254517
1696959041940833000,9.0498330078125,-0.6697921752929688,-0.8820388317108154,0.40555477142333984
1696959041950846700,9.0598466796875,1.3343315124511719,-0.9421802759170532,0.39667752385139465
1696959041960860400,9.0698603515625,-1.407501220703125,-0.7671890258789062,0.47695133090019226
1696959041970874000,9.0798740234375,1.2477521896362305,-0.6289349794387817,0.4202943444252014
1696959041980887600,9.089887451171874,0.4560356140136719,-0.1587367057800293,0.8261978626251221
1696959041990901200,9.0999013671875,-0.2051525115966797,-0.6052426099777222,0.7540323138237
1696959042000915000,9.1099150390625,0.8988456726074219,-0.1142568588256836,0.41994115710258484
1696959042010928600,9.1199287109375,-0.7812471389770508,0.11245298385620117,0.3968351483345032
1696959042020942300,9.1299423828125,0.5293083190917969,0.2304091453552246,0.6981227397918701
1696959042030955800,9.139955810546875,-1.1739625930786133,0.38071107864379883,0.7823837399482727
1696959042040969500,9.149969482421875,-0.5554161071777344,0.11110353469848633,0.7307894825935364
1696959042050983200,9.159983154296874,-0.6885395050048828,0.8689405918121338,0.5519636273384094
1696959042060996900,9.169996826171875,-1.3473052978515625,0.3931269645690918,0.015286993235349655
1696959042071010600,9.180010498046874,-0.5564365386962891,0.6451113224029541,-0.2189008891582489
1696959042081024000,9.19002392578125,-0.8618898391723633,1.044309139251709,0.09061512351036072
1696959042091037700,9.20003759765625,-1.3340139389038086,0.5974442958831787,-0.19389700889587402
1696959042101051400,9.210051513671875,-0.7343482971191406,1.1930086612701416,-0.15792527794837952
1696959042111065000,9.220065185546876,-2.315373420715332,0.9314424991607666,-0.4758152365684509
1696959042121078800,9.230078857421875,-0.42317962646484375,0.8820281028747559,-0.34591051936149597
1696959042131092200,9.24009228515625,-1.221207618713379,0.7884054183959961,-0.10941636562347412
1696959042141106000,9.25010595703125,-0.7988653182983398,0.5672070980072021,-0.5480986833572388
1696959042151119600,9.26011962890625,-1.079925537109375,1.0483641624450684,-0.32235822081565857
1696959042161133300,9.27013330078125,-1.2505245208740234,0.3819701671600342,-0.472859650850296
1696959042171147000,9.28014697265625,-0.904566764831543,0.2525925636291504,-0.49925684928894043
1696959042181160400,9.290160400390626,-0.7459573745727539,0.07615423202514648,-0.8383805155754089
1696959042191174100,9.300174072265625,-0.5827293395996094,-0.024393320083618164,-0.8808997869491577
1696959042201187800,9.310187744140626,-1.5381879806518555,0.17160677909851074,-0.8945627212524414
1696959042211201500,9.320201416015625,-1.4545373916625977,0.6265013217926025,-0.5382283926010132
1696959042221215200,9.33021533203125,1.0187883377075195,0.9351606369018555,-0.03178679943084717
1696959042231228700,9.340228759765624,-0.9349498748779297,0.5707347393035889,0.05829580873250961
1696959042241242400,9.350242431640625,1.1689577102661133,0.43102145195007324,0.40524011850357056
1696959042251256000,9.360256103515624,-0.5746908187866211,1.257011890411377,0.04430662840604782
1696959042261269800,9.370269775390625,0.7157678604125977,0.47591090202331543,-0.6898613572120667
1696959042271283500,9.380283447265626,-0.8115882873535156,0.8568370342254639,-0.0045512281358242035
1696959042281297000,9.390296875,-0.7822561264038086,-0.5683282613754272,0.15327270328998566
1696959042291310600,9.400310546875,0.8147602081298828,0.7140579223632812,-0.3731386065483093
1696959042301324300,9.41032421875,-1.8359026908874512,0.24372220039367676,-0.30273914337158203
1696959042311338000,9.420337890625,2.2532949447631836,0.31610774993896484,0.15212184190750122
1696959042321351700,9.4303515625,-1.5666046142578125,-0.21231329441070557,-0.26782792806625366
1696959042331365400,9.440365478515625,-0.0687246322631836,-0.3231372833251953,-0.08698274195194244
1696959042341378800,9.45037890625,1.168562889099121,0.846472978591919,0.35326963663101196
1696959042351392500,9.460392578125,-0.6804656982421875,-0.5065820217132568,0.23938551545143127
1696959042361406200,9.47040625,1.5947513580322266,0.5039515495300293,0.5923320055007935
1696959042371420000,9.480419921875,-0.19240188598632812,0.3955106735229492,0.3847953975200653
1696959042381433600,9.49043359375,0.48519039154052734,0.04280400276184082,0.1748150885105133
1696959042391447000,9.500447021484375,0.5834665298461914,0.47676539421081543,0.9157913327217102
1696959042401460700,9.510460693359375,0.6814088821411133,-0.3563765287399292,0.5967065095901489
1696959042411474400,9.520474365234374,1.3045625686645508,0.8445484638214111,0.5038270354270935
1696959042421488000,9.530488037109375,0.3784780502319336,0.6057240962982178,0.4733239412307739
1696959042431501800,9.540501708984374,1.6526861190795898,0.8278067111968994,0.6771332621574402
1696959042441515300,9.550515380859375,-0.6266603469848633,0.660301685333252,0.5267788767814636
1696959042451529000,9.560529052734376,1.1852893829345703,0.9062426090240479,0.7626839280128479
1696959042461542700,9.570542724609375,0.7998008728027344,1.0100228786468506,0.5424799919128418
1696959042471556400,9.580556396484376,-0.27347660064697266,0.0838325023651123,0.1740701049566269
1696959042481570000,9.590570068359375,1.0937795639038086,1.0690979957580566,0.6688066124916077
1696959042491583500,9.60058349609375,-0.3956785202026367,0.595332145690918,0.19280163943767548
1696959042501597200,9.61059716796875,1.0674076080322266,0.4324648380279541,-0.1903694123029709
1696959042511611000,9.62061083984375,-1.726557731628418,-0.2598484754562378,-0.2600831091403961
1696959042521624600,9.63062451171875,0.7434444427490234,-0.14807593822479248,-0.321272611618042
1696959042531638300,9.64063818359375,-1.3710918426513672,0.6712167263031006,0.19639520347118378
1696959042541651700,9.650651611328126,0.33330440521240234,0.6663720607757568,-0.007518872618675232
1696959042551665400,9.66066552734375,-0.17924022674560547,0.41781020164489746,-0.1496088206768036
1696959042561679000,9.67067919921875,-0.7430849075317383,-0.17889392375946045,-0.05978117883205414
1696959042571692800,9.68069287109375,0.8209848403930664,1.1286365985870361,0.8090845346450806
1696959042581706500,9.69070654296875,-1.886247158050537,0.4627346992492676,0.040945444256067276
1696959042591720000,9.700719970703124,1.089700698852539,0.013358831405639648,-0.2934691309928894
1696959042601733600,9.710733642578125,-1.0732784271240234,0.3151895999908447,-0.4124795198440552
1696959042611747300,9.720747314453124,0.3617286682128906,0.9084081649780273,-0.4519486427307129
1696959042621761000,9.730760986328125,-0.050803184509277344,0.12053704261779785,0.33529239892959595
1696959042631774700,9.740774658203126,-0.10913562774658203,-0.4386117458343506,0.10973180830478668
1696959042641788200,9.7507880859375,0.1911182403564453,0.3798801898956299,0.5612529516220093
1696959042651801900,9.7608017578125,-0.30757808685302734,-0.1890636682510376,-0.4316047430038452
1696959042661815600,9.770815673828125,0.1793956756591797,-0.06820535659790039,-0.736445426940918
1696959042671829200,9.780829345703125,-1.0553350448608398,-0.2961026430130005,-0.2967073321342468
1696959042681843000,9.790843017578124,0.5034685134887695,0.4822969436645508,-0.405024915933609
1696959042691856400,9.8008564453125,0.5580558776855469,0.3351876735687256,0.07517917454242706
1696959042701870000,9.8108701171875,-0.10002899169921875,-0.4496878385543823,0.06489962339401245
1696959042711883800,9.8208837890625,0.6725330352783203,0.3918447494506836,0.2253144085407257
1696959042721897500,9.8308974609375,-0.9272880554199219,-0.5269752740859985,-0.30345162749290466
1696959042731911200,9.8409111328125,0.05754566192626953,0.004532575607299805,-0.26589637994766235
1696959042741924600,9.850924560546876,-0.5801010131835938,0.2478775978088379,-0.047607433050870895
1696959042751938300,9.860938232421875,0.6233549118041992,0.04811429977416992,0.3575546443462372
1696959042761952000,9.870951904296875,0.6151523590087891,-0.4064720869064331,0.46650487184524536
1696959042771965700,9.880965576171874,0.6206159591674805,-0.45988893508911133,0.5812524557113647
1696959042781979400,9.8909794921875,2.20369815826416,0.20102155208587646,0.6330114006996155
1696959042791993000,9.9009931640625,0.0930624008178711,-0.552546501159668,0.21261882781982422
1696959042802006500,9.911006591796875,0.8315105438232422,-0.7226296663284302,0.3370395302772522
1696959042812020200,9.921020263671876,-0.7166538238525391,-0.09671425819396973,0.2948935031890869
1696959042822034000,9.931033935546875,2.499068260192871,-0.601123571395874,0.15883058309555054
1696959042832047600,9.941047607421876,-0.39119720458984375,-0.9607869386672974,0.15721061825752258
1696959042842061300,9.951061279296875,1.3995494842529297,0.21958601474761963,0.30538618564605713
1696959042852074800,9.96107470703125,1.0640716552734375,0.4072563648223877,0.42860227823257446
1696959042862088400,9.97108837890625,1.364938735961914,-0.270121693611145,0.0536428838968277
1696959042872102100,9.98110205078125,0.7667064666748047,-0.31528377532958984,0.35975056886672974
1696959042882115800,9.99111572265625,-0.5133609771728516,-0.7525118589401245,-0.1603509485721588
1696959042892129500,10.001129638671875,2.1616477966308594,0.361591100692749,0.22467026114463806
1696959042902143000,10.01114306640625,0.5202322006225586,-0.2281423807144165,0.6470983028411865
1696959042912156700,10.02115673828125,1.4531545639038086,0.04325103759765625,1.0075201988220215
1696959042922170400,10.03117041015625,0.8886489868164062,-0.47338593006134033,1.5578539371490479
1696959042932184000,10.04118408203125,0.3682899475097656,-0.930148720741272,0.7401211261749268
1696959042942197800,10.05119775390625,-0.021495819091796875,-0.44066452980041504,0.6163301467895508
1696959042952211200,10.061211181640624,1.0759153366088867,0.2774010896682739,0.20283082127571106
1696959042962225000,10.071224853515625,-0.03210926055908203,-0.2558027505874634,1.1166179180145264
1696959042972238600,10.081238525390624,-0.29184913635253906,-0.6423430442810059,0.4775359034538269
1696959042982252300,10.091252197265625,0.5818557739257812,0.39539361000061035,0.742798388004303
1696959042992266000,10.101265869140626,0.7562046051025391,0.1228863000869751,0.19582810997962952
1696959043002279400,10.111279541015625,-0.8098459243774414,-0.36639559268951416,0.20594356954097748
1696959043012293000,10.121293212890626,-0.9141311645507812,-0.09126198291778564,0.9516429901123047
1696959043022306800,10.131306884765625,0.4823341369628906,-0.28921258449554443,0.13358770310878754
1696959043032320500,10.141320556640625,-0.9679498672485352,-0.04345738887786865,0.43507030606269836
1696959043042334200,10.151334228515625,0.13252639770507812,-0.1326390504837036,0.48984020948410034
1696959043052347600,10.16134765625,-0.2032909393310547,0.5519812107086182,0.45228084921836853
1696959043062361300,10.171361328125,-0.16066837310791016,-0.6292189359664917,-0.27504652738571167
1696959043072375000,10.181375,-2.0776262283325195,-0.10084903240203857,-0.49211084842681885
1696959043082388700,10.191388671875,-0.44385337829589844,0.24480319023132324,0.06878387928009033
1696959043092402400,10.20140234375,-1.289626121520996,-0.04600965976715088,-0.19067685306072235
1696959043102416000,10.211415771484376,0.7197513580322266,-0.4172337055206299,-0.5126692652702332
1696959043112429600,10.2214296875,0.095855712890625,-0.6406192779541016,-0.5564063191413879
1696959043122443300,10.231443359375,-0.48349952697753906,-0.6098452806472778,-0.2487255334854126
1696959043132457000,10.24145703125,0.7687692642211914,0.000244140625,-0.5762172341346741
1696959043142470700,10.251470703125,0.551274299621582,0.4242161512374878,-0.3437671661376953
1696959043152484000,10.261484130859374,-1.1282949447631836,-0.7238246202468872,-0.019436724483966827
1696959043162497800,10.271497802734375,-0.6197957992553711,-0.8451457023620605,-0.1678437888622284
1696959043172511500,10.281511474609376,0.8627738952636719,0.3262566328048706,-0.0032747313380241394
1696959043182525200,10.291525146484375,-1.0756139755249023,0.0820012092590332,-0.23387880623340607
1696959043192539000,10.301538818359376,1.0531644821166992,0.38690996170043945,0.36330199241638184
1696959043202552300,10.31155224609375,-0.9379768371582031,0.5760513544082642,-0.2280130237340927
1696959043212566000,10.32156591796875,-0.40558719635009766,-0.1766442060470581,-0.6439501643180847
1696959043222579700,10.331579833984375,-1.690709114074707,-0.8792625665664673,-0.7838926911354065
1696959043232593400,10.341593505859375,0.00001621246337890625,0.34062254428863525,-0.6396714448928833
1696959043242607000,10.351607177734374,-0.7795028686523438,0.9071846008300781,-0.09162886440753937
1696959043252620500,10.36162060546875,0.59375,0.0813373327255249,-0.6131372451782227
1696959043262634200,10.37163427734375,-1.1860694885253906,0.2424461841583252,0.5468227863311768
1696959043272648000,10.38164794921875,0.4080314636230469,-0.253009557723999,0.10065591335296631
1696959043282661600,10.39166162109375,-1.1467628479003906,0.2309889793395996,-0.39265990257263184
1696959043292675300,10.40167529296875,0.2033519744873047,-0.4167475700378418,-0.7248959541320801
1696959043302689000,10.41168896484375,0.5845537185668945,0.27608251571655273,0.30359095335006714
1696959043312702500,10.421702392578124,-0.43511199951171875,0.044115424156188965,-0.17634674906730652
1696959043322716200,10.431716064453125,0.49748897552490234,0.2336057424545288,-0.4903873801231384
1696959043332729900,10.441729736328124,-2.8685336112976074,-0.3623853921890259,-0.3434715270996094
1696959043342743600,10.45174365234375,-0.34361934661865234,-0.5042446851730347,-1.079521894454956
1696959043352757200,10.46175732421875,-0.4916391372680664,1.2448749542236328,-0.5530134439468384
1696959043362770700,10.471770751953125,0.2257699966430664,0.32739806175231934,-0.8017526865005493
1696959043372784400,10.481784423828126,0.09526538848876953,0.09779226779937744,-0.0465119332075119
1696959043382798000,10.491798095703125,0.7444438934326172,-0.7271347045898438,0.031282469630241394
1696959043392811800,10.501811767578126,0.24477481842041016,0.5406914949417114,0.0937349796295166
1696959043402825500,10.511825439453125,0.16269493103027344,0.7415134906768799,-0.8666814565658569
1696959043412839000,10.5218388671875,-1.6071090698242188,-0.3624497652053833,-0.22487668693065643
1696959043422852600,10.5318525390625,2.5589094161987305,0.24237275123596191,0.2963278293609619
1696959043432866300,10.5418662109375,-1.5529918670654297,-0.7012617588043213,-0.3185923099517822
1696959043442880000,10.5518798828125,1.5756845474243164,0.48919451236724854,0.24132071435451508
1696959043452893700,10.561893798828125,0.6107959747314453,-0.294342041015625,0.2765527367591858
1696959043462907100,10.5719072265625,1.5362215042114258,-0.166764497756958,0.34950265288352966
1696959043472920800,10.5819208984375,-0.6424283981323242,-0.3220027685165405,0.30800899863243103
1696959043482934500,10.5919345703125,1.6195039749145508,-0.3149811029434204,0.31649860739707947
1696959043492948200,10.6019482421875,-1.419473648071289,-0.010659337043762207,0.5167545080184937
1696959043502962000,10.6119619140625,-0.0924386978149414,-0.873386025428772,-0.1460464596748352
1696959043512975400,10.621975341796874,0.47606468200683594,0.25502967834472656,-0.26685523986816406
1696959043522989000,10.631989013671875,0.34088611602783203,-0.6098312139511108,0.14702433347702026
1696959043533002800,10.642002685546874,0.09566593170166016,0.5953160524368286,0.5813882350921631
1696959043543016400,10.652016357421875,0.78350830078125,-0.1942387819290161,0.5216988325119019
1696959043553030100,10.662030029296876,-0.8486080169677734,0.9568837881088257,0.23574315011501312
1696959043563043600,10.672043701171875,0.558354377746582,-0.18689775466918945,0.3137279450893402
1696959043573057300,10.682057373046876,-1.460073471069336,0.43738627433776855,-0.7389198541641235
1696959043583071000,10.692071044921875,-0.2526865005493164,0.17131471633911133,0.13502798974514008
1696959043593084700,10.702084716796875,1.4108400344848633,0.5197253227233887,0.27354875206947327
1696959043603098400,10.712098388671874,-0.8817367553710938,0.23655641078948975,0.4256712794303894
1696959043613111800,10.72211181640625,-0.2822141647338867,0.2639123201370239,0.27772843837738037
1696959043623125500,10.73212548828125,-1.279911994934082,0.5092003345489502,-0.21489106118679047
1696959043633139200,10.74213916015625,0.1760854721069336,0.5409858226776123,-0.2706902325153351
1696959043643153000,10.75215283203125,-0.47849082946777344,-0.33953559398651123,0.21039414405822754
1696959043653166300,10.762166259765625,-0.047046661376953125,-0.45499181747436523,1.0257296562194824
1696959043663180000,10.772179931640625,1.0055961608886719,-0.1544504165649414,-0.3645494282245636
1696959043673193500,10.782193359375,-1.4335498809814453,1.0216538906097412,0.22891223430633545
1696959043683207200,10.792207275390625,0.4682435989379883,0.20499372482299805,-0.18146131932735443
1696959043693220900,10.802220947265624,-1.6921977996826172,0.858978271484375,0.5473835468292236
1696959043703234300,10.812234375,-0.2388458251953125,0.16656839847564697,-0.5056381225585938
1696959043713248000,10.822248046875,-1.5659198760986328,1.169090747833252,-0.3600742816925049
1696959043723261400,10.832261474609375,0.04967689514160156,-0.6768828630447388,-0.2554519474506378
1696959043733275100,10.842275146484376,-1.6269283294677734,0.21324694156646729,-0.9138549566268921
1696959043743288800,10.852288818359375,-0.24543190002441406,0.8453760147094727,-0.23296783864498138
1696959043753302300,10.86230224609375,-1.1710395812988281,0.17259645462036133,-0.05450655519962311
1696959043763316000,10.87231591796875,-0.13456439971923828,0.04486382007598877,-0.13076257705688477
1696959043773329400,10.882329345703125,-2.231046199798584,0.0996694564819336,-1.4659820795059204
1696959043783343000,10.892343017578124,-0.9534387588500977,1.2401901483535767,-0.7295048236846924
1696959043793356800,10.902356689453125,0.6316585540771484,0.18388617038726807,-0.2845191955566406
1696959043803370200,10.912370361328126,0.2632150650024414,-0.7406406402587891,-0.9461948275566101
1696959043813384000,10.922384033203125,-0.6494712829589844,-0.07562267780303955,-0.17719045281410217
1696959043823397400,10.9323974609375,2.16788387298584,1.2276118993759155,0.15830160677433014
1696959043833411000,10.9424111328125,1.695150375366211,0.16696643829345703,0.3993024528026581
1696959043843424800,10.9524248046875,1.0995616912841797,-1.3319321870803833,-0.6315266489982605
1696959043853438200,10.962438232421874,0.662928581237793,-0.5609166622161865,0.5351618528366089
1696959043863452000,10.972451904296875,2.4209985733032227,-0.04979217052459717,0.295895516872406
1696959043873465300,10.98246533203125,1.675480842590332,0.2728438377380371,0.5518406629562378
1696959043883479000,10.99247900390625,0.6880483627319336,-1.3793585300445557,0.403277724981308
1696959043893492700,11.00249267578125,1.4665088653564453,0.15630900859832764,-0.011301830410957336
1696959043903506200,11.012506103515625,1.239419937133789,0.24903500080108643,0.6786178350448608
1696959043913519900,11.022519775390625,2.1217689514160156,-0.12244153022766113,0.8632656931877136
1696959043923533300,11.032533203125,0.7986021041870117,0.1390749216079712,1.6130090951919556
1696959043933547000,11.042547119140625,1.103994369506836,-0.28572094440460205,0.6061909794807434
1696959043943560700,11.052560791015624,0.7390937805175781,0.325588583946228,0.4351687729358673
1696959043953574100,11.06257421875,0.6525516510009766,0.08763265609741211,0.8912006616592407
1696959043963587800,11.072587890625,0.07844829559326172,0.40192317962646484,1.6143466234207153
1696959043973601300,11.082601318359375,1.8956327438354492,-0.3330256938934326,1.226207971572876
1696959043983615000,11.092614990234376,-0.08145523071289062,0.2816404104232788,0.6835296154022217
1696959043993628700,11.102628662109375,0.8662052154541016,0.4412825107574463,1.073722004890442
1696959044003642000,11.11264208984375,1.5487651824951172,0.2131192684173584,1.3803497552871704
1696959044013655800,11.12265576171875,0.41837501525878906,-0.7837876081466675,1.3805841207504272
1696959044023669500,11.13266943359375,0.49044036865234375,-0.7033380270004272,0.2956143319606781
1696959044033683200,11.14268310546875,-0.4651756286621094,0.6051117181777954,0.5998465418815613
1696959044043696600,11.152696533203125,0.2635326385498047,0.8841513395309448,0.861418604850769
1696959044053710300,11.16271044921875,0.4605445861816406,-0.04926800727844238,0.48442792892456055
1696959044063724000,11.17272412109375,-1.7233595848083496,-0.7342467308044434,0.5306010246276855
1696959044073737700,11.18273779296875,0.46643829345703125,0.3637152910232544,0.18469101190567017
1696959044083751400,11.19275146484375,0.08918476104736328,0.3600732088088989,0.13655206561088562
1696959044093765000,11.20276513671875,-0.08620929718017578,-0.815127968788147,-0.775669276714325
1696959044103778600,11.212778564453124,-0.8874168395996094,0.12076544761657715,0.029865160584449768
1696959044113792300,11.222792236328125,0.6552915573120117,-0.8198674917221069,-0.6483336687088013
1696959044123806000,11.232805908203124,-0.061982154846191406,-0.15003621578216553,0.2950723469257355
1696959044133819600,11.242819580078125,1.6844854354858398,-0.6807515621185303,-0.35247284173965454
1696959044143833300,11.252833251953126,-0.6602163314819336,0.013041019439697266,-0.44191160798072815
1696959044153846800,11.2628466796875,-0.9004249572753906,-0.49824345111846924,-0.6046838164329529
1696959044163860500,11.272860595703126,0.44571495056152344,-0.14349210262298584,-0.8437613844871521
1696959044173874200,11.282874267578125,-0.27038097381591797,-0.7926645278930664,-0.759077787399292
1696959044183888000,11.292887939453125,-0.1590423583984375,-0.22577357292175293,-0.6419350504875183
1696959044193901600,11.302901611328124,0.6460771560668945,-0.0527501106262207,-0.4782635569572449
1696959044203915000,11.3129150390625,-0.8553256988525391,-1.2750613689422607,-0.8026571273803711
1696959044213928700,11.3229287109375,0.24253273010253906,-0.9535781145095825,-0.8566202521324158
1696959044223942400,11.3329423828125,0.8546562194824219,-0.04852747917175293,-0.5121415853500366
1696959044233956000,11.3429560546875,-1.8991918563842773,0.023212790489196777,-0.026656702160835266
1696959044243969800,11.3529697265625,1.7574710845947266,-0.9461061954498291,0.2651161849498749
1696959044253983200,11.362983154296876,-0.9266605377197266,-1.030951976776123,0.054507553577423096
1696959044263997000,11.372996826171875,0.7251424789428711,-0.7018148899078369,-0.7902748584747314
1696959044274010600,11.3830107421875,-0.49422550201416016,0.19760680198669434,-0.3592151999473572
1696959044284024300,11.3930244140625,0.08573150634765625,-0.307173490524292,0.09392254054546356
1696959044294038000,11.4030380859375,0.32070350646972656,-0.8365316390991211,-0.4678255021572113
1696959044304051500,11.413051513671874,-1.0273246765136719,-0.9131842851638794,-0.7060519456863403
1696959044314065200,11.423065185546875,-1.138742446899414,-1.1158652305603027,0.2250157594680786
1696959044324078800,11.433078857421876,1.4356498718261719,0.14641237258911133,-0.09927867352962494
1696959044334092500,11.443092529296875,-1.8355956077575684,-0.6907647848129272,-1.106225609779358
1696959044344106200,11.453106201171876,-0.09641170501708984,-0.6559299230575562,-0.26100754737854004
1696959044354119700,11.46311962890625,-0.49662113189697266,-0.9896005392074585,0.21972793340682983
1696959044364133400,11.47313330078125,-0.886937141418457,-0.3576538562774658,0.054652512073516846
1696959044374147000,11.48314697265625,0.02873706817626953,-0.7286593914031982,-0.047652557492256165
1696959044384160800,11.493160888671875,0.4593172073364258,-0.3284878730773926,-0.43922606110572815
1696959044394174500,11.503174560546874,-1.4099493026733398,0.31024134159088135,0.042438626289367676
1696959044404188000,11.51318798828125,0.8399553298950195,-1.6326597929000854,0.020731911063194275
1696959044414201600,11.52320166015625,-1.4366168975830078,-0.5739567279815674,-0.1313571035861969
1696959044424215300,11.53321533203125,0.1633586883544922,-0.40679633617401123,0.2874089479446411
1696959044434229000,11.54322900390625,0.31106090545654297,-0.25305116176605225,1.0746291875839233
1696959044444242700,11.55324267578125,1.9357805252075195,-0.9909360408782959,0.13946372270584106
1696959044454256000,11.563256103515625,-3.0437493324279785,-0.25818467140197754,0.041701540350914
1696959044464269800,11.573269775390624,0.9923372268676758,-0.41939425468444824,0.5192123651504517
1696959044474283500,11.583283447265625,0.010840415954589844,0.2336122989654541,0.42068803310394287
1696959044484297200,11.593297119140624,-1.1980695724487305,-1.0483545064926147,0.38141536712646484
1696959044494311000,11.603310791015625,-0.4349813461303711,-1.36216139793396,0.25338655710220337
1696959044504324400,11.613324462890626,0.784876823425293,0.49031639099121094,0.17478060722351074
1696959044514338000,11.623338134765625,-0.3443431854248047,-0.8181376457214355,-0.22792288661003113
1696959044524351700,11.633351806640626,-1.2656974792480469,-1.562127709388733,0.10865934193134308
1696959044534365400,11.643365478515625,-0.44512939453125,-0.7566647529602051,0.9359583854675293
1696959044544379100,11.653379150390625,-0.21406173706054688,0.35649144649505615,-0.28761887550354004
1696959044554392600,11.663392578125,-0.983006477355957,-0.7141779661178589,-0.7792932987213135
1696959044564406300,11.67340625,0.9121713638305664,-1.6657596826553345,0.5710777044296265
1696959044574420000,11.683419921875,-0.9487237930297852,-1.0661565065383911,0.4227801561355591
1696959044584433400,11.693433349609375,0.9177103042602539,0.43151938915252686,-0.5042462348937988
1696959044594447000,11.703447021484376,0.08417129516601562,-0.3700019121170044,0.054872289299964905
1696959044604460800,11.713460693359375,-0.0015087127685546875,-1.2991617918014526,0.7018131017684937
1696959044614474200,11.72347412109375,-0.17828941345214844,-0.382904052734375,0.2609730064868927
1696959044624488000,11.733488037109375,1.6627979278564453,-0.3379248380661011,-0.018409982323646545
1696959044634501400,11.74350146484375,0.21568584442138672,-0.9982099533081055,0.2758892774581909
1696959044644515000,11.75351513671875,0.6743659973144531,-0.8448185920715332,0.20061057806015015
1696959044654528800,11.76352880859375,1.2658309936523438,-0.40059542655944824,-0.7452786564826965
1696959044664542200,11.773542236328124,-1.1880073547363281,-0.7769595384597778,-0.6946946382522583
1696959044674556000,11.783555908203125,-0.1387166976928711,-1.0322551727294922,0.24167820811271667
1696959044684569300,11.7935693359375,1.033381462097168,-0.6657744646072388,0.3941737413406372
1696959044694583000,11.8035830078125,2.1155776977539062,-0.5107558965682983,0.3620617389678955
1696959044704596700,11.8135966796875,-0.11062431335449219,-0.8071471452713013,-0.41813504695892334
1696959044714610200,11.823610107421874,0.5728769302368164,-1.238979458808899,-0.16145649552345276
1696959044724624000,11.833623779296875,-0.5025835037231445,-0.9074006080627441,-0.19790232181549072
1696959044734637600,11.843637451171874,-0.32921886444091797,-0.39886367321014404,-0.21153217554092407
1696959044744651000,11.853651123046875,-0.4231100082397461,-0.9182033538818359,-0.539781928062439
1696959044754664700,11.863664794921876,1.766775131225586,-1.2605044841766357,-0.044201433658599854
1696959044764678100,11.87367822265625,1.1136112213134766,-0.8141844272613525,0.15981101989746094
1696959044774691800,11.88369189453125,0.012044906616210938,-1.0527446269989014,-0.17213431000709534
1696959044784705500,11.89370556640625,0.9684162139892578,-0.46568238735198975,0.41158151626586914
1696959044794719000,11.903718994140625,1.3636913299560547,-1.0668138265609741,-0.1076798290014267
1696959044804732700,11.913732666015624,-1.9367198944091797,-1.2383525371551514,-0.5342473983764648
1696959044814746000,11.92374609375,1.1080808639526367,-0.8707636594772339,0.2165479063987732
1696959044824759800,11.933759765625,2.425051689147949,-0.41816580295562744,0.5276548862457275
1696959044834773500,11.9437734375,0.36515140533447266,-1.4210684299468994,-0.05178450047969818
1696959044844787000,11.953786865234376,0.7423334121704102,-1.1434136629104614,-0.1274600774049759
1696959044854800600,11.963800537109375,1.8359794616699219,-0.48180580139160156,0.44599753618240356
1696959044864814000,11.97381396484375,-0.026465415954589844,-1.1502254009246826,-0.047274574637413025
1696959044874827800,11.983827880859375,-0.5894556045532227,-0.9891753196716309,-0.42550861835479736
1696959044884841500,11.993841552734375,0.2253427505493164,-1.0965485572814941,0.06414557993412018
1696959044894855000,12.00385498046875,2.2954254150390625,-0.40741920471191406,0.14093199372291565
1696959044904868600,12.01386865234375,-0.9203691482543945,-1.5934938192367554,-0.8121471405029297
1696959044914882000,12.023882080078126,0.2489337921142578,-1.1882195472717285,-0.19819793105125427
1696959044924895700,12.033895751953125,1.6597518920898438,-0.9593909978866577,0.07562842965126038
1696959044934909400,12.043909423828126,-1.2007293701171875,-0.9161884784698486,-0.25542205572128296
1696959044944923000,12.0539228515625,0.15596580505371094,-1.3121438026428223,-0.6891745328903198
1696959044954936600,12.0639365234375,0.3433189392089844,-0.7471383810043335,-0.252638041973114
1696959044964950000,12.073949951171874,0.9607400894165039,-0.9307186603546143,-0.23741261661052704
1696959044974963700,12.083963623046875,-0.794123649597168,-1.0118409395217896,-0.5491673946380615
1696959044984977400,12.093977294921874,1.0160179138183594,-1.0226058959960938,-0.24176543951034546
1696959044994990800,12.103990966796875,-0.2512664794921875,-0.5215809345245361,-0.17949002981185913
1696959045005004500,12.114004638671876,-0.34459686279296875,-1.2115737199783325,-0.5733055472373962
1696959045015018000,12.12401806640625,-0.4185943603515625,-0.6335079669952393,-0.45738738775253296
1696959045025031700,12.13403173828125,0.30094146728515625,-0.687703013420105,-0.34437626600265503
1696959045035045400,12.14404541015625,-0.11868000030517578,-0.6750692129135132,-0.41895556449890137
1696959045045058800,12.154058837890625,-0.6759271621704102,-1.2643123865127563,-0.37088000774383545
1696959045055072500,12.164072509765624,0.5791530609130859,-0.6942222118377686,0.1535320281982422
1696959045065086000,12.1740859375,-0.3140602111816406,-0.8400859832763672,-0.07768861949443817
1696959045075099600,12.184099609375,-1.30157470703125,-1.16766357421875,-0.373494029045105
1696959045085113300,12.19411328125,0.6195478439331055,-0.5843963623046875,0.034927211701869965
1696959045095126800,12.204126708984376,1.4600372314453125,-1.0367618799209595,0.21210895478725433
1696959045105140500,12.214140380859375,-0.549220085144043,-1.9351142644882202,-0.3810742199420929
1696959045115154200,12.224154296875,-1.0109434127807617,-1.278117299079895,-0.354410320520401
1696959045125167900,12.23416796875,1.338998794555664,-0.4816467761993408,0.4826703667640686
1696959045135181300,12.244181396484375,0.13229656219482422,-0.9866533279418945,-0.04473085701465607
1696959045145195000,12.254195068359374,-1.3252029418945312,-1.698317527770996,-0.28146857023239136
1696959045155208700,12.264208740234375,0.776545524597168,-0.9225529432296753,0.28467732667922974
1696959045165222400,12.274222412109374,0.7799739837646484,-0.44512903690338135,0.5458270907402039
1696959045175236000,12.284236083984375,-0.8657522201538086,-1.123575210571289,0.1654565930366516
1696959045185249500,12.29424951171875,0.9477291107177734,-0.44756317138671875,0.4782254993915558
1696959045195263200,12.30426318359375,1.5240631103515625,-0.5058591365814209,0.6014195084571838
1696959045205277000,12.31427685546875,-1.5430679321289062,-1.2355955839157104,0.04717516899108887
1696959045215290600,12.32429052734375,0.19548320770263672,-0.8786801099777222,0.37161019444465637
1696959045225304300,12.33430419921875,0.8353748321533203,-0.5419758558273315,0.8186444640159607
1696959045235317800,12.34431787109375,0.016187667846679688,-1.1382211446762085,0.5814793109893799
1696959045245331500,12.35433154296875,-0.5146255493164062,-0.5891610383987427,0.2881253659725189
1696959045255345200,12.36434521484375,-0.05447101593017578,-0.7696187496185303,0.3038399815559387
1696959045265358800,12.37435888671875,0.6046915054321289,-0.8131524324417114,0.6698737144470215
1696959045275372500,12.38437255859375,0.38858890533447266,-1.8644664287567139,-0.18172189593315125
1696959045285386000,12.394385986328125,-0.9270534515380859,-1.269863247871399,0.4690098762512207
1696959045295399700,12.404399658203126,1.8376235961914062,0.07089543342590332,0.8161678910255432
1696959045305413400,12.414413330078125,-0.35065650939941406,-0.6090472936630249,0.3440689444541931
1696959045315427000,12.424427001953125,-0.8374156951904297,-1.1179789304733276,0.2633059620857239
1696959045325440800,12.434440673828124,0.7082157135009766,-0.957182765007019,1.088106632232666
1696959045335454200,12.4444541015625,1.2087182998657227,-0.631779670715332,0.9832623600959778
1696959045345468000,12.454468017578124,-1.145613670349121,-0.8685504198074341,0.3630000054836273
1696959045355481600,12.464481689453125,0.6495590209960938,-0.8910994529724121,0.6792211532592773
1696959045365495300,12.474495361328126,0.7006654739379883,-0.368374228477478,0.8141996264457703
1696959045375509000,12.484509033203125,-0.3138246536254883,-0.04381859302520752,0.14044977724552155
1696959045385522400,12.4945224609375,-0.10280799865722656,-0.5165224075317383,0.5578345060348511
1696959045395536100,12.5045361328125,0.5526657104492188,-0.8708183765411377,0.6115288734436035
1696959045405549800,12.5145498046875,-1.5942268371582031,-1.007736325263977,0.36358270049095154
1696959045415563500,12.5245634765625,-0.13247394561767578,-0.46091318130493164,0.4446764886379242
1696959045425577200,12.5345771484375,1.717458724975586,-0.06806886196136475,0.9763335585594177
1696959045435590700,12.544590576171874,0.4045867919921875,-0.8355903625488281,0.6350771188735962
1696959045445604400,12.554604248046875,-1.2261161804199219,-0.39267730712890625,0.3155006468296051
1696959045455618000,12.5646181640625,1.4058990478515625,0.09884142875671387,0.6822558641433716
1696959045465631700,12.5746318359375,-0.35558128356933594,-0.6727285385131836,0.4294455051422119
1696959045475645400,12.5846455078125,-1.9315805435180664,-1.435025930404663,-0.2389380931854248
1696959045485659000,12.594658935546875,-0.22990798950195312,-0.3853919506072998,-0.1527981013059616
1696959045495672600,12.604672607421875,0.12949752807617188,-0.05575120449066162,0.5869993567466736
1696959045505686300,12.614686279296874,-0.2862424850463867,-0.13192284107208252,-0.06665436923503876
