time,seconds_elapsed,z,y,x
1696965293253349400,0.176349365234375,0.7026681900024414,0.18818414211273193,0.27992570400238037
1696965293263365400,0.186365478515625,0.9127960205078125,0.4070538878440857,0.12303243577480316
1696965293273383700,0.1963837890625,-1.5047168731689453,-0.26635390520095825,-0.11688194423913956
1696965293283403800,0.20640380859375,1.216170310974121,0.37210893630981445,-0.04333813488483429
1696965293293426000,0.216426025390625,0.0038700103759765625,0.07021152973175049,0.18196803331375122
1696965293303449000,0.226448974609375,-1.193140983581543,0.12290558218955994,-0.27920830249786377
1696965293313473500,0.2364736328125,-0.3579130172729492,-0.3404315114021301,-0.06091009080410004
1696965293323498200,0.246498291015625,1.4565849304199219,0.14253628253936768,-0.12770941853523254
1696965293333523000,0.25652294921875,-1.0142383575439453,-0.06872260570526123,-0.06645944714546204
1696965293343539000,0.2665390625,0.29082679748535156,0.01991879940032959,0.06770361959934235
1696965293353553200,0.27655322265625,0.8839330673217773,0.10032093524932861,0.049663007259368896
1696965293363567400,0.2865673828125,-1.3403520584106445,0.07058638334274292,-0.3192194402217865
1696965293373581600,0.29658154296875,-0.021724700927734375,-0.03258964419364929,0.11306217312812805
1696965293383595800,0.306595703125,1.6485462188720703,0.12657645344734192,0.008880063891410828
1696965293393610200,0.3166103515625,-0.7737951278686523,0.2660159468650818,-0.2279517650604248
1696965293403624400,0.32662451171875,-1.0630006790161133,-0.0787375271320343,-0.044786617159843445
1696965293413638700,0.336638671875,2.300355911254883,0.4506341516971588,0.1360001266002655
1696965293423652900,0.34665283203125,-1.6389970779418945,0.07091221213340759,-0.16158625483512878
1696965293433667000,0.3566669921875,-0.4527750015258789,-0.186929851770401,-0.3615517020225525
1696965293443681300,0.366681396484375,1.536341667175293,0.6604007482528687,0.0828799456357956
1696965293453695500,0.376695556640625,-0.9172782897949219,-0.21758320927619934,-0.43322572112083435
1696965293463709700,0.386709716796875,-1.1599159240722656,0.2572668790817261,-0.2674943804740906
1696965293473724000,0.396723876953125,1.8448877334594727,0.3451400399208069,-0.07515090703964233
1696965293483738000,0.406738037109375,-1.6422796249389648,0.22957569360733032,-0.20163533091545105
1696965293493752300,0.41675244140625,-0.3987741470336914,-0.07033029198646545,-0.2517170310020447
1696965293503766500,0.4267666015625,0.9292507171630859,0.07975387573242188,-0.05736102908849716
1696965293513780700,0.43678076171875,-1.419607162475586,0.2568506598472595,-0.21087956428527832
1696965293523795000,0.446794921875,0.14768314361572266,-0.05342397093772888,-0.08371081948280334
1696965293533809200,0.45680908203125,0.679931640625,0.3829196095466614,-0.14596551656723022
1696965293543823400,0.4668232421875,-0.7791585922241211,0.40594977140426636,-0.17615608870983124
1696965293553837600,0.476837646484375,-0.9925432205200195,0.09193551540374756,0.17556485533714294
1696965293563851800,0.486851806640625,1.4613571166992188,0.37315666675567627,0.07861045002937317
1696965293573866000,0.496865966796875,-0.20049667358398438,0.02590245008468628,-0.022111058235168457
1696965293583880200,0.506880126953125,-1.2152633666992188,0.31019043922424316,0.10479174554347992
1696965293593894400,0.516894287109375,1.6535539627075195,0.24102628231048584,0.14856624603271484
1696965293603908600,0.52690869140625,-0.13471221923828125,0.36887025833129883,0.03489532321691513
1696965293613922800,0.5369228515625,-1.6120052337646484,0.05132383108139038,0.10893400013446808
1696965293623937300,0.546937255859375,1.4601669311523438,0.020867109298706055,0.237619087100029
1696965293633951500,0.556951416015625,-0.1695098876953125,0.384748637676239,0.20255780220031738
1696965293643965700,0.566965576171875,-0.9446239471435547,0.004504382610321045,-0.24109768867492676
1696965293653980000,0.57697998046875,0.4921236038208008,0.22784221172332764,-0.0023375749588012695
1696965293663994000,0.586994140625,0.416839599609375,0.25619977712631226,-0.10456889122724533
1696965293674008300,0.59700830078125,-1.742293357849121,0.14381462335586548,-0.12196642905473709
1696965293684022500,0.6070224609375,0.43850231170654297,-0.008141934871673584,-0.07317544519901276
1696965293694036700,0.61703662109375,0.8443679809570312,0.39862746000289917,0.10063305497169495
1696965293704051000,0.627051025390625,-1.3247385025024414,0.05962848663330078,-0.07884161174297333
1696965293714065200,0.637065185546875,0.5480785369873047,0.14189451932907104,-0.23015031218528748
1696965293724079600,0.64707958984375,-0.10598278045654297,0.22861677408218384,0.27026456594467163
1696965293734093800,0.65709375,-0.9417438507080078,0.18868309259414673,-0.031001269817352295
1696965293744108000,0.66710791015625,0.2140054702758789,-0.07934367656707764,0.020323336124420166
1696965293754122200,0.677122314453125,0.8417882919311523,0.3888545036315918,0.14154110848903656
1696965293764136700,0.68713671875,-1.2400636672973633,0.2454013228416443,-0.1615820825099945
1696965293774151000,0.69715087890625,-0.7438182830810547,0.0723910927772522,-0.013642951846122742
1696965293784165000,0.7071650390625,0.8664531707763672,0.51469886302948,-0.04794064164161682
1696965293794179300,0.717179443359375,-1.4242820739746094,0.07283329963684082,-0.29991263151168823
1696965293804193800,0.72719384765625,-0.17111873626708984,0.07654941082000732,-0.34852802753448486
1696965293814208000,0.7372080078125,-0.2576885223388672,-0.11847102642059326,-0.23777896165847778
1696965293824222200,0.74722216796875,-1.3436002731323242,0.20223593711853027,-0.4259583055973053
1696965293834236400,0.757236328125,0.24815845489501953,-0.11787974834442139,-0.12286925315856934
1696965293844251000,0.7672509765625,0.35337257385253906,0.6354352235794067,0.010195158421993256
1696965293854265000,0.77726513671875,0.25868797302246094,0.13346046209335327,-0.03821766376495361
1696965293864279300,0.787279296875,-1.0906381607055664,0.1141020655632019,0.08240123838186264
1696965293874293500,0.79729345703125,0.6485528945922852,0.1674898862838745,0.2562410235404968
1696965293884308000,0.807307861328125,0.7344779968261719,-0.3126344382762909,0.17511175572872162
1696965293894322200,0.817322265625,-1.0194158554077148,0.18005263805389404,-0.08289685845375061
1696965293904336400,0.82733642578125,2.5911388397216797,0.45535892248153687,-0.05682719498872757
1696965293914350600,0.8373505859375,-1.1490859985351562,0.1279284954071045,0.07257495820522308
1696965293924365000,0.847364990234375,0.08086204528808594,0.025283634662628174,-0.32038646936416626
1696965293934379300,0.857379150390625,0.43952083587646484,-0.18661350011825562,-0.16873466968536377
1696965293944393500,0.8673935546875,-0.5450353622436523,-0.19961506128311157,-0.24681983888149261
1696965293954407700,0.87740771484375,0.6114234924316406,0.10990232229232788,-0.29088306427001953
1696965293964422100,0.887422119140625,0.23036670684814453,-0.027651727199554443,0.22940000891685486
1696965293974436400,0.897436279296875,0.3695363998413086,0.0764191746711731,0.08699750900268555
1696965293984450600,0.907450439453125,-0.44855403900146484,0.18452835083007812,0.06804177165031433
1696965293994464800,0.91746484375,0.1389007568359375,0.013935387134552002,0.38253456354141235
1696965294004479200,0.927479248046875,1.5152368545532227,-0.09995907545089722,0.03511497378349304
1696965294014493400,0.937493408203125,-1.755030632019043,0.03586357831954956,0.2186383306980133
1696965294024507600,0.947507568359375,1.253194808959961,0.3828336000442505,0.2529243230819702
1696965294034521900,0.95752197265625,0.5051259994506836,0.05143618583679199,0.2597549855709076
1696965294044536300,0.967536376953125,-2.1860122680664062,0.062299132347106934,-0.10661677271127701
1696965294054550500,0.977550537109375,0.9221611022949219,0.11246049404144287,0.3237505853176117
1696965294064564700,0.987564697265625,1.7605352401733398,-0.019219815731048584,-0.09965988993644714
1696965294074579000,0.997578857421875,-3.1341934204101562,-0.30289989709854126,-0.17783616483211517
1696965294084593400,1.007593505859375,0.7615947723388672,-0.17493534088134766,-0.022377490997314453
1696965294094607600,1.017607666015625,1.1143770217895508,0.2773405909538269,0.21921035647392273
1696965294104621800,1.027621826171875,-2.338655471801758,-0.0917782187461853,-0.031516335904598236
1696965294114636000,1.037635986328125,1.108621597290039,0.023743808269500732,0.3154001533985138
1696965294124650500,1.047650390625,0.9552717208862305,0.17890387773513794,0.4908410310745239
1696965294134664700,1.057664794921875,-1.1927576065063477,-0.19616293907165527,0.29253506660461426
1696965294144679000,1.067678955078125,0.3747425079345703,-0.11297672986984253,0.1913241744041443
1696965294154693000,1.077693115234375,0.4520273208618164,0.17640936374664307,0.4053042232990265
1696965294164707600,1.08770751953125,-0.8756589889526367,0.17219632863998413,0.11100013554096222
1696965294174721800,1.0977216796875,0.3426856994628906,0.14050763845443726,-0.04812043905258179
1696965294184736000,1.107736083984375,0.27794933319091797,0.06900161504745483,0.24794477224349976
1696965294194750200,1.117750244140625,-1.1002998352050781,-0.01686626672744751,-0.06428738683462143
1696965294204764700,1.1277646484375,-0.6484746932983398,-0.03121352195739746,-0.17892494797706604
1696965294214779000,1.13777880859375,-0.034476280212402344,0.3013501763343811,-0.007516294717788696
1696965294224793300,1.14779345703125,-0.5655012130737305,0.03967994451522827,-0.19409120082855225
1696965294234807600,1.1578076171875,-1.1674976348876953,-0.16723841428756714,-0.1742236167192459
1696965294244822000,1.167822021484375,0.4667034149169922,0.22273683547973633,-0.19065392017364502
1696965294254836200,1.177836181640625,-0.4343147277832031,0.09231501817703247,-0.1705644428730011
1696965294264850400,1.187850341796875,-0.41141605377197266,-0.04109752178192139,-0.22063525021076202
1696965294274865000,1.197864990234375,-0.1699838638305664,-0.020385682582855225,-0.1356819123029709
1696965294284879000,1.207879150390625,0.2683591842651367,0.1363236904144287,-0.132963165640831
1696965294294893600,1.2178935546875,-1.0584697723388672,0.09785711765289307,-0.1485476940870285
1696965294304907800,1.22790771484375,0.8786153793334961,-0.18994325399398804,-0.3262667655944824
1696965294314922200,1.237922119140625,0.18297195434570312,-0.061928749084472656,-0.36522626876831055
1696965294324936400,1.2479365234375,-1.3386497497558594,-0.20238804817199707,-0.45078831911087036
1696965294334951000,1.257950927734375,1.7889471054077148,0.06423604488372803,-0.4887070655822754
1696965294344965000,1.267965087890625,-1.0663986206054688,-0.1412908434867859,-0.31628841161727905
1696965294354979300,1.277979248046875,-0.734553337097168,0.07105273008346558,-0.3490433096885681
1696965294364993800,1.287993896484375,1.4477930068969727,-0.3070148229598999,-0.12725292146205902
1696965294375008000,1.298008056640625,-0.4120664596557617,0.00024503469467163086,-0.3934236764907837
1696965294385022500,1.3080224609375,-0.4561290740966797,-0.23274457454681396,-0.3710513710975647
1696965294395036700,1.31803662109375,1.538783073425293,0.08684778213500977,-0.058216772973537445
1696965294405051100,1.328051025390625,0.3483409881591797,-0.07150012254714966,-0.04157298803329468
1696965294415065300,1.3380654296875,-1.108724594116211,-0.3370201587677002,-0.16702055931091309
1696965294425079800,1.348079833984375,1.8992843627929688,-0.325311541557312,0.4428761303424835
1696965294435094000,1.358093994140625,1.7659492492675781,0.07146602869033813,0.19263604283332825
1696965294445108200,1.368108154296875,-0.6337060928344727,-0.7321174144744873,0.0003400146961212158
1696965294455122700,1.378122802734375,1.7052059173583984,-0.20655417442321777,0.5164503455162048
1696965294465137000,1.388136962890625,2.63893985748291,-0.15177935361862183,0.2078896164894104
1696965294475151400,1.3981513671875,-1.9592533111572266,-0.8544731140136719,0.19850392639636993
1696965294485165600,1.40816552734375,2.7482728958129883,-0.9595494270324707,0.8444668650627136
1696965294495180000,1.418179931640625,3.1423330307006836,-0.9261918067932129,0.6922296285629272
1696965294505194200,1.4281943359375,-1.7499370574951172,-0.9113680124282837,0.0440811812877655
1696965294515208700,1.438208740234375,3.099440574645996,-0.8194969296455383,0.3873341679573059
1696965294525223000,1.448222900390625,2.711663246154785,-0.43712082505226135,0.7136363387107849
1696965294535237400,1.4582373046875,-0.746063232421875,-1.5545618534088135,0.1977304071187973
1696965294545251600,1.46825146484375,2.3751220703125,-1.0955206155776978,0.9006946682929993
1696965294555265800,1.478265869140625,3.852783203125,-0.9922175407409668,0.6919789910316467
1696965294565280300,1.4882802734375,-0.9826478958129883,-1.1604514122009277,-0.10799891501665115
1696965294575294500,1.49829443359375,3.363109588623047,-1.1561965942382812,0.48394468426704407
1696965294585308700,1.50830859375,4.097535133361816,-0.9531100392341614,0.5622546076774597
1696965294595323000,1.518322998046875,-1.7861661911010742,-1.276423692703247,0.04396694898605347
1696965294605337300,1.52833740234375,2.9987401962280273,-1.0399143695831299,0.5838790535926819
1696965294615351600,1.5383515625,4.0982513427734375,-0.7939844131469727,0.8667404651641846
1696965294625365800,1.54836572265625,-1.5524311065673828,-0.5545539855957031,-0.062380313873291016
1696965294635380000,1.5583798828125,2.018378257751465,-0.974628210067749,0.4013370871543884
1696965294645394400,1.56839453125,2.520671844482422,-0.23843860626220703,0.5854756832122803
1696965294655408600,1.57840869140625,-2.6433305740356445,-0.17747867107391357,-0.2193925678730011
1696965294665422800,1.5884228515625,-0.02649211883544922,-0.10410374402999878,0.14269377291202545
1696965294675437000,1.59843701171875,1.313279151916504,0.11653482913970947,0.7145557403564453
1696965294685451500,1.608451416015625,-3.2674384117126465,-0.4367640018463135,0.062437012791633606
1696965294695465700,1.6184658203125,-1.388833999633789,0.20776128768920898,0.11033187806606293
1696965294705480000,1.62847998046875,-0.45430469512939453,0.2097259759902954,0.3180934488773346
1696965294715494100,1.638494140625,-4.2052178382873535,0.6939414739608765,0.10107368230819702
1696965294725508600,1.648508544921875,-2.2926597595214844,1.0685144662857056,-0.5587832927703857
1696965294735522800,1.658522705078125,-1.9857196807861328,0.58275306224823,0.30931907892227173
1696965294745537000,1.668537109375,-3.571826457977295,0.45547401905059814,1.15255606174469
1696965294755551200,1.67855126953125,-3.129427433013916,0.34283554553985596,0.3566754460334778
1696965294765565700,1.688565673828125,-3.999086856842041,0.9447842836380005,0.39458969235420227
1696965294775580000,1.698579833984375,-3.621549606323242,1.234484076499939,-0.05702587217092514
1696965294785594000,1.708593994140625,-4.117369651794434,1.3621842861175537,-0.1579584926366806
1696965294795608300,1.7186083984375,-4.301542282104492,1.1143064498901367,0.05799643695354462
1696965294805622800,1.728622802734375,-4.570877552032471,0.4717525243759155,0.41100654006004333
1696965294815637000,1.738636962890625,-5.166975021362305,0.6493446826934814,0.5046777129173279
1696965294825651200,1.748651123046875,-4.517827987670898,1.3290997743606567,-0.005411844700574875
1696965294835665400,1.75866552734375,-4.791506767272949,0.9884916543960571,-0.8629158139228821
1696965294845679900,1.768679931640625,-5.144723892211914,0.8454047441482544,-0.7323529720306396
1696965294855694000,1.778694091796875,-4.401966571807861,0.5947810411453247,-1.1363296508789062
1696965294865708300,1.788708251953125,-4.253756046295166,0.2702779769897461,-1.3294284343719482
1696965294875722500,1.798722412109375,-5.254269123077393,0.4892997741699219,-1.1397662162780762
1696965294885737000,1.808737060546875,-3.997440814971924,0.9316539764404297,-1.0467902421951294
1696965294895751200,1.818751220703125,-3.1144323348999023,0.8688532114028931,-1.0614609718322754
1696965294905765400,1.828765380859375,-4.108465671539307,0.4527026414871216,-0.9881265759468079
1696965294915779600,1.838779541015625,-2.2065038681030273,0.40528571605682373,-0.7724785208702087
1696965294925794000,1.8487939453125,-0.4668903350830078,0.8171796798706055,-0.901536762714386
1696965294935808300,1.858808349609375,-3.0584158897399902,0.2209792137145996,-0.3378109037876129
1696965294945822500,1.868822509765625,0.43807315826416016,0.36772096157073975,-0.3310171663761139
1696965294955836700,1.878836669921875,-0.7049655914306641,0.7076159715652466,-0.1066942811012268
1696965294965851000,1.888850830078125,-0.9521150588989258,-0.351565957069397,-0.5559980273246765
1696965294975865300,1.898865234375,0.8613414764404297,-0.1366196870803833,-0.2911929488182068
1696965294985879600,1.908879638671875,1.2492990493774414,-0.09417694807052612,-0.18224292993545532
1696965294995894000,1.91889404296875,0.3828420639038086,-0.07828867435455322,-0.3290773630142212
1696965295005908200,1.928908203125,0.16848373413085938,-0.4602046310901642,-0.030183563008904457
1696965295015922700,1.938922607421875,3.324686050415039,-0.04398798942565918,-0.04873951897025108
1696965295025937000,1.94893701171875,-0.6307163238525391,-0.42281320691108704,-0.1247846931219101
1696965295035951000,1.958951171875,1.624037742614746,-0.22371381521224976,0.45234525203704834
1696965295045965600,1.968965576171875,4.649721145629883,-0.440477579832077,0.35050830245018005
1696965295055979800,1.978979736328125,-0.1847696304321289,0.2790200710296631,-0.1404573917388916
1696965295065994200,1.988994140625,2.101938247680664,-0.6332834959030151,0.3584088981151581
1696965295076008400,1.999008544921875,4.934820175170898,0.3692651391029358,0.918990969657898
1696965295086023000,2.00902294921875,1.767538070678711,-0.18458271026611328,0.0436466708779335
1696965295096037000,2.019037109375,0.9133462905883789,-0.50243079662323,0.29482874274253845
1696965295106051600,2.029051513671875,5.840606689453125,0.02169966697692871,0.9945319890975952
1696965295116065800,2.039065673828125,2.888577461242676,0.14924418926239014,-0.26286911964416504
1696965295126080000,2.049080078125,0.1701831817626953,-0.9085001945495605,0.000046133995056152344
1696965295136094500,2.059094482421875,6.932269096374512,0.09756237268447876,1.0530974864959717
1696965295146108700,2.069108642578125,2.9220333099365234,0.007471024990081787,0.3904483914375305
1696965295156123100,2.079123046875,0.01770782470703125,-0.6514142751693726,-0.2204301953315735
1696965295166137300,2.089137451171875,6.691072463989258,-0.19258198142051697,0.8319439888000488
1696965295176151800,2.09915185546875,3.516423225402832,-0.16186478734016418,0.2512142062187195
1696965295186166000,2.109166015625,0.5907497406005859,-0.2955334484577179,-0.37921297550201416
1696965295196180500,2.119180419921875,4.85439395904541,-0.49416258931159973,0.43593961000442505
1696965295206194700,2.129194580078125,3.6582298278808594,0.03980088233947754,0.43147581815719604
1696965295216209200,2.139209228515625,-0.054431915283203125,-0.033446550369262695,-0.4689790606498718
1696965295226223400,2.149223388671875,2.6777124404907227,-0.6518115997314453,0.20503254234790802
1696965295236237600,2.159237548828125,4.319561958312988,-0.07315337657928467,0.2215537130832672
1696965295246252000,2.169251953125,-0.8021926879882812,0.21192044019699097,-0.5741779804229736
1696965295256266200,2.179266357421875,0.9084482192993164,-0.7019105553627014,-0.5921476483345032
1696965295266280700,2.18928076171875,2.068312644958496,0.32087355852127075,0.597178041934967
1696965295276295000,2.199294921875,1.000309944152832,-0.4265174865722656,-0.9763240814208984
1696965295286309400,2.209309326171875,-1.6740484237670898,0.13921749591827393,-0.5336782336235046
1696965295296323600,2.219323486328125,2.158257484436035,-0.24392828345298767,0.4267615079879761
1696965295306338000,2.229338134765625,0.7853145599365234,-0.44312816858291626,-0.4026113748550415
1696965295316352300,2.239352294921875,-2.2746896743774414,0.297307550907135,-0.7332338094711304
1696965295326366500,2.249366455078125,2.6146411895751953,-0.18892520666122437,-0.0997665673494339
1696965295336381000,2.259380859375,-0.42470455169677734,-0.02512747049331665,0.03059576451778412
1696965295346395100,2.26939501953125,-0.9900836944580078,-0.39521950483322144,-0.41058480739593506
1696965295356409600,2.27940966796875,0.8749732971191406,-0.061802566051483154,0.11378923058509827
1696965295366423800,2.289423828125,0.19417285919189453,0.08483660221099854,0.15060637891292572
1696965295376438300,2.299438232421875,-1.3276262283325195,-0.10335129499435425,-0.37931203842163086
1696965295386452500,2.309452392578125,0.46219444274902344,-0.1756322979927063,-0.1633642017841339
1696965295396467000,2.319467041015625,0.7324314117431641,0.038404762744903564,-0.25290724635124207
1696965295406481200,2.329481201171875,-2.008340358734131,-0.3084774911403656,-0.3603423237800598
1696965295416495400,2.339495361328125,-0.17749500274658203,-0.3245503008365631,-0.21319039165973663
1696965295426509800,2.349509765625,0.29093074798583984,-0.0921710729598999,-0.3360629081726074
1696965295436524000,2.35952392578125,-1.165140151977539,-0.1395035982131958,-0.34510451555252075
1696965295446538500,2.36953857421875,0.07985305786132812,-0.5969949960708618,-0.3084072470664978
1696965295456552700,2.379552734375,-0.11606407165527344,-0.21229863166809082,-0.15262170135974884
1696965295466567200,2.389567138671875,-1.4467887878417969,-0.6164908409118652,-0.5486818552017212
1696965295476581400,2.399581298828125,-0.12439155578613281,-0.21078944206237793,-0.30832117795944214
1696965295486595800,2.409595947265625,0.8584108352661133,-0.1366165280342102,-0.21033665537834167
1696965295496610000,2.419610107421875,-1.2112550735473633,-0.0726163387298584,-0.3886159062385559
1696965295506624500,2.42962451171875,-0.8921318054199219,-0.7787027359008789,-0.31565791368484497
1696965295516638700,2.439638671875,0.5994577407836914,-0.36938196420669556,-0.3281858563423157
1696965295526653000,2.44965283203125,-0.5392723083496094,-0.08839136362075806,-0.19653230905532837
1696965295536667400,2.45966748046875,-0.11807441711425781,-0.2350100576877594,-0.30225813388824463
1696965295546681600,2.469681640625,-0.48108577728271484,-0.16601547598838806,-0.08120683580636978
1696965295556696000,2.479696044921875,-0.5134773254394531,-0.4488812983036041,-0.3417040705680847
1696965295566710300,2.489710205078125,-0.48851776123046875,0.005626022815704346,0.017443910241127014
1696965295576724700,2.499724853515625,1.3397607803344727,-0.36640575528144836,-0.11931512504816055
1696965295586739000,2.509739013671875,-1.104635238647461,-0.04895550012588501,0.18715892732143402
1696965295596753400,2.51975341796875,-0.7435092926025391,-0.10186967253684998,0.19112683832645416
1696965295606767600,2.529767578125,0.12230777740478516,-0.18928202986717224,0.5019658803939819
1696965295616781800,2.53978173828125,0.06350040435791016,-0.3641485869884491,0.4738721549510956
1696965295626796300,2.54979638671875,-0.7343626022338867,-0.3178277313709259,0.4757501780986786
1696965295636810500,2.559810546875,-0.26952171325683594,-0.08204567432403564,0.5676378607749939
1696965295646825000,2.569824951171875,0.6851644515991211,-0.44351160526275635,0.2533632814884186
1696965295656839200,2.579839111328125,-1.723191261291504,-0.27533242106437683,0.2325831949710846
1696965295666853600,2.589853515625,0.14871883392333984,-0.4667159914970398,0.48645496368408203
1696965295676867800,2.599867919921875,0.1810626983642578,-0.20192918181419373,0.8131348490715027
1696965295686882300,2.60988232421875,-0.7602672576904297,-0.7342602014541626,0.3685031533241272
1696965295696896500,2.619896484375,-1.1346549987792969,-0.574037492275238,0.7330188751220703
1696965295706911000,2.629910888671875,1.5273962020874023,-0.256884902715683,0.7955520153045654
1696965295716925200,2.63992529296875,-1.6091804504394531,-0.39632824063301086,0.5279313325881958
1696965295726939400,2.649939453125,-1.536574363708496,-0.509597897529602,0.7327290773391724
1696965295736953900,2.659953857421875,1.604762077331543,-0.4374917149543762,1.0759632587432861
1696965295746968000,2.669968017578125,-1.503556251525879,-0.641897976398468,0.565089762210846
1696965295756982500,2.679982421875,-1.8796253204345703,-0.44130033254623413,0.3803677260875702
1696965295766996700,2.689996826171875,0.6809701919555664,-0.3074192404747009,0.6748937964439392
1696965295777011200,2.70001123046875,-0.6958484649658203,-0.4627787470817566,0.28130245208740234
1696965295787025400,2.710025390625,-2.6496787071228027,-0.7070950269699097,-0.4784792959690094
1696965295797039900,2.720039794921875,-0.6060276031494141,-0.4783080816268921,-0.4937779903411865
1696965295807054000,2.73005419921875,-0.22595882415771484,-0.34353309869766235,-0.5465022921562195
1696965295817068300,2.740068359375,-2.9113759994506836,-0.6785932779312134,-0.9570137858390808
1696965295827082800,2.750082763671875,-0.8711357116699219,-0.3983187675476074,-1.1546764373779297
1696965295837097000,2.760096923828125,0.23597145080566406,0.06252092123031616,-1.0377693176269531
1696965295847111400,2.770111328125,-2.95672607421875,-0.3326474130153656,-1.1691503524780273
1696965295857125600,2.780125732421875,-0.7393217086791992,-0.7458111047744751,-1.2465604543685913
1696965295867140000,2.79014013671875,-0.028406143188476562,0.02740687131881714,-1.0847094058990479
1696965295877154300,2.800154296875,-1.3916215896606445,0.2018328309059143,-1.4791929721832275
1696965295887168800,2.810168701171875,-0.5446491241455078,-0.22797903418540955,-1.433356523513794
1696965295897183000,2.820182861328125,0.04645252227783203,0.22416120767593384,-0.5360763669013977
1696965295907197200,2.830197265625,-0.29052734375,-0.40788668394088745,-1.3239121437072754
1696965295917211600,2.840211669921875,-1.8051462173461914,0.3779125213623047,-1.7456234693527222
1696965295927225900,2.850225830078125,0.10783958435058594,-0.48766303062438965,-1.2109276056289673
1696965295937240300,2.860240234375,0.5299720764160156,0.3079826235771179,-0.9979301691055298
1696965295947254500,2.870254638671875,-1.2313098907470703,-0.3533543646335602,-1.4955177307128906
1696965295957269000,2.88026904296875,0.3123502731323242,0.05616515874862671,-1.5673013925552368
1696965295967283200,2.890283203125,-0.4266242980957031,0.05489605665206909,-1.2551913261413574
1696965295977297700,2.900297607421875,-0.5806684494018555,0.20794004201889038,-1.0515313148498535
1696965295987311900,2.910311767578125,-0.3620643615722656,-0.2521950602531433,-0.7167338728904724
1696965295997326300,2.920326416015625,1.1783246994018555,0.816163182258606,-1.0636317729949951
1696965296007340500,2.930340576171875,-0.3899421691894531,0.16797304153442383,-0.785874605178833
1696965296017354800,2.940354736328125,0.7345657348632812,0.42520517110824585,-0.4559253454208374
1696965296027369200,2.950369140625,1.5833473205566406,0.6793649196624756,-0.6474542617797852
1696965296037383400,2.960383544921875,-0.2159099578857422,0.8670281171798706,-0.3217044472694397
1696965296047398000,2.97039794921875,0.8358612060546875,0.2593443989753723,-0.15499842166900635
1696965296057412000,2.980412109375,1.7364397048950195,1.401827335357666,0.05497422814369202
1696965296067426600,2.990426513671875,0.7858343124389648,0.4106651544570923,-0.3921940326690674
1696965296077440800,3.000440673828125,0.5496587753295898,1.0622440576553345,0.07871854305267334
1696965296087455200,3.010455322265625,2.753725051879883,0.8277091979980469,-0.055024728178977966
1696965296097469400,3.020469482421875,-0.5302619934082031,1.4323338270187378,0.053732484579086304
1696965296107483600,3.030483642578125,1.862640380859375,0.9638885259628296,0.3363912105560303
1696965296117498000,3.040498046875,2.1479835510253906,0.855032205581665,0.705786943435669
1696965296127512300,3.05051220703125,-0.28070068359375,0.9825447797775269,0.4818284511566162
1696965296137526800,3.06052685546875,1.338322639465332,1.0218292474746704,0.4746589958667755
1696965296147541000,3.070541015625,1.7293691635131836,0.954115629196167,0.896967351436615
1696965296157555500,3.080555419921875,1.0976200103759766,0.997911810874939,0.3944593667984009
1696965296167569700,3.090569580078125,-0.7836036682128906,0.6650165319442749,0.7260182499885559
1696965296177584000,3.100584228515625,2.6319408416748047,0.8510382175445557,0.9215224981307983
1696965296187598300,3.110598388671875,0.27356529235839844,0.16382229328155518,0.5903390645980835
1696965296197612800,3.12061279296875,-1.481083869934082,0.4625245928764343,0.46665042638778687
1696965296207627000,3.130626953125,2.1565723419189453,0.4243103265762329,0.37593603134155273
1696965296217641200,3.14064111328125,-0.3915128707885742,0.6390842795372009,0.5346065759658813
1696965296227655700,3.15065576171875,-0.3150501251220703,-0.16216826438903809,-0.1996879130601883
1696965296237670000,3.160669921875,-0.34839725494384766,0.14372891187667847,0.5991318225860596
1696965296247684000,3.17068408203125,1.2991743087768555,0.059142470359802246,0.3231053650379181
1696965296257698300,3.1806982421875,-1.7474699020385742,-0.16504240036010742,-0.21502147614955902
1696965296267712800,3.190712646484375,0.2575979232788086,-0.10554242134094238,-0.17525339126586914
1696965296277727000,3.20072705078125,0.9200925827026367,0.014207541942596436,0.20418667793273926
1696965296287741200,3.2107412109375,-1.8965301513671875,-0.17171329259872437,-0.2997329533100128
1696965296297755400,3.22075537109375,0.8162689208984375,-0.5037436485290527,-0.3628864884376526
1696965296307769900,3.230769775390625,-0.34249401092529297,-0.19637912511825562,0.0680236965417862
1696965296317784000,3.2407841796875,-1.1158723831176758,-0.596774697303772,-0.779801070690155
1696965296327798300,3.25079833984375,0.8689546585083008,-0.24852663278579712,-0.649612307548523
1696965296337812500,3.2608125,-0.5287723541259766,-0.31420207023620605,-0.44554978609085083
1696965296347827000,3.270826904296875,-0.9240207672119141,-0.4215174615383148,-0.7846270799636841
1696965296357841200,3.280841064453125,-0.1337270736694336,-0.680293083190918,-0.5525586009025574
1696965296367855400,3.29085546875,0.6401453018188477,-0.44098028540611267,-0.4827069938182831
1696965296377869600,3.30086962890625,-2.0413742065429688,-0.28414297103881836,-0.754054069519043
1696965296387884000,3.310884033203125,0.5242671966552734,-0.6953986883163452,-0.846118152141571
1696965296397898200,3.320898193359375,0.44151878356933594,-0.31676924228668213,-0.447121262550354
1696965296407912400,3.330912353515625,-1.327230453491211,-0.3031175136566162,-0.7043412327766418
1696965296417926700,3.3409267578125,-0.5162143707275391,-0.5809701085090637,-0.7305862903594971
1696965296427941000,3.350941162109375,0.7509698867797852,-0.4056003987789154,-0.5927218198776245
1696965296437955300,3.360955322265625,-1.0517778396606445,-0.6408484578132629,-0.6283349394798279
1696965296447969500,3.370969482421875,-0.8530197143554688,-0.1622263789176941,-0.66707843542099
1696965296457983700,3.380983642578125,1.7623910903930664,-0.3783952295780182,-0.6944682598114014
1696965296467998200,3.390998291015625,-1.8965158462524414,-0.13385534286499023,-0.5062962174415588
1696965296478012400,3.401012451171875,-0.5727987289428711,-0.7218371629714966,-0.5237666964530945
1696965296488026600,3.411026611328125,0.9194974899291992,0.0835450291633606,-0.36210405826568604
1696965296498040800,3.421040771484375,-0.7786178588867188,-0.28323984146118164,-0.5689667463302612
1696965296508055300,3.43105517578125,-0.804901123046875,-0.16876816749572754,-0.378595232963562
1696965296518069500,3.441069580078125,1.4808273315429688,0.1645793914794922,0.06421889364719391
1696965296528083700,3.451083740234375,-1.0021047592163086,0.10022944211959839,-0.4116249680519104
1696965296538098000,3.461097900390625,-1.5055198669433594,-0.21954983472824097,-0.40601032972335815
1696965296548112400,3.4711123046875,1.7901811599731445,0.09983676671981812,0.04489852488040924
1696965296558126600,3.481126708984375,-0.8559999465942383,0.1157451868057251,-0.16338397562503815
1696965296568140800,3.491140869140625,-0.1896371841430664,0.24651718139648438,-0.461361825466156
1696965296578155300,3.5011552734375,1.5644025802612305,0.2977362275123596,0.2553229331970215
1696965296588169500,3.51116943359375,-1.7740287780761719,-0.08973395824432373,-0.08971835672855377
1696965296598184000,3.521183837890625,-0.5412321090698242,-0.022119879722595215,-0.06681525707244873
1696965296608198100,3.5311982421875,1.7201471328735352,0.5622371435165405,-0.14368070662021637
1696965296618212400,3.54121240234375,-1.1121997833251953,0.2427346110343933,-0.2850574254989624
1696965296628226800,3.551226806640625,0.14710712432861328,-0.3663545548915863,-0.15163075923919678
1696965296638241000,3.561240966796875,1.2985639572143555,0.7022066712379456,-0.05890263617038727
1696965296648255500,3.57125537109375,-1.9676284790039062,0.21876287460327148,0.019724100828170776
1696965296658269700,3.581269775390625,1.05706787109375,0.18133872747421265,-0.15865078568458557
1696965296668284200,3.5912841796875,0.7536373138427734,0.4749528169631958,0.10643909871578217
1696965296678298400,3.60129833984375,-1.178339958190918,0.3430064916610718,-0.014446690678596497
1696965296688312800,3.611312744140625,2.0448989868164062,0.6048442721366882,-0.04520463943481445
1696965296698327000,3.6213271484375,-1.1610536575317383,0.13682693243026733,0.04081542789936066
1696965296708341200,3.63134130859375,0.11280250549316406,0.6412645578384399,0.040169909596443176
1696965296718355700,3.641355712890625,0.8342819213867188,0.5291807055473328,-0.2315669059753418
1696965296728370000,3.651369873046875,-0.9784688949584961,0.3159754276275635,-0.4095740020275116
1696965296738384400,3.66138427734375,1.016434669494629,0.5346789956092834,0.12158282101154327
1696965296748398600,3.671398681640625,-0.41451072692871094,0.5055817365646362,-0.004858434200286865
1696965296758413000,3.6814130859375,0.3272275924682617,0.5376519560813904,-0.22132079303264618
1696965296768427300,3.69142724609375,-0.5907535552978516,0.38504737615585327,-0.14177657663822174
1696965296778441700,3.701441650390625,0.6626253128051758,0.5997362732887268,-0.17623445391654968
1696965296788456000,3.7114560546875,-0.40912914276123047,0.5707638263702393,-0.0724242776632309
1696965296798470400,3.721470458984375,-0.3220701217651367,0.7616769671440125,-0.20735204219818115
1696965296808484600,3.731484619140625,0.6632661819458008,0.9192235469818115,0.24509435892105103
1696965296818498800,3.741498779296875,-1.3069629669189453,0.31014472246170044,0.00022841989994049072
1696965296828513300,3.75151318359375,1.1141834259033203,0.7398384213447571,-0.14654825627803802
1696965296838527500,3.761527587890625,-1.492452621459961,0.7726035714149475,-0.005763545632362366
1696965296848542000,3.7715419921875,1.1583080291748047,0.8889350891113281,-0.11128641664981842
1696965296858556200,3.78155615234375,-0.8845300674438477,0.4847257733345032,-0.2685198187828064
1696965296868570600,3.791570556640625,0.30249500274658203,1.0661444664001465,-0.05599084496498108
1696965296878584800,3.801584716796875,-0.15181732177734375,0.5616368651390076,-0.4109548032283783
1696965296888599300,3.811599365234375,-1.322077751159668,0.48564839363098145,-0.4741373658180237
1696965296898613500,3.821613525390625,0.5687999725341797,0.8707148432731628,-0.1521092653274536
1696965296908627700,3.831627685546875,-0.020211219787597656,1.0443238019943237,-0.6991122961044312
1696965296918642200,3.84164208984375,-0.41191577911376953,0.6728413105010986,-0.45461714267730713
1696965296928656400,3.851656494140625,-0.9173393249511719,0.35118377208709717,-0.5347286462783813
1696965296938670800,3.8616708984375,0.6332540512084961,1.1821484565734863,-0.19629725813865662
1696965296948685000,3.87168505859375,-0.1136770248413086,0.5705616474151611,-0.5159363746643066
1696965296958699500,3.881699462890625,-0.5338668823242188,0.7224343419075012,-0.15877626836299896
1696965296968713700,3.891713623046875,0.9344215393066406,0.7168482542037964,-0.6345136165618896
1696965296978728200,3.901728271484375,-1.1319189071655273,0.5205351710319519,-0.6017814874649048
1696965296988742400,3.911742431640625,0.5668649673461914,1.2079341411590576,-0.11223876476287842
1696965296998756900,3.9217568359375,0.31265735626220703,0.42528802156448364,-0.5226713418960571
1696965297008771000,3.93177099609375,-1.1266489028930664,0.9484020471572876,-0.41886937618255615
1696965297018785300,3.941785400390625,1.2702007293701172,0.4536702036857605,-0.3368931710720062
1696965297028799700,3.9517998046875,-1.442270278930664,0.8288883566856384,-0.45885151624679565
1696965297038814000,3.96181396484375,1.4856796264648438,0.8585596680641174,-0.8334209322929382
1696965297048828400,3.971828369140625,-1.0839881896972656,0.30760979652404785,-0.3438861072063446
1696965297058842600,3.981842529296875,0.08932304382324219,0.9510305523872375,-0.40418246388435364
1696965297068857000,3.991857177734375,0.6530876159667969,0.5599516034126282,-0.6104598641395569
1696965297078871300,4.001871337890625,-0.906219482421875,0.5804219245910645,-0.4789144694805145
1696965297088885800,4.0118857421875,-0.12531089782714844,0.6968470811843872,-0.5787794589996338
1696965297098900000,4.02189990234375,1.0843420028686523,0.9783404469490051,-0.42107248306274414
1696965297108914200,4.0319140625,-0.5336179733276367,0.3261253237724304,-0.5568491220474243
1696965297118928600,4.0419287109375,-0.23583221435546875,0.7343735098838806,-0.4185585379600525
1696965297128942800,4.05194287109375,0.19953632354736328,0.41323667764663696,-0.4657903015613556
1696965297138957300,4.061957275390625,0.03693866729736328,0.8722784519195557,-0.4152970314025879
1696965297148971500,4.071971435546875,-0.025321006774902344,0.4209215044975281,-0.4156310260295868
1696965297158986000,4.081986083984375,-0.2590618133544922,0.7796849608421326,-0.4902117848396301
1696965297169000200,4.092000244140625,0.4249238967895508,0.34840601682662964,-0.6410074830055237
1696965297179014700,4.1020146484375,-0.8086261749267578,1.3069934844970703,0.07313878834247589
1696965297189028900,4.11202880859375,0.9948625564575195,0.25096595287323,-0.7292847037315369
1696965297199043000,4.12204296875,-0.9231939315795898,1.0395046472549438,-0.35911136865615845
1696965297209057500,4.1320576171875,0.8181972503662109,0.6167287826538086,-0.5181657671928406
1696965297219071700,4.14207177734375,-0.6405973434448242,0.68739914894104,-0.300637811422348
1696965297229086200,4.152086181640625,1.04754638671875,0.982558012008667,-0.22368910908699036
1696965297239100400,4.162100341796875,-0.21582698822021484,0.4727895259857178,-0.11045485734939575
1696965297249115000,4.172114990234375,-0.7172155380249023,0.9295289516448975,-0.15711265802383423
1696965297259129000,4.182129150390625,1.5930900573730469,0.6123181581497192,-0.16830000281333923
1696965297269143600,4.1921435546875,-0.9765853881835938,0.9648810625076294,-0.08530011773109436
1696965297279157800,4.20215771484375,0.6362743377685547,0.44792795181274414,-0.287985235452652
1696965297289172200,4.212172119140625,-0.1053457260131836,1.0275629758834839,-0.16444170475006104
1696965297299186400,4.2221865234375,0.014322280883789062,0.47295117378234863,-0.2435893416404724
1696965297309200600,4.23220068359375,0.13922786712646484,0.5990338325500488,-0.6544673442840576
1696965297319215000,4.242215087890625,-0.6974172592163086,0.9616963863372803,-0.5527502298355103
1696965297329229300,4.252229248046875,1.2641897201538086,0.4812643527984619,-0.7442643642425537
1696965297339243500,4.262243408203125,-1.3622665405273438,0.6543660163879395,-0.11799252033233643
1696965297349258000,4.272258056640625,1.2839984893798828,0.8812742233276367,-0.7201310396194458
1696965297359272200,4.282272216796875,-2.168761730194092,0.4789140224456787,-0.07917726039886475
1696965297369286400,4.292286376953125,1.2960271835327148,0.86202073097229,-0.4712218642234802
1696965297379300600,4.302300537109375,-0.6417579650878906,0.4199235439300537,-0.2884950339794159
1696965297389315000,4.312315185546875,-0.06662654876708984,1.0035494565963745,-0.8295648097991943
1696965297399329300,4.322329345703125,-1.0267276763916016,0.6527094841003418,-0.13524603843688965
1696965297409343500,4.332343505859375,0.5338420867919922,0.8231807947158813,-0.3813129961490631
1696965297419357700,4.342357666015625,-0.6282997131347656,0.7361901998519897,-0.1916397511959076
1696965297429372200,4.3523720703125,-0.36375904083251953,0.6427572965621948,-0.729955792427063
1696965297439386400,4.362386474609375,-0.8071174621582031,0.8447051048278809,-0.13213896751403809
1696965297449400600,4.372400634765625,0.45655345916748047,0.7192099094390869,-0.5012679100036621
1696965297459414800,4.382414794921875,-1.3121337890625,0.6208101511001587,-0.5376483798027039
1696965297469429200,4.39242919921875,-1.0750417709350586,0.6950147151947021,-0.44694024324417114
1696965297479443500,4.402443359375,1.522909164428711,0.6756316423416138,-0.6449196338653564
1696965297489457700,4.412457763671875,-2.3702473640441895,0.7790782451629639,-0.7614985704421997
1696965297499472000,4.422471923828125,-0.05200958251953125,0.085213303565979,-0.8614426255226135
1696965297509486300,4.432486328125,0.37381935119628906,0.8979319334030151,-0.7292282581329346
1696965297519500500,4.44250048828125,-1.017557144165039,0.6080969572067261,-0.9332554340362549
1696965297529514800,4.4525146484375,0.0073394775390625,0.8044582605361938,-0.6288913488388062
1696965297539529000,4.462529052734375,-0.221923828125,0.49416136741638184,-0.2157232165336609
1696965297549543400,4.47254345703125,-0.02546405792236328,0.8625582456588745,-0.5209642648696899
1696965297559557600,4.4825576171875,-0.001506805419921875,0.5245804786682129,-0.32832279801368713
1696965297569571800,4.49257177734375,0.27085304260253906,0.8592400550842285,-0.48149374127388
1696965297579586000,4.5025859375,-0.5660228729248047,0.3296842575073242,-0.2197873294353485
1696965297589600300,4.512600341796875,0.7255916595458984,1.0478707551956177,-0.2584363520145416
1696965297599614700,4.52261474609375,-0.5472269058227539,0.3122462034225464,-0.2866937518119812
1696965297609629000,4.53262890625,0.9403676986694336,0.4706907272338867,-0.4012657403945923
1696965297619643100,4.54264306640625,-1.2074499130249023,0.3570396900177002,-0.25701168179512024
1696965297629657300,4.5526572265625,1.2470722198486328,0.7790294885635376,-0.5910013318061829
1696965297639671800,4.562671875,-0.6384963989257812,0.8160606622695923,-0.10220593214035034
1696965297649686000,4.57268603515625,1.1311054229736328,-0.1913062334060669,-0.5662862658500671
1696965297659700200,4.5827001953125,-1.2412595748901367,0.8632653951644897,-0.6786216497421265
1696965297669714400,4.59271435546875,0.1901702880859375,0.13076484203338623,-0.7656166553497314
1696965297679729000,4.60272900390625,0.10909080505371094,0.8358409404754639,-0.385528028011322
1696965297689743000,4.6127431640625,-0.4217967987060547,-0.23851525783538818,-1.0525915622711182
1696965297699757300,4.62275732421875,0.1770343780517578,0.7649056911468506,-0.46436643600463867
1696965297709771800,4.632771728515625,-0.8748331069946289,-0.07221770286560059,-0.7189673185348511
1696965297719786000,4.642785888671875,0.9292354583740234,0.5315377712249756,-0.18728238344192505
1696965297729800400,4.652800537109375,-0.49693965911865234,0.07877600193023682,-0.5399092435836792
1696965297739814700,4.662814697265625,-0.23743724822998047,0.17194712162017822,-0.43537458777427673
1696965297749829000,4.6728291015625,0.5279378890991211,0.3850969076156616,-0.3443780243396759
1696965297759843300,4.68284326171875,-0.7823963165283203,-0.17388713359832764,-0.31522220373153687
1696965297769857800,4.69285791015625,0.40490245819091797,0.667116641998291,-0.40266895294189453
1696965297779872000,4.7028720703125,-1.2158374786376953,0.5378439426422119,-0.17867612838745117
1696965297789886200,4.71288623046875,1.7404556274414062,0.29982876777648926,-0.16536560654640198
1696965297799900700,4.722900634765625,-0.4325695037841797,0.684098482131958,-0.8155514001846313
1696965297809915000,4.732914794921875,0.11302852630615234,-0.11272561550140381,-0.8067266941070557
1696965297819929300,4.742929443359375,0.38558387756347656,0.6527701616287231,-0.6394801139831543
1696965297829943600,4.752943603515625,-0.39423656463623047,-0.4668835401535034,-0.8633087873458862
1696965297839958000,4.7629580078125,0.0037088394165039062,0.5922549962997437,-0.6476068496704102
1696965297849972200,4.77297216796875,-0.3737068176269531,0.35580897331237793,-1.0751690864562988
1696965297859986700,4.782986572265625,0.4398307800292969,0.3477649688720703,-0.7122554779052734
1696965297870001000,4.7930009765625,-0.6505498886108398,0.7693381309509277,-0.825945258140564
1696965297880015000,4.80301513671875,-0.022935867309570312,-0.22256875038146973,-0.42156893014907837
1696965297890029600,4.813029541015625,0.47912025451660156,1.3623510599136353,-0.25040048360824585
1696965297900043800,4.823043701171875,-0.16225337982177734,-0.05728578567504883,-0.6463550329208374
1696965297910058200,4.833058349609375,0.09156513214111328,0.939813494682312,-0.24600228667259216
1696965297920072400,4.843072509765625,-0.061593055725097656,0.13492214679718018,-0.612355649471283
1696965297930087000,4.8530869140625,0.5553398132324219,0.6672413349151611,-0.34406304359436035
1696965297940101000,4.86310107421875,-0.20588302612304688,1.0673238039016724,-0.6044318675994873
1696965297950115600,4.873115478515625,-0.3056612014770508,-0.03172755241394043,-0.07248878479003906
1696965297960129800,4.8831298828125,0.521845817565918,1.1266534328460693,-0.645266056060791
1696965297970144300,4.893144287109375,-0.7644786834716797,-0.06637012958526611,-1.0430512428283691
1696965297980158500,4.903158447265625,0.015775680541992188,0.8511276245117188,-0.3489900529384613
1696965297990172700,4.913172607421875,0.8333768844604492,0.5679409503936768,-1.2575321197509766
1696965298000187100,4.923187255859375,-1.3099365234375,0.4480252265930176,-0.23008045554161072
1696965298010201300,4.933201416015625,1.2784910202026367,1.327665090560913,-0.6381745338439941
1696965298020215800,4.9432158203125,0.08082103729248047,0.3999903202056885,-0.8846638202667236
1696965298030230000,4.95322998046875,-0.3687429428100586,1.1497491598129272,-0.7315655946731567
1696965298040244500,4.963244384765625,-0.024288177490234375,0.5093263387680054,-0.1851755678653717
1696965298050258700,4.9732587890625,0.5400590896606445,0.6156409978866577,-0.6798837184906006
1696965298060273200,4.983273193359375,-1.4255762100219727,0.9115103483200073,-0.4244643449783325
1696965298070287400,4.993287353515625,0.6707706451416016,0.5572836399078369,-0.36628034710884094
1696965298080301600,5.003301513671875,-1.0367021560668945,1.2426915168762207,-0.2569631338119507
1696965298090316000,5.01331591796875,-0.11685752868652344,0.19552302360534668,-0.7434479594230652
1696965298100330200,5.023330322265625,0.055660247802734375,0.6473186016082764,-0.608759343624115
1696965298110344700,5.0333447265625,-0.6615285873413086,0.3560994863510132,-0.4149855077266693
1696965298120359000,5.04335888671875,0.17647838592529297,0.459761381149292,-0.4962941110134125
1696965298130373400,5.053373291015625,-0.7413835525512695,0.8980132341384888,-0.5830754041671753
1696965298140387600,5.0633876953125,-0.17581653594970703,0.09863030910491943,-0.48812592029571533
1696965298150402000,5.073402099609375,0.28356456756591797,1.1589488983154297,-0.7087175250053406
1696965298160416300,5.083416259765625,-0.8210792541503906,-0.06714630126953125,-0.9019376039505005
1696965298170430500,5.093430419921875,1.374455451965332,0.8173481225967407,-0.7047723531723022
1696965298180445000,5.10344482421875,-1.4051332473754883,0.47320330142974854,-0.7251063585281372
1696965298190459100,5.113459228515625,1.4127721786499023,0.07337236404418945,-0.46684131026268005
1696965298200473600,5.1234736328125,0.1387939453125,0.8803236484527588,-0.7122699022293091
1696965298210487800,5.13348779296875,-0.4540567398071289,-0.22149109840393066,-0.6762866377830505
1696965298220502300,5.143502197265625,-0.16115760803222656,1.047973871231079,-0.5993810296058655
1696965298230516500,5.1535166015625,-0.42331790924072266,0.05877184867858887,-0.7028934955596924
1696965298240531000,5.163531005859375,-0.6177377700805664,0.6577447652816772,-0.5275542736053467
1696965298250545200,5.173545166015625,0.17237091064453125,0.8039994239807129,-0.6887000799179077
1696965298260559600,5.1835595703125,-0.14271259307861328,0.05995666980743408,-0.635334312915802
