time,seconds_elapsed,z,y,x
1696965293253349400,0.176349365234375,0.03928046673536301,-0.01171756349503994,-0.008388710208237171
1696965293263365400,0.186365478515625,0.03928046673536301,0.0063913981430232525,0.04274247586727142
1696965293273383700,0.1963837890625,0.041410934180021286,0.02450035884976387,0.006524552125483751
1696965293283403800,0.20640380859375,0.037150003015995026,-0.0213046595454216,-0.014780107885599136
1696965293293426000,0.216426025390625,0.038215234875679016,0.0106523297727108,0.03848154470324516
1696965293303449000,0.226448974609375,0.040345702320337296,0.01384802907705307,0.00226362026296556
1696965293313473500,0.2364736328125,0.037150003015995026,-0.01491326279938221,-0.009453942999243736
1696965293323498200,0.246498291015625,0.037150003015995026,0.01491326279938221,0.010785484686493874
1696965293333523000,0.25652294921875,0.044606633484363556,-0.0021304660476744175,0.048068638890981674
1696965293343539000,0.2665390625,0.038215234875679016,-0.0063913981430232525,-0.035019535571336746
1696965293353553200,0.27655322265625,0.040345702320337296,-0.007456631399691105,0.051264338195323944
1696965293363567400,0.2865673828125,0.045671865344047546,0.02556559257209301,0.021437814459204674
1696965293373581600,0.29658154296875,0.041410934180021286,-0.02663082629442215,-0.005193010903894901
1696965293383595800,0.306595703125,0.040345702320337296,0.01810896210372448,0.025698747485876083
1696965293393610200,0.3166103515625,0.048867564648389816,0.0213046595454216,0.066177599132061
1696965293403624400,0.32662451171875,0.044606633484363556,-0.0063913981430232525,-0.014780107885599136
1696965293413638700,0.336638671875,0.041410934180021286,-0.0021304660476744175,0.028894444927573204
1696965293423652900,0.34665283203125,0.047802332788705826,0.02769605815410614,0.08002562820911407
1696965293433667000,0.3566669921875,0.042476166039705276,0.01917419396340847,-0.031823836266994476
1696965293443681300,0.366681396484375,0.040345702320337296,-0.02663082629442215,0.050199106335639954
1696965293453695500,0.376695556640625,0.048867564648389816,0.05219641700387001,0.04274247586727142
1696965293463709700,0.386709716796875,0.042476166039705276,-0.01384802907705307,0.00226362026296556
1696965293473724000,0.396723876953125,0.041410934180021286,-0.0159784946590662,0.012915950268507004
1696965293483738000,0.406738037109375,0.045671865344047546,0.01384802907705307,0.07576470077037811
1696965293493752300,0.41675244140625,0.04673709720373154,-0.0021304660476744175,-0.044606633484363556
1696965293503766500,0.4267666015625,0.038215234875679016,-0.03621792420744896,0.05659050494432449
1696965293513780700,0.43678076171875,0.045671865344047546,0.03408745676279068,0.022503048181533813
1696965293523795000,0.446794921875,0.042476166039705276,-0.04367455467581749,0.004394086077809334
1696965293533809200,0.45680908203125,0.03608476743102074,0.009587096981704235,0.034220609813928604
1696965293543823400,0.4668232421875,0.044606633484363556,-0.01171756349503994,0.043807707726955414
1696965293553837600,0.476837646484375,0.03928046673536301,-0.02769605815410614,0.00226362026296556
1696965293563851800,0.486851806640625,0.031823836266994476,0.0106523297727108,0.015046416781842709
1696965293573866000,0.496865966796875,0.041410934180021286,-0.004260932095348835,0.06511236727237701
1696965293583880200,0.506880126953125,0.037150003015995026,0.0031956990715116262,0.004394086077809334
1696965293593894400,0.516894287109375,0.029693370684981346,-0.004260932095348835,0.011850717477500439
1696965293603908600,0.52690869140625,0.03608476743102074,0.02343512699007988,0.07363422960042953
1696965293613922800,0.5369228515625,0.040345702320337296,0.0010652330238372087,0.00226362026296556
1696965293623937300,0.546937255859375,0.029693370684981346,0,0.012915950268507004
1696965293633951500,0.556951416015625,0.03288906812667847,0.03089175745844841,0.06298190355300903
1696965293643965700,0.566965576171875,0.038215234875679016,0.01810896210372448,0.017176883295178413
1696965293653980000,0.57697998046875,0.031823836266994476,-0.0063913981430232525,0.019307348877191544
1696965293663994000,0.586994140625,0.037150003015995026,0.012782796286046505,0.048068638890981674
1696965293674008300,0.59700830078125,0.038215234875679016,-0.004260932095348835,0.041677240282297134
1696965293684022500,0.6070224609375,0.03608476743102074,-0.0031956990715116262,-0.011584409512579441
1696965293694036700,0.61703662109375,0.038215234875679016,-0.012782796286046505,0.07256899774074554
1696965293704051000,0.627051025390625,0.042476166039705276,0.01384802907705307,0.025698747485876083
1696965293714065200,0.637065185546875,0.037150003015995026,-0.02023942768573761,0.013981183059513569
1696965293724079600,0.64707958984375,0.042476166039705276,-0.02236989326775074,0.050199106335639954
1696965293734093800,0.65709375,0.044606633484363556,0.0031956990715116262,0.031024912372231483
1696965293744108000,0.66710791015625,0.040345702320337296,-0.007456631399691105,0.011850717477500439
1696965293754122200,0.677122314453125,0.03928046673536301,-0.0063913981430232525,0.04274247586727142
1696965293764136700,0.68713671875,0.042476166039705276,0.0106523297727108,0.05232957378029823
1696965293774151000,0.69715087890625,0.03928046673536301,-0.0053261648863554,-0.006258244160562754
1696965293784165000,0.7071650390625,0.03928046673536301,-0.012782796286046505,0.044872939586639404
1696965293794179300,0.717179443359375,0.043541401624679565,0.02236989326775074,0.048068638890981674
1696965293804193800,0.72719384765625,0.03928046673536301,-0.01171756349503994,-0.0009320789249613881
1696965293814208000,0.7372080078125,0.042476166039705276,-0.02876129187643528,0.053394805639982224
1696965293824222200,0.74722216796875,0.041410934180021286,0.02023942768573761,0.020372580736875534
1696965293834236400,0.757236328125,0.04673709720373154,-0.05113118514418602,0.009720250964164734
1696965293844251000,0.7672509765625,0.040345702320337296,-0.0063913981430232525,0.03848154470324516
1696965293854265000,0.77726513671875,0.043541401624679565,-0.007456631399691105,0.018242115154862404
1696965293864279300,0.787279296875,0.043541401624679565,-0.02450035884976387,0.034220609813928604
1696965293874293500,0.79729345703125,0.038215234875679016,0.0053261648863554,-0.030758604407310486
1696965293884308000,0.807307861328125,0.042476166039705276,-0.01704372838139534,0.0555252730846405
1696965293894322200,0.817322265625,0.038215234875679016,0.04687025398015976,-0.016910573467612267
1696965293904336400,0.82733642578125,0.03928046673536301,-0.0319569893181324,0.011850717477500439
1696965293914350600,0.8373505859375,0.044606633484363556,0.01384802907705307,0.048068638890981674
1696965293924365000,0.847364990234375,0.041410934180021286,0.007456631399691105,-0.030758604407310486
1696965293934379300,0.857379150390625,0.038215234875679016,-0.03621792420744896,0.036351077258586884
1696965293944393500,0.8673935546875,0.047802332788705826,0.0053261648863554,0.012915950268507004
1696965293954407700,0.87740771484375,0.045671865344047546,-0.04367455467581749,0.005459319334477186
1696965293964422100,0.887422119140625,0.043541401624679565,-0.03515268862247467,0.03848154470324516
1696965293974436400,0.897436279296875,0.047802332788705826,-0.02023942768573761,0.004394086077809334
1696965293984450600,0.907450439453125,0.04673709720373154,-0.03408745676279068,0.047003407031297684
1696965293994464800,0.91746484375,0.045671865344047546,-0.01491326279938221,-0.020106272771954536
1696965294004479200,0.927479248046875,0.045671865344047546,-0.01704372838139534,0.050199106335639954
1696965294014493400,0.937493408203125,0.050998032093048096,-0.0031956990715116262,0.027829213067889214
1696965294024507600,0.947507568359375,0.041410934180021286,-0.007456631399691105,-0.016910573467612267
1696965294034521900,0.95752197265625,0.045671865344047546,0.0063913981430232525,0.051264338195323944
1696965294044536300,0.967536376953125,0.047802332788705826,0.01704372838139534,0.028894444927573204
1696965294054550500,0.977550537109375,0.043541401624679565,-0.0159784946590662,-0.035019535571336746
1696965294064564700,0.987564697265625,0.043541401624679565,0.02236989326775074,0.07469946891069412
1696965294074579000,0.997578857421875,0.048867564648389816,0.01704372838139534,0.044872939586639404
1696965294084593400,1.007593505859375,0.044606633484363556,-0.02556559257209301,-0.06271559745073318
1696965294094607600,1.017607666015625,0.045671865344047546,0,0.09600412845611572
1696965294104621800,1.027621826171875,0.050998032093048096,0.03302222490310669,0.012915950268507004
1696965294114636000,1.037635986328125,0.044606633484363556,-0.03941362351179123,-0.007323476951569319
1696965294124650500,1.047650390625,0.042476166039705276,0.03728315606713295,0.05978620424866676
1696965294134664700,1.057664794921875,0.04993279650807381,0.0159784946590662,0.03528584539890289
1696965294144679000,1.067678955078125,0.038215234875679016,0.01704372838139534,-0.005193010903894901
1696965294154693000,1.077693115234375,0.03928046673536301,0.02876129187643528,0.05978620424866676
1696965294164707600,1.08770751953125,0.043541401624679565,0.0426093190908432,0.025698747485876083
1696965294174721800,1.0977216796875,0.035019535571336746,0.03621792420744896,0.016111649572849274
1696965294184736000,1.107736083984375,0.037150003015995026,0.01810896210372448,0.03848154470324516
1696965294194750200,1.117750244140625,0.041410934180021286,0.03728315606713295,0.047003407031297684
1696965294204764700,1.1277646484375,0.033954303711652756,0.03728315606713295,0.0033288532868027687
1696965294214779000,1.13777880859375,0.035019535571336746,-0.00852186419069767,0.048068638890981674
1696965294224793300,1.14779345703125,0.042476166039705276,0.03621792420744896,0.026763979345560074
1696965294234807600,1.1578076171875,0.03608476743102074,-0.0063913981430232525,0.025698747485876083
1696965294244822000,1.167822021484375,0.03608476743102074,0.012782796286046505,0.008655018173158169
1696965294254836200,1.177836181640625,0.03928046673536301,-0.0031956990715116262,0.051264338195323944
1696965294264850400,1.187850341796875,0.03928046673536301,0.009587096981704235,-0.0030625448562204838
1696965294274865000,1.197864990234375,0.03608476743102074,-0.02236989326775074,0.03528584539890289
1696965294284879000,1.207879150390625,0.042476166039705276,0.01917419396340847,0.00226362026296556
1696965294294893600,1.2178935546875,0.038215234875679016,-0.02236989326775074,0.041677240282297134
1696965294304907800,1.22790771484375,0.038215234875679016,0.01810896210372448,-0.027562905102968216
1696965294314922200,1.237922119140625,0.042476166039705276,-0.03515268862247467,0.06830807030200958
1696965294324936400,1.2479365234375,0.03928046673536301,0.01917419396340847,-0.014780107885599136
1696965294334951000,1.257950927734375,0.03928046673536301,-0.03515268862247467,0.011850717477500439
1696965294344965000,1.267965087890625,0.050998032093048096,-0.02343512699007988,0.05659050494432449
1696965294354979300,1.277979248046875,0.044606633484363556,-0.01810896210372448,-0.021171506494283676
1696965294364993800,1.287993896484375,0.041410934180021286,-0.04154408723115921,0.022503048181533813
1696965294375008000,1.298008056640625,0.047802332788705826,-0.007456631399691105,0.04274247586727142
1696965294385022500,1.3080224609375,0.050998032093048096,-0.0426093190908432,0.00226362026296556
1696965294395036700,1.31803662109375,0.043541401624679565,-0.03515268862247467,0.007589785382151604
1696965294405051100,1.328051025390625,0.04993279650807381,-0.02450035884976387,0.057655736804008484
1696965294415065300,1.3380654296875,0.04993279650807381,-0.01810896210372448,0.0001331541279796511
1696965294425079800,1.348079833984375,0.044606633484363556,-0.0426093190908432,0.005459319334477186
1696965294435094000,1.358093994140625,0.047802332788705826,0.00852186419069767,0.05232957378029823
1696965294445108200,1.368108154296875,0.04993279650807381,-0.0021304660476744175,0.04593817517161369
1696965294455122700,1.378122802734375,0.043541401624679565,-0.01704372838139534,-0.016910573467612267
1696965294465137000,1.388136962890625,0.048867564648389816,0.0010652330238372087,0.08854749798774719
1696965294475151400,1.3981513671875,0.055258963257074356,0.02236989326775074,0.051264338195323944
1696965294485165600,1.40816552734375,0.041410934180021286,-0.03621792420744896,-0.025432437658309937
1696965294495180000,1.418179931640625,0.042476166039705276,0.01917419396340847,0.12156971544027328
1696965294505194200,1.4281943359375,0.042476166039705276,0.04154408723115921,0.06511236727237701
1696965294515208700,1.438208740234375,0.03608476743102074,-0.03302222490310669,0.005459319334477186
1696965294525223000,1.448222900390625,0.041410934180021286,0.01384802907705307,0.13861344754695892
1696965294535237400,1.4582373046875,0.047802332788705826,0.03408745676279068,0.07896039634943008
1696965294545251600,1.46825146484375,0.031823836266994476,-0.04047885537147522,0.041677240282297134
1696965294555265800,1.478265869140625,0.03928046673536301,0.02663082629442215,0.1418091505765915
1696965294565280300,1.4882802734375,0.03928046673536301,0.04473978653550148,0.13754820823669434
1696965294575294500,1.49829443359375,0.030758604407310486,-0.0319569893181324,0.040612008422613144
1696965294585308700,1.50830859375,0.03608476743102074,0.01171756349503994,0.19294032454490662
1696965294595323000,1.518322998046875,0.040345702320337296,0.04580501839518547,0.16098333895206451
1696965294605337300,1.52833740234375,0.027562905102968216,-0.01917419396340847,0.0555252730846405
1696965294615351600,1.5383515625,0.031823836266994476,0.01704372838139534,0.23022349178791046
1696965294625365800,1.54836572265625,0.031823836266994476,0.09693620353937149,0.1822880059480667
1696965294635380000,1.5583798828125,0.027562905102968216,-0.02769605815410614,0.0991998240351677
1696965294645394400,1.56839453125,0.028628136962652206,0.06284874677658081,0.22276686131954193
1696965294655408600,1.57840869140625,0.028628136962652206,0.08308817446231842,0.2153102308511734
1696965294665422800,1.5884228515625,0.025432437658309937,0.03941362351179123,0.0874822586774826
1696965294675437000,1.59843701171875,0.03288906812667847,0.02023942768573761,0.22809302806854248
1696965294685451500,1.608451416015625,0.03608476743102074,0.14487169682979584,0.1950708031654358
1696965294695465700,1.6184658203125,0.027562905102968216,0.05752258375287056,0.10452599078416824
1696965294705480000,1.62847998046875,0.03288906812667847,0.04154408723115921,0.2057231217622757
1696965294715494100,1.638494140625,0.028628136962652206,0.1384802907705307,0.19080986082553864
1696965294725508600,1.648508544921875,0.019041040912270546,0.12250179797410965,0.066177599132061
1696965294735522800,1.658522705078125,0.05312849581241608,-0.012782796286046505,0.1737661361694336
1696965294745537000,1.668537109375,0.06271559745073318,0.1288931965827942,0.09493889659643173
1696965294755551200,1.67855126953125,0.017975807189941406,0.11504516750574112,0.0991998240351677
1696965294765565700,1.688565673828125,0.029693370684981346,0.07243584841489792,0.10239552706480026
1696965294775580000,1.698579833984375,0.029693370684981346,0.13208889961242676,0.044872939586639404
1696965294785594000,1.708593994140625,0.030758604407310486,0.08734910935163498,0.0768299326300621
1696965294795608300,1.7186083984375,0.035019535571336746,0.10865376889705658,0.015046416781842709
1696965294805622800,1.728622802734375,0.041410934180021286,0.0639139786362648,-0.023301972076296806
1696965294815637000,1.738636962890625,0.037150003015995026,0.06284874677658081,0.005459319334477186
1696965294825651200,1.748651123046875,0.008388710208237171,0.17363297939300537,-0.07656362652778625
1696965294835665400,1.75866552734375,0.017975807189941406,0.04793548583984375,-0.05632419511675835
1696965294845679900,1.768679931640625,0.03608476743102074,0.07030537724494934,-0.058454662561416626
1696965294855694000,1.778694091796875,0.024367205798625946,0.11504516750574112,-0.1692388951778412
1696965294865708300,1.788708251953125,0.035019535571336746,-0.0426093190908432,-0.12876003980636597
1696965294875722500,1.798722412109375,0.045671865344047546,0.01491326279938221,-0.1149120107293129
1696965294885737000,1.808737060546875,0.037150003015995026,0.06071828305721283,-0.22250054776668549
1696965294895751200,1.818751220703125,0.045671865344047546,-0.11184946447610855,-0.19693495333194733
1696965294905765400,1.828765380859375,0.04993279650807381,-0.03834838792681694,-0.18415215611457825
1696965294915779600,1.838779541015625,0.045671865344047546,0.009587096981704235,-0.28002312779426575
1696965294925794000,1.8487939453125,0.044606633484363556,-0.0958709716796875,-0.19800019264221191
1696965294935808300,1.858808349609375,0.06271559745073318,-0.02982652559876442,-0.2416747361421585
1696965294945822500,1.868822509765625,0.04673709720373154,-0.04367455467581749,-0.3045234978199005
1696965294955836700,1.878836669921875,0.043541401624679565,-0.06071828305721283,-0.1894783228635788
1696965294965851000,1.888850830078125,0.041410934180021286,0.03302222490310669,-0.3268933892250061
1696965294975865300,1.898865234375,0.045671865344047546,-0.09906667470932007,-0.23634858429431915
1696965294985879600,1.908879638671875,0.042476166039705276,0.03089175745844841,-0.28854498267173767
1696965294995894000,1.91889404296875,0.04673709720373154,-0.04687025398015976,-0.2118482142686844
1696965295005908200,1.928908203125,0.04993279650807381,-0.02769605815410614,-0.28854498267173767
1696965295015922700,1.938922607421875,0.042476166039705276,-0.0426093190908432,-0.2416747361421585
1696965295025937000,1.94893701171875,0.054193731397390366,-0.04580501839518547,-0.17243459820747375
1696965295035951000,1.958951171875,0.05312849581241608,-0.04687025398015976,-0.3151758313179016
1696965295045965600,1.968965576171875,0.043541401624679565,-0.08947957307100296,-0.16284750401973724
1696965295055979800,1.978979736328125,0.04993279650807381,0.02236989326775074,-0.17349982261657715
1696965295065994200,1.988994140625,0.050998032093048096,-0.11930610239505768,-0.2427399754524231
1696965295076008400,1.999008544921875,0.03928046673536301,-0.04580501839518547,-0.18202169239521027
1696965295086023000,2.00902294921875,0.052063263952732086,-0.02876129187643528,-0.10852061212062836
1696965295096037000,2.019037109375,0.045671865344047546,-0.05858781561255455,-0.20332635939121246
1696965295106051600,2.029051513671875,0.033954303711652756,-0.09054480493068695,-0.1692388951778412
1696965295116065800,2.039065673828125,0.041410934180021286,0.0159784946590662,-0.038215234875679016
1696965295126080000,2.049080078125,0.044606633484363556,-0.05219641700387001,-0.15965180099010468
1696965295136094500,2.059094482421875,0.033954303711652756,-0.10013190656900406,-0.15219517052173615
1696965295146108700,2.069108642578125,0.037150003015995026,0.007456631399691105,0.03954677656292915
1696965295156123100,2.079123046875,0.031823836266994476,0.01491326279938221,-0.1362166702747345
1696965295166137300,2.089137451171875,0.026497671380639076,-0.11930610239505768,-0.07656362652778625
1696965295176151800,2.09915185546875,0.031823836266994476,0.0532616525888443,0.037416309118270874
1696965295186166000,2.109166015625,0.035019535571336746,0.0031956990715116262,-0.038215234875679016
1696965295196180500,2.119180419921875,0.022236740216612816,-0.06710968166589737,-0.04993279650807381
1696965295206194700,2.129194580078125,0.027562905102968216,0.02663082629442215,0.07363422960042953
1696965295216209200,2.139209228515625,0.03288906812667847,0.02982652559876442,0.016111649572849274
1696965295226223400,2.149223388671875,0.024367205798625946,-0.05219641700387001,-0.012649642303586006
1696965295236237600,2.159237548828125,0.023301972076296806,0.03408745676279068,0.06298190355300903
1696965295246252000,2.169251953125,0.03288906812667847,0.01810896210372448,0.11091738939285278
1696965295256266200,2.179266357421875,0.027562905102968216,-0.01491326279938221,-0.026497671380639076
1696965295266280700,2.18928076171875,0.027562905102968216,-0.05432688444852829,0.10665645450353622
1696965295276295000,2.199294921875,0.040345702320337296,0.07989247888326645,0.06937330216169357
1696965295286309400,2.209309326171875,0.040345702320337296,-0.05219641700387001,0.08641702681779861
1696965295296323600,2.219323486328125,0.038215234875679016,-0.05113118514418602,0.010785484686493874
1696965295306338000,2.229338134765625,0.041410934180021286,0.02663082629442215,0.14607007801532745
1696965295316352300,2.239352294921875,0.03928046673536301,0.0159784946590662,0.05659050494432449
1696965295326366500,2.249366455078125,0.047802332788705826,-0.08734910935163498,0.033155377954244614
1696965295336381000,2.259380859375,0.047802332788705826,0.01491326279938221,0.13754820823669434
1696965295346395100,2.26939501953125,0.052063263952732086,0.02876129187643528,0.031024912372231483
1696965295356409600,2.27940966796875,0.04993279650807381,-0.06604444980621338,0.07150376588106155
1696965295366423800,2.289423828125,0.050998032093048096,0.04367455467581749,0.06404713541269302
1696965295376438300,2.299438232421875,0.052063263952732086,0.0053261648863554,0.067242830991745
1696965295386452500,2.309452392578125,0.05312849581241608,0,0.012915950268507004
1696965295396467000,2.319467041015625,0.054193731397390366,0.007456631399691105,0.06298190355300903
1696965295406481200,2.329481201171875,0.060585130006074905,0.0159784946590662,0.034220609813928604
1696965295416495400,2.339495361328125,0.057389430701732635,-0.01917419396340847,-0.015845341607928276
1696965295426509800,2.349509765625,0.059519894421100616,0.0063913981430232525,0.028894444927573204
1696965295436524000,2.35952392578125,0.06271559745073318,-0.0053261648863554,0.0011983871227130294
1696965295446538500,2.36953857421875,0.06271559745073318,-0.02556559257209301,-0.045671865344047546
1696965295456552700,2.379552734375,0.06271559745073318,-0.02556559257209301,-0.004127778112888336
1696965295466567200,2.389567138671875,0.06804175674915314,-0.0031956990715116262,-0.050998032093048096
1696965295476581400,2.399581298828125,0.06591129302978516,-0.04900071769952774,-0.0712374597787857
1696965295486595800,2.409595947265625,0.06804175674915314,-0.03089175745844841,-0.06484606117010117
1696965295496610000,2.419610107421875,0.06804175674915314,-0.02236989326775074,-0.061650361865758896
1696965295506624500,2.42962451171875,0.07549838721752167,-0.04580501839518547,-0.14047759771347046
1696965295516638700,2.439638671875,0.06697652488946915,-0.03941362351179123,-0.10106398165225983
1696965295526653000,2.44965283203125,0.07336792349815369,-0.02876129187643528,-0.12343387305736542
1696965295536667400,2.45966748046875,0.07656362652778625,-0.05965305119752884,-0.15326039493083954
1696965295546681600,2.469681640625,0.07336792349815369,-0.04047885537147522,-0.1564560979604721
1696965295556696000,2.479696044921875,0.07869409024715424,-0.02769605815410614,-0.17136935889720917
1696965295566710300,2.489710205078125,0.07869409024715424,-0.04473978653550148,-0.18628261983394623
1696965295576724700,2.499724853515625,0.0829550251364708,-0.02663082629442215,-0.19373925030231476
1696965295586739000,2.509739013671875,0.08508548885583878,-0.03728315606713295,-0.15432563424110413
1696965295596753400,2.51975341796875,0.08508548885583878,0.004260932095348835,-0.23421810567378998
1696965295606767600,2.529767578125,0.08828118443489075,-0.02876129187643528,-0.17243459820747375
1696965295616781800,2.53978173828125,0.0936073511838913,0.03089175745844841,-0.2011958807706833
1696965295626796300,2.54979638671875,0.0936073511838913,-0.0053261648863554,-0.16284750401973724
1696965295636810500,2.559810546875,0.09147688746452332,0.03621792420744896,-0.1990654170513153
1696965295646825000,2.569824951171875,0.09573781490325928,0.03408745676279068,-0.15219517052173615
1696965295656839200,2.579839111328125,0.09999874979257584,0.04580501839518547,-0.13728190958499908
1696965295666853600,2.589853515625,0.10212921351194382,0.02343512699007988,-0.17563030123710632
1696965295676867800,2.599867919921875,0.09893351793289185,0.04580501839518547,-0.09999874979257584
1696965295686882300,2.60988232421875,0.10639014840126038,0.07669677585363388,-0.10852061212062836
1696965295696896500,2.619896484375,0.1031944528222084,0.03728315606713295,-0.0936073511838913
1696965295706911000,2.629910888671875,0.09786828607320786,0.08628387749195099,-0.09467258304357529
1696965295716925200,2.63992529296875,0.1042596846818924,0.07989247888326645,0.022503048181533813
1696965295726939400,2.649939453125,0.09999874979257584,0.1171756312251091,-0.0925421193242073
1696965295736953900,2.659953857421875,0.08934641629457474,0.07669677585363388,0.016111649572849274
1696965295746968000,2.669968017578125,0.0925421193242073,0.18854624032974243,0.058720968663692474
1696965295756982500,2.679982421875,0.08615072071552277,0.13634982705116272,0.024633513763546944
1696965295766996700,2.689996826171875,0.07656362652778625,0.1491326242685318,0.06404713541269302
1696965295777011200,2.70001123046875,0.07656362652778625,0.20026381313800812,0.13648298382759094
1696965295787025400,2.710025390625,0.07017222791910172,0.19813334941864014,0.12476541846990585
1696965295797039900,2.720039794921875,0.06697652488946915,0.16830681264400482,0.12796111404895782
1696965295807054000,2.73005419921875,0.07017222791910172,0.17576344311237335,0.20146219432353973
1696965295817068300,2.740068359375,0.06910699605941772,0.17576344311237335,0.21744069457054138
1696965295827082800,2.750082763671875,0.06484606117010117,0.14061075448989868,0.18548369407653809
1696965295837097000,2.760096923828125,0.06591129302978516,0.1288931965827942,0.2802894413471222
1696965295847111400,2.770111328125,0.07336792349815369,0.13315412402153015,0.2792242169380188
1696965295857125600,2.780125732421875,0.0712374597787857,0.09480573982000351,0.23448441922664642
1696965295867140000,2.79014013671875,0.06378082931041718,0.09800143539905548,0.3207682967185974
1696965295877154300,2.800154296875,0.0712374597787857,0.1267627328634262,0.3133116662502289
1696965295887168800,2.810168701171875,0.0712374597787857,0.07563154399394989,0.28668084740638733
1696965295897183000,2.820182861328125,0.06697652488946915,0.04687025398015976,0.3143768906593323
1696965295907197200,2.830197265625,0.07017222791910172,0.1288931965827942,0.3037245571613312
1696965295917211600,2.840211669921875,0.06910699605941772,0.0852186381816864,0.32609444856643677
1696965295927225900,2.850225830078125,0.08188978582620621,0.03941362351179123,0.24513675272464752
1696965295937240300,2.860240234375,0.08188978582620621,0.04047885537147522,0.32609444856643677
1696965295947254500,2.870254638671875,0.09041165560483932,0.10545806586742401,0.2579195499420166
1696965295957269000,2.88026904296875,0.09786828607320786,0,0.2664414048194885
1696965295967283200,2.890283203125,0.10958584398031235,0.01917419396340847,0.25365862250328064
1696965295977297700,2.900297607421875,0.12023817747831345,-0.0031956990715116262,0.237680122256279
1696965295987311900,2.910311767578125,0.13302096724510193,-0.02023942768573761,0.2046578973531723
1696965295997326300,2.920326416015625,0.12982527911663055,0.0021304660476744175,0.21317975223064423
1696965296007340500,2.930340576171875,0.14793424308300018,-0.0159784946590662,0.20146219432353973
1696965296017354800,2.940354736328125,0.15219517052173615,-0.05752258375287056,0.14393961429595947
1696965296027369200,2.950369140625,0.15326039493083954,-0.007456631399691105,0.16630950570106506
1696965296037383400,2.960383544921875,0.16497796773910522,-0.04473978653550148,0.15352670848369598
1696965296047398000,2.97039794921875,0.1671084314584732,-0.04793548583984375,0.0778951644897461
1696965296057412000,2.980412109375,0.16071702539920807,-0.03941362351179123,0.1205044835805893
1696965296067426600,2.990426513671875,0.17243459820747375,-0.012782796286046505,0.07469946891069412
1696965296077440800,3.000440673828125,0.16497796773910522,-0.0639139786362648,0.057655736804008484
1696965296087455200,3.010455322265625,0.16391272842884064,-0.02982652559876442,0.015046416781842709
1696965296097469400,3.020469482421875,0.16284750401973724,-0.04473978653550148,0.08428656309843063
1696965296107483600,3.030483642578125,0.16284750401973724,-0.02023942768573761,-0.09573781490325928
1696965296117498000,3.040498046875,0.15219517052173615,-0.10119713842868805,0.05232957378029823
1696965296127512300,3.05051220703125,0.15006470680236816,0.04473978653550148,-0.06591129302978516
1696965296137526800,3.06052685546875,0.14367330074310303,-0.09054480493068695,-0.04673709720373154
1696965296147541000,3.070541015625,0.1351514458656311,0.0031956990715116262,-0.07656362652778625
1696965296157555500,3.080555419921875,0.13302096724510193,-0.0159784946590662,-0.042476166039705276
1696965296167569700,3.090569580078125,0.1255643367767334,-0.0010652330238372087,-0.09786828607320786
1696965296177584000,3.100584228515625,0.11704248189926147,-0.01491326279938221,-0.11917294561862946
1696965296187598300,3.110598388671875,0.11597724258899689,0.02556559257209301,-0.033954303711652756
1696965296197612800,3.12061279296875,0.1042596846818924,0.03515268862247467,-0.13089050352573395
1696965296207627000,3.130626953125,0.10532491654157639,-0.02236989326775074,-0.1138467788696289
1696965296217641200,3.14064111328125,0.10532491654157639,0.03408745676279068,-0.06271559745073318
1696965296227655700,3.15065576171875,0.10532491654157639,0.03941362351179123,-0.12982527911663055
1696965296237670000,3.160669921875,0.09999874979257584,-0.0319569893181324,-0.09573781490325928
1696965296247684000,3.17068408203125,0.1031944528222084,0.03941362351179123,-0.11704248189926147
1696965296257698300,3.1806982421875,0.09680305421352386,0.03515268862247467,-0.054193731397390366
1696965296267712800,3.190712646484375,0.09786828607320786,0.01810896210372448,-0.16391272842884064
1696965296277727000,3.20072705078125,0.10639014840126038,-0.02236989326775074,-0.04993279650807381
1696965296287741200,3.2107412109375,0.10532491654157639,0.08841434121131897,-0.10212921351194382
1696965296297755400,3.22075537109375,0.10958584398031235,-0.0106523297727108,-0.11597724258899689
1696965296307769900,3.230769775390625,0.11278154700994492,0.009587096981704235,-0.050998032093048096
1696965296317784000,3.2407841796875,0.1149120107293129,0.08415340632200241,-0.09999874979257584
1696965296327798300,3.25079833984375,0.11704248189926147,-0.0021304660476744175,-0.07549838721752167
1696965296337812500,3.2608125,0.1255643367767334,0.02556559257209301,-0.054193731397390366
1696965296347827000,3.270826904296875,0.12982527911663055,0.04580501839518547,-0.06591129302978516
1696965296357841200,3.280841064453125,0.12982527911663055,0.01491326279938221,-0.07656362652778625
1696965296367855400,3.29085546875,0.1362166702747345,0.02450035884976387,-0.033954303711652756
1696965296377869600,3.30086962890625,0.14047759771347046,0.05432688444852829,-0.028628136962652206
1696965296387884000,3.310884033203125,0.14260807633399963,0.02343512699007988,-0.08508548885583878
1696965296397898200,3.320898193359375,0.14473854005336761,0.01171756349503994,0.006524552125483751
1696965296407912400,3.330912353515625,0.15112993121147156,0.05432688444852829,-0.033954303711652756
1696965296417926700,3.3409267578125,0.14899946749210358,0.01491326279938221,-0.03288906812667847
1696965296427941000,3.350941162109375,0.15326039493083954,0.0319569893181324,-0.019041040912270546
1696965296437955300,3.360955322265625,0.16071702539920807,0.0213046595454216,0.022503048181533813
1696965296447969500,3.370969482421875,0.16391272842884064,0.03728315606713295,-0.041410934180021286
1696965296457983700,3.380983642578125,0.1585865616798401,0.0053261648863554,0.015046416781842709
1696965296467998200,3.390998291015625,0.1681736707687378,0.01171756349503994,0.048068638890981674
1696965296478012400,3.401012451171875,0.1671084314584732,0.01491326279938221,-0.042476166039705276
1696965296488026600,3.411026611328125,0.1575213372707367,-0.0106523297727108,0.03848154470324516
1696965296498040800,3.421040771484375,0.16391272842884064,0.03621792420744896,0.033155377954244614
1696965296508055300,3.43105517578125,0.16604319214820862,-0.0106523297727108,0.007589785382151604
1696965296518069500,3.441069580078125,0.1585865616798401,-0.012782796286046505,0.012915950268507004
1696965296528083700,3.451083740234375,0.16178226470947266,0.03408745676279068,0.06404713541269302
1696965296538098000,3.461097900390625,0.16071702539920807,0.009587096981704235,-0.008388710208237171
1696965296548112400,3.4711123046875,0.15432563424110413,-0.02876129187643528,0.010785484686493874
1696965296558126600,3.481126708984375,0.1585865616798401,0.03408745676279068,0.07576470077037811
1696965296568140800,3.491140869140625,0.15326039493083954,0.03834838792681694,-0.024367205798625946
1696965296578155300,3.5011552734375,0.15432563424110413,-0.04793548583984375,0.05232957378029823
1696965296588169500,3.51116943359375,0.1575213372707367,0.05858781561255455,0.04274247586727142
1696965296598184000,3.521183837890625,0.14793424308300018,0,-0.007323476951569319
1696965296608198100,3.5311982421875,0.14899946749210358,0.0063913981430232525,0.031024912372231483
1696965296618212400,3.54121240234375,0.15326039493083954,0.02876129187643528,0.07256899774074554
1696965296628226800,3.551226806640625,0.14793424308300018,0.0010652330238372087,-0.033954303711652756
1696965296638241000,3.561240966796875,0.14899946749210358,-0.02023942768573761,0.07256899774074554
1696965296648255500,3.57125537109375,0.15326039493083954,0.03408745676279068,0.03528584539890289
1696965296658269700,3.581269775390625,0.14473854005336761,-0.0031956990715116262,-0.016910573467612267
1696965296668284200,3.5912841796875,0.15326039493083954,-0.0159784946590662,0.067242830991745
1696965296678298400,3.60129833984375,0.1468690037727356,0.05006595328450203,0.013981183059513569
1696965296688312800,3.611312744140625,0.14899946749210358,-0.00852186419069767,-0.0030625448562204838
1696965296698327000,3.6213271484375,0.15432563424110413,0.012782796286046505,0.07576470077037811
1696965296708341200,3.63134130859375,0.145803764462471,0.05645735189318657,-0.035019535571336746
1696965296718355700,3.641355712890625,0.1553908735513687,-0.02769605815410614,0.050199106335639954
1696965296728370000,3.651369873046875,0.14793424308300018,0.09161003679037094,0.012915950268507004
1696965296738384400,3.66138427734375,0.15965180099010468,-0.03728315606713295,-0.0009320789249613881
1696965296748398600,3.671398681640625,0.1553908735513687,0.04367455467581749,0.03528584539890289
1696965296758413000,3.6814130859375,0.1564560979604721,0.04793548583984375,-0.0030625448562204838
1696965296768427300,3.69142724609375,0.16178226470947266,-0.00852186419069767,0.027829213067889214
1696965296778441700,3.701441650390625,0.1585865616798401,0.04900071769952774,-0.010519175790250301
1696965296788456000,3.7114560546875,0.16284750401973724,-0.0031956990715116262,0.03209014609456062
1696965296798470400,3.721470458984375,0.16284750401973724,0.05006595328450203,-0.016910573467612267
1696965296808484600,3.731484619140625,0.16391272842884064,-0.0053261648863554,0.025698747485876083
1696965296818498800,3.741498779296875,0.16284750401973724,0.05858781561255455,-0.005193010903894901
1696965296828513300,3.75151318359375,0.16178226470947266,0.02876129187643528,-0.008388710208237171
1696965296838527500,3.761527587890625,0.16497796773910522,0.03408745676279068,0.03209014609456062
1696965296848542000,3.7715419921875,0.16178226470947266,0.05965305119752884,-0.041410934180021286
1696965296858556200,3.78155615234375,0.16604319214820862,0.01704372838139534,0.050199106335639954
1696965296868570600,3.791570556640625,0.15965180099010468,0.07989247888326645,-0.04993279650807381
1696965296878584800,3.801584716796875,0.16604319214820862,0,0.044872939586639404
1696965296888599300,3.811599365234375,0.15965180099010468,0.09054480493068695,-0.023301972076296806
1696965296898613500,3.821613525390625,0.16604319214820862,-0.02663082629442215,0.0033288532868027687
1696965296908627700,3.831627685546875,0.15965180099010468,0.0852186381816864,0.005459319334477186
1696965296918642200,3.84164208984375,0.1681736707687378,0.0053261648863554,0.004394086077809334
1696965296928656400,3.851656494140625,0.16497796773910522,0.01491326279938221,-0.006258244160562754
1696965296938670800,3.8616708984375,0.16284750401973724,0.04154408723115921,-0.008388710208237171
1696965296948685000,3.87168505859375,0.1671084314584732,0.0159784946590662,0.012915950268507004
1696965296958699500,3.881699462890625,0.16391272842884064,0.03834838792681694,-0.008388710208237171
1696965296968713700,3.891713623046875,0.16391272842884064,0.03302222490310669,-0.014780107885599136
1696965296978728200,3.901728271484375,0.16497796773910522,0.04047885537147522,0.029959678649902344
1696965296988742400,3.911742431640625,0.17030413448810577,0.02236989326775074,-0.059519894421100616
1696965296998756900,3.9217568359375,0.16284750401973724,0.01810896210372448,0.051264338195323944
1696965297008771000,3.93177099609375,0.16497796773910522,0.08628387749195099,-0.038215234875679016
1696965297018785300,3.941785400390625,0.16497796773910522,-0.03621792420744896,-0.0030625448562204838
1696965297028799700,3.9517998046875,0.15965180099010468,0.07882724702358246,0.007589785382151604
1696965297038814000,3.96181396484375,0.16497796773910522,0.03408745676279068,-0.03608476743102074
1696965297048828400,3.971828369140625,0.17456506192684174,-0.0319569893181324,0.036351077258586884
1696965297058842600,3.981842529296875,0.16391272842884064,0.0745663121342659,-0.043541401624679565
1696965297068857000,3.991857177734375,0.1681736707687378,-0.0021304660476744175,0.011850717477500439
1696965297078871300,4.001871337890625,0.17030413448810577,0.02663082629442215,0.016111649572849274
1696965297088885800,4.0118857421875,0.17243459820747375,0.009587096981704235,-0.037150003015995026
1696965297098900000,4.02189990234375,0.17243459820747375,0.0021304660476744175,0.031024912372231483
1696965297108914200,4.0319140625,0.17456506192684174,0.03515268862247467,-0.006258244160562754
1696965297118928600,4.0419287109375,0.17456506192684174,0,0.015046416781842709
1696965297128942800,4.05194287109375,0.1788259893655777,0.012782796286046505,-0.013714875094592571
1696965297138957300,4.061957275390625,0.17349982261657715,0.03302222490310669,0.031024912372231483
1696965297148971500,4.071971435546875,0.18202169239521027,0.004260932095348835,-0.005193010903894901
1696965297158986000,4.081986083984375,0.1788259893655777,0.02663082629442215,0.029959678649902344
1696965297169000200,4.092000244140625,0.18202169239521027,0.02769605815410614,-0.012649642303586006
1696965297179014700,4.1020146484375,0.18095645308494568,-0.02556559257209301,0.0555252730846405
1696965297189028900,4.11202880859375,0.1788259893655777,0.07350108027458191,-0.03928046673536301
1696965297199043000,4.12204296875,0.17989122867584229,-0.02663082629442215,0.08641702681779861
1696965297209057500,4.1320576171875,0.18308693170547485,0.04473978653550148,-0.057389430701732635
1696965297219071700,4.14207177734375,0.18095645308494568,-0.01810896210372448,0.0874822586774826
1696965297229086200,4.152086181640625,0.18202169239521027,0.06497921794652939,-0.059519894421100616
1696965297239100400,4.162100341796875,0.18628261983394623,-0.05006595328450203,0.10026505589485168
1696965297249115000,4.172114990234375,0.17456506192684174,0.12463226169347763,-0.044606633484363556
1696965297259129000,4.182129150390625,0.18521739542484283,-0.05006595328450203,0.03848154470324516
1696965297269143600,4.1921435546875,0.17563030123710632,0.08095771074295044,0.03954677656292915
1696965297279157800,4.20215771484375,0.18202169239521027,0.04580501839518547,-0.021171506494283676
1696965297289172200,4.212172119140625,0.1777607649564743,0.004260932095348835,0.067242830991745
1696965297299186400,4.2221865234375,0.17989122867584229,0.0852186381816864,-0.028628136962652206
1696965297309200600,4.23220068359375,0.17669552564620972,0.01384802907705307,0.061916667968034744
1696965297319215000,4.242215087890625,0.17669552564620972,0.06497921794652939,-0.014780107885599136
1696965297329229300,4.252229248046875,0.18415215611457825,0.0021304660476744175,0.044872939586639404
1696965297339243500,4.262243408203125,0.18521739542484283,0.05219641700387001,0.020372580736875534
1696965297349258000,4.272258056640625,0.18308693170547485,0.01704372838139534,0.0033288532868027687
1696965297359272200,4.282272216796875,0.19267402589321136,0.00852186419069767,0.07896039634943008
1696965297369286400,4.292286376953125,0.18095645308494568,0.06497921794652939,-0.07443315535783768
1696965297379300600,4.302300537109375,0.18734785914421082,-0.02876129187643528,0.09493889659643173
1696965297389315000,4.312315185546875,0.18521739542484283,0.10013190656900406,-0.022236740216612816
1696965297399329300,4.322329345703125,0.19800019264221191,-0.03408745676279068,0.037416309118270874
1696965297409343500,4.332343505859375,0.1894783228635788,0.0426093190908432,-0.006258244160562754
1696965297419357700,4.342357666015625,0.18628261983394623,0.04473978653550148,0.03209014609456062
1696965297429372200,4.3523720703125,0.19160878658294678,0.03408745676279068,0.00226362026296556
1696965297439386400,4.362386474609375,0.19160878658294678,0.007456631399691105,0.013981183059513569
1696965297449400600,4.372400634765625,0.19160878658294678,0.05539211630821228,-0.014780107885599136
1696965297459414800,4.382414794921875,0.19054356217384338,0.02769605815410614,0.053394805639982224
1696965297469429200,4.39242919921875,0.19586972892284393,0.05645735189318657,-0.047802332788705826
1696965297479443500,4.402443359375,0.19054356217384338,-0.0106523297727108,0.027829213067889214
1696965297489457700,4.412457763671875,0.19373925030231476,0.08415340632200241,0.04274247586727142
1696965297499472000,4.422471923828125,0.19800019264221191,0.007456631399691105,-0.06591129302978516
1696965297509486300,4.432486328125,0.19586972892284393,-0.0159784946590662,0.037416309118270874
1696965297519500500,4.44250048828125,0.1990654170513153,0.06817491352558136,0.00226362026296556
1696965297529514800,4.4525146484375,0.2011958807706833,-0.0159784946590662,-0.026497671380639076
1696965297539529000,4.462529052734375,0.20439158380031586,-0.01917419396340847,0.018242115154862404
1696965297549543400,4.47254345703125,0.19693495333194733,0.07243584841489792,-0.023301972076296806
1696965297559557600,4.4825576171875,0.20439158380031586,-0.02343512699007988,0.006524552125483751
1696965297569571800,4.49257177734375,0.19586972892284393,0.06071828305721283,-0.021171506494283676
1696965297579586000,4.5025859375,0.20652204751968384,0,0.010785484686493874
1696965297589600300,4.512600341796875,0.19586972892284393,0.06178351491689682,-0.028628136962652206
1696965297599614700,4.52261474609375,0.20332635939121246,0.0213046595454216,0.011850717477500439
1696965297609629000,4.53262890625,0.1990654170513153,0.06604444980621338,-0.022236740216612816
1696965297619643100,4.54264306640625,0.20226112008094788,0.02236989326775074,0.019307348877191544
1696965297629657300,4.5526572265625,0.2011958807706833,0.07137060910463333,-0.030758604407310486
1696965297639671800,4.562671875,0.20332635939121246,0.02236989326775074,0.034220609813928604
1696965297649686000,4.57268603515625,0.20439158380031586,0.06497921794652939,-0.038215234875679016
1696965297659700200,4.5827001953125,0.1990654170513153,0.03302222490310669,0.06298190355300903
1696965297669714400,4.59271435546875,0.20545682311058044,0.04580501839518547,-0.06484606117010117
1696965297679729000,4.60272900390625,0.20652204751968384,-0.01810896210372448,0.060851436108350754
1696965297689743000,4.6127431640625,0.20865251123905182,0.08415340632200241,-0.038215234875679016
1696965297699757300,4.62275732421875,0.2097177505493164,-0.04687025398015976,0.04913387447595596
1696965297709771800,4.632771728515625,0.21397867798805237,0.04900071769952774,-0.019041040912270546
1696965297719786000,4.642785888671875,0.210782989859581,-0.02982652559876442,0.026763979345560074
1696965297729800400,4.652800537109375,0.2118482142686844,0.03089175745844841,0.015046416781842709
1696965297739814700,4.662814697265625,0.2118482142686844,0.0053261648863554,0.015046416781842709
1696965297749829000,4.6728291015625,0.2097177505493164,0.0159784946590662,0.007589785382151604
1696965297759843300,4.68284326171875,0.2097177505493164,0.0213046595454216,0.029959678649902344
1696965297769857800,4.69285791015625,0.20652204751968384,0.05113118514418602,-0.001997311832383275
1696965297779872000,4.7028720703125,0.20865251123905182,0.00852186419069767,0.026763979345560074
1696965297789886200,4.71288623046875,0.20439158380031586,0.05858781561255455,-0.030758604407310486
1696965297799900700,4.722900634765625,0.19693495333194733,0.06604444980621338,0.06298190355300903
1696965297809915000,4.732914794921875,0.20758728682994843,0.04580501839518547,-0.038215234875679016
1696965297819929300,4.742929443359375,0.20652204751968384,0.004260932095348835,0.03528584539890289
1696965297829943600,4.752943603515625,0.20865251123905182,0.06604444980621338,-0.010519175790250301
1696965297839958000,4.7629580078125,0.20545682311058044,0.009587096981704235,0.022503048181533813
1696965297849972200,4.77297216796875,0.2097177505493164,0.03515268862247467,0.0001331541279796511
1696965297859986700,4.782986572265625,0.21397867798805237,-0.004260932095348835,0.016111649572849274
1696965297870001000,4.7930009765625,0.2118482142686844,0.01810896210372448,0.021437814459204674
1696965297880015000,4.80301513671875,0.2203700840473175,-0.012782796286046505,-0.0009320789249613881
1696965297890029600,4.813029541015625,0.2118482142686844,0.0063913981430232525,0.015046416781842709
1696965297900043800,4.823043701171875,0.21717438101768494,0.02769605815410614,0.008655018173158169
1696965297910058200,4.833058349609375,0.21397867798805237,-0.0010652330238372087,0.010785484686493874
1696965297920072400,4.843072509765625,0.21610915660858154,0.03728315606713295,-0.011584409512579441
1696965297930087000,4.8530869140625,0.21610915660858154,0.01810896210372448,0.018242115154862404
1696965297940101000,4.86310107421875,0.21717438101768494,0.04367455467581749,-0.011584409512579441
1696965297950115600,4.873115478515625,0.22356578707695007,-0.0213046595454216,0.011850717477500439
1696965297960129800,4.8831298828125,0.21291345357894897,0.08095771074295044,-0.026497671380639076
1696965297970144300,4.893144287109375,0.22356578707695007,0,0.04274247586727142
1696965297980158500,4.903158447265625,0.22356578707695007,0.012782796286046505,-0.055258963257074356
1696965297990172700,4.913172607421875,0.22463101148605347,0.01384802907705307,0.031024912372231483
1696965298000187100,4.923187255859375,0.232087641954422,-0.0031956990715116262,-0.019041040912270546
1696965298010201300,4.933201416015625,0.22463101148605347,0.0031956990715116262,-0.023301972076296806
1696965298020215800,4.9432158203125,0.22676147520542145,0.03302222490310669,0.011850717477500439
1696965298030230000,4.95322998046875,0.232087641954422,0.00852186419069767,-0.013714875094592571
1696965298040244500,4.963244384765625,0.23741380870342255,-0.0213046595454216,-0.038215234875679016
1696965298050258700,4.9732587890625,0.22889193892478943,0.04793548583984375,0.015046416781842709
1696965298060273200,4.983273193359375,0.22463101148605347,0.03302222490310669,-0.020106272771954536
1696965298070287400,4.993287353515625,0.23528334498405457,-0.0213046595454216,-0.026497671380639076
1696965298080301600,5.003301513671875,0.22250054776668549,0.06178351491689682,0.005459319334477186
1696965298090316000,5.01331591796875,0.232087641954422,0.03302222490310669,-0.035019535571336746
1696965298100330200,5.023330322265625,0.22889193892478943,0.01917419396340847,0.008655018173158169
1696965298110344700,5.0333447265625,0.22889193892478943,0.04047885537147522,-0.028628136962652206
1696965298120359000,5.04335888671875,0.22995717823505402,0.01810896210372448,-0.0030625448562204838
1696965298130373400,5.053373291015625,0.22676147520542145,0.05752258375287056,-0.006258244160562754
1696965298140387600,5.0633876953125,0.23315288126468658,0.00852186419069767,-0.019041040912270546
1696965298150402000,5.073402099609375,0.22463101148605347,0.05752258375287056,-0.005193010903894901
1696965298160416300,5.083416259765625,0.2310224175453186,0.03941362351179123,-0.011584409512579441
1696965298170430500,5.093430419921875,0.2310224175453186,0.01917419396340847,-0.011584409512579441
1696965298180445000,5.10344482421875,0.22889193892478943,0.04793548583984375,0.019307348877191544
1696965298190459100,5.113459228515625,0.23528334498405457,0.01384802907705307,-0.038215234875679016
1696965298200473600,5.1234736328125,0.22782671451568604,0.04900071769952774,0.044872939586639404
1696965298210487800,5.13348779296875,0.23634858429431915,0.03834838792681694,-0.005193010903894901
1696965298220502300,5.143502197265625,0.22995717823505402,0.01704372838139534,0.013981183059513569
1696965298230516500,5.1535166015625,0.23528334498405457,0.0319569893181324,0.011850717477500439
1696965298240531000,5.163531005859375,0.22995717823505402,0.04580501839518547,0.021437814459204674
1696965298250545200,5.173545166015625,0.23421810567378998,0.03089175745844841,-0.007323476951569319
1696965298260559600,5.1835595703125,0.23421810567378998,0.0213046595454216,0.05232957378029823
