time,seconds_elapsed,z,y,x
1696958164522398700,0.206398681640625,0.001997311832383275,-0.06284874677658081,-0.010519175790250301
1696958164532414000,0.2164140625,0.011584409512579441,0.0159784946590662,0.08002562820911407
1696958164542431500,0.226431396484375,0.004127778112888336,-0.01491326279938221,-0.052063263952732086
1696958164552450800,0.236450927734375,0.007323476951569319,0.0021304660476744175,0.0555252730846405
1696958164562471400,0.246471435546875,0.0009320789249613881,-0.04473978653550148,-0.010519175790250301
1696958164572493600,0.25649365234375,0.007323476951569319,0.04047885537147522,0.00226362026296556
1696958164582516200,0.26651611328125,0.005193010903894901,0.0053261648863554,0.018242115154862404
1696958164592539400,0.276539306640625,-0.00226362026296556,-0.0213046595454216,-0.045671865344047546
1696958164602562300,0.286562255859375,0.006258244160562754,0.0639139786362648,0.07256899774074554
1696958164612575500,0.296575439453125,-0.0001331541279796511,-0.02343512699007988,-0.09680305421352386
1696958164622588700,0.306588623046875,0.0009320789249613881,0.0063913981430232525,0.024633513763546944
1696958164632602000,0.31660205078125,0.007323476951569319,0.0532616525888443,-0.0030625448562204838
1696958164642615300,0.326615234375,0.0030625448562204838,-0.01810896210372448,-0.06697652488946915
1696958164652628700,0.336628662109375,-0.0011983871227130294,0.06497921794652939,0.004394086077809334
1696958164662642000,0.346641845703125,0.013714875094592571,-0.004260932095348835,-0.015845341607928276
1696958164672655000,0.356655029296875,0.008388710208237171,-0.01810896210372448,-0.05632419511675835
1696958164682668500,0.36666845703125,-0.0011983871227130294,0.04047885537147522,-0.025432437658309937
1696958164692681700,0.376681640625,0.015845341607928276,0.0031956990715116262,0.016111649572849274
1696958164702695000,0.38669482421875,0.006258244160562754,-0.02343512699007988,-0.06804175674915314
1696958164712708400,0.396708251953125,-0.0001331541279796511,0.01810896210372448,0.0033288532868027687
1696958164722721500,0.406721435546875,0.004127778112888336,0.04473978653550148,-0.020106272771954536
1696958164732735000,0.41673486328125,0.010519175790250301,0.0031956990715116262,-0.014780107885599136
1696958164742748200,0.426748046875,0.007323476951569319,-0.05645735189318657,-0.013714875094592571
1696958164752761300,0.43676123046875,0.001997311832383275,-0.01810896210372448,-0.023301972076296806
1696958164762774800,0.44677490234375,0.012649642303586006,0.03302222490310669,0.03848154470324516
1696958164772788000,0.4567880859375,0.009453942999243736,-0.08095771074295044,-0.045671865344047546
1696958164782801200,0.46680126953125,-0.006524552125483751,0.01704372838139534,0.008655018173158169
1696958164792814600,0.476814697265625,0.007323476951569319,0.004260932095348835,0.034220609813928604
1696958164802827800,0.486827880859375,-0.0011983871227130294,0.0053261648863554,-0.040345702320337296
1696958164812841200,0.49684130859375,-0.0011983871227130294,0.007456631399691105,0.04274247586727142
1696958164822854400,0.5068544921875,0.0030625448562204838,0.01171756349503994,-0.012649642303586006
1696958164832867600,0.51686767578125,0.008388710208237171,0.0213046595454216,0.03209014609456062
1696958164842881000,0.526881103515625,-0.0033288532868027687,-0.02236989326775074,-0.045671865344047546
1696958164852894200,0.536894287109375,0.0009320789249613881,0.06071828305721283,0.066177599132061
1696958164862907600,0.54690771484375,0.010519175790250301,-0.007456631399691105,-0.03288906812667847
1696958164872920800,0.5569208984375,-0.00226362026296556,0.04047885537147522,0.011850717477500439
1696958164882934000,0.56693408203125,0.004127778112888336,-0.0063913981430232525,0.011850717477500439
1696958164892947500,0.576947509765625,0.005193010903894901,0.012782796286046505,-0.007323476951569319
1696958164902960600,0.586960693359375,0.008388710208237171,0.02982652559876442,0.026763979345560074
1696958164912973800,0.596973876953125,-0.0033288532868027687,-0.03302222490310669,-0.044606633484363556
1696958164922987300,0.6069873046875,0.017975807189941406,0,0.05659050494432449
1696958164933000400,0.61700048828125,0.008388710208237171,-0.04047885537147522,-0.040345702320337296
1696958164943014000,0.627013916015625,0.004127778112888336,-0.02982652559876442,0.00226362026296556
1696958164953027000,0.637027099609375,0.021171506494283676,-0.01171756349503994,0.022503048181533813
1696958164963040300,0.647040283203125,0.013714875094592571,-0.0745663121342659,-0.03288906812667847
1696958164973053700,0.6570537109375,0.006258244160562754,-0.01384802907705307,-0.023301972076296806
1696958164983067000,0.66706689453125,0.016910573467612267,-0.0053261648863554,0.03848154470324516
1696958164993080000,0.677080078125,0.013714875094592571,-0.04580501839518547,-0.020106272771954536
1696958165003093500,0.687093505859375,-0.004394086077809334,0.01171756349503994,-0.061650361865758896
1696958165013107000,0.69710693359375,0.012649642303586006,0.05965305119752884,0.08428656309843063
1696958165023120100,0.7071201171875,0.006258244160562754,-0.07137060910463333,-0.10639014840126038
1696958165033133600,0.717133544921875,0.001997311832383275,0.06817491352558136,0.04913387447595596
1696958165043146800,0.727146728515625,-0.0011983871227130294,-0.05219641700387001,-0.043541401624679565
1696958165053160200,0.73716015625,0.012649642303586006,0.05752258375287056,0.023568280041217804
1696958165063173600,0.747173583984375,-0.0001331541279796511,-0.03834838792681694,-0.052063263952732086
1696958165073186800,0.757186767578125,-0.0033288532868027687,0.03408745676279068,0.004394086077809334
1696958165083200300,0.7672001953125,0.0030625448562204838,0.03408745676279068,0.004394086077809334
1696958165093213400,0.77721337890625,0.001997311832383275,0.02450035884976387,-0.047802332788705826
1696958165103227000,0.787226806640625,-0.0001331541279796511,0.02769605815410614,0.03209014609456062
1696958165113240000,0.797239990234375,-0.0001331541279796511,-0.004260932095348835,-0.037150003015995026
1696958165123253500,0.80725341796875,0.012649642303586006,0.05539211630821228,0.036351077258586884
1696958165133267000,0.817266845703125,-0.00226362026296556,-0.02663082629442215,-0.03928046673536301
1696958165143280000,0.827280029296875,0.004127778112888336,-0.007456631399691105,0.012915950268507004
1696958165153293600,0.83729345703125,0.004127778112888336,0.03089175745844841,0.03528584539890289
1696958165163306800,0.847306640625,-0.00226362026296556,-0.01810896210372448,-0.09147688746452332
1696958165173320200,0.8573203125,0.004127778112888336,-0.0031956990715116262,0.08109086751937866
1696958165183333600,0.867333740234375,0.009453942999243736,-0.04580501839518547,-0.07762885838747025
1696958165193346800,0.877346923828125,0.005193010903894901,-0.004260932095348835,0.025698747485876083
1696958165203360300,0.8873603515625,-0.004394086077809334,-0.06604444980621338,-0.061650361865758896
1696958165213373400,0.89737353515625,0.014780107885599136,0.02982652559876442,0.048068638890981674
1696958165223387000,0.907386962890625,-0.0033288532868027687,-0.07137060910463333,-0.1042596846818924
1696958165233400000,0.917400146484375,-0.005459319334477186,0.02556559257209301,0.029959678649902344
1696958165243413500,0.92741357421875,-0.00226362026296556,-0.01704372838139534,-0.037150003015995026
1696958165253427000,0.937427001953125,0.005193010903894901,0.00852186419069767,-0.042476166039705276
1696958165263440100,0.947440185546875,0.004127778112888336,-0.04367455467581749,0.009720250964164734
1696958165273453600,0.95745361328125,-0.008655018173158169,-0.0031956990715116262,-0.06804175674915314
1696958165283466800,0.967466796875,0.005193010903894901,0.07776200771331787,0.034220609813928604
1696958165293480200,0.977480224609375,-0.0011983871227130294,-0.05113118514418602,-0.07443315535783768
1696958165303493600,0.98749365234375,-0.005459319334477186,0.06178351491689682,-0.008388710208237171
1696958165313506800,0.9975068359375,0.007323476951569319,-0.03941362351179123,0.054460037499666214
1696958165323520300,1.007520263671875,-0.008655018173158169,-0.0010652330238372087,-0.15219517052173615
1696958165333533400,1.017533447265625,0.0030625448562204838,0.01384802907705307,0.12796111404895782
1696958165343547000,1.027546875,0.001997311832383275,-0.07563154399394989,-0.11917294561862946
1696958165353560000,1.03756005859375,0.006258244160562754,0.0021304660476744175,0.08215609937906265
1696958165363573500,1.047573486328125,-0.013981183059513569,-0.0426093190908432,-0.0936073511838913
1696958165373587000,1.0575869140625,0.0030625448562204838,0.04473978653550148,0.09387365728616714
1696958165383600000,1.06760009765625,-0.0033288532868027687,-0.04367455467581749,-0.07549838721752167
1696958165393613600,1.077613525390625,-0.011850717477500439,-0.009587096981704235,0.029959678649902344
1696958165403626800,1.087626708984375,-0.012915950268507004,0.02023942768573761,-0.013714875094592571
1696958165413640200,1.09764013671875,-0.006524552125483751,0.07243584841489792,0.047003407031297684
1696958165423653600,1.107653564453125,-0.008655018173158169,-0.06604444980621338,-0.055258963257074356
1696958165433666800,1.117666748046875,-0.020372580736875534,0.04793548583984375,0.017176883295178413
1696958165443680300,1.12768017578125,0.0009320789249613881,0.009587096981704235,0.021437814459204674
1696958165453693400,1.137693359375,-0.015046416781842709,-0.02023942768573761,-0.055258963257074356
1696958165463707000,1.147706787109375,-0.019307348877191544,0.05752258375287056,0.044872939586639404
1696958165473720000,1.157719970703125,-0.004394086077809334,-0.07350108027458191,-0.012649642303586006
1696958165483733500,1.1677333984375,-0.006524552125483751,0.01491326279938221,-0.015845341607928276
1696958165493747000,1.177746826171875,-0.012915950268507004,-0.012782796286046505,0.015046416781842709
1696958165503760100,1.187760009765625,-0.010785484686493874,-0.03302222490310669,-0.045671865344047546
1696958165513773600,1.197773681640625,0.0009320789249613881,-0.0021304660476744175,0.07256899774074554
1696958165523786800,1.207786865234375,-0.016111649572849274,-0.06284874677658081,-0.10958584398031235
1696958165533800200,1.21780029296875,-0.004394086077809334,-0.0063913981430232525,0.10985215753316879
1696958165543813600,1.227813720703125,-0.0011983871227130294,-0.0532616525888443,-0.07975932210683823
1696958165553826800,1.237826904296875,-0.013981183059513569,0.06817491352558136,0.041677240282297134
1696958165563840300,1.24784033203125,-0.016111649572849274,-0.0213046595454216,-0.06591129302978516
1696958165573853400,1.257853515625,-0.0011983871227130294,0.04900071769952774,0.08535179495811462
1696958165583867000,1.267866943359375,-0.007589785382151604,-0.05645735189318657,-0.04993279650807381
1696958165593880000,1.277880126953125,-0.018242115154862404,0.09267527610063553,-0.031823836266994476
1696958165603893500,1.2878935546875,-0.010785484686493874,0.0639139786362648,0.10026505589485168
1696958165613907000,1.297906982421875,-0.0033288532868027687,-0.13634982705116272,-0.09999874979257584
1696958165623920000,1.307920166015625,-0.0033288532868027687,-0.00852186419069767,0.0555252730846405
1696958165633933600,1.31793359375,-0.006524552125483751,0.04047885537147522,0.0011983871227130294
1696958165643946800,1.32794677734375,-0.0033288532868027687,0.03621792420744896,0.019307348877191544
1696958165653960200,1.337960205078125,0.001997311832383275,-0.08308817446231842,-0.006258244160562754
1696958165663973600,1.3479736328125,-0.009720250964164734,-0.03089175745844841,-0.001997311832383275
1696958165673986800,1.35798681640625,-0.007589785382151604,0.08095771074295044,0.0555252730846405
1696958165684000300,1.368000244140625,-0.0001331541279796511,-0.02450035884976387,-0.024367205798625946
1696958165694013400,1.378013427734375,-0.015046416781842709,-0.03941362351179123,-0.0030625448562204838
1696958165704027000,1.38802685546875,-0.017176883295178413,0.06604444980621338,0.05232957378029823
1696958165714040000,1.3980400390625,0.0030625448562204838,-0.03302222490310669,-0.009453942999243736
1696958165724053500,1.408053466796875,-0.011850717477500439,0.04367455467581749,-0.010519175790250301
1696958165734067000,1.41806689453125,-0.021437814459204674,0.012782796286046505,0.021437814459204674
1696958165744080100,1.428080078125,-0.012915950268507004,-0.03408745676279068,-0.012649642303586006
1696958165754093600,1.438093505859375,0.004127778112888336,0.03834838792681694,0.012915950268507004
1696958165764106800,1.448106689453125,-0.018242115154862404,-0.02663082629442215,-0.011584409512579441
1696958165774120200,1.4581201171875,-0.018242115154862404,-0.00852186419069767,-0.022236740216612816
1696958165784133600,1.468133544921875,0.004127778112888336,-0.0063913981430232525,0.04274247586727142
1696958165794146800,1.478146728515625,-0.012915950268507004,-0.0010652330238372087,-0.10106398165225983
1696958165804160300,1.48816015625,-0.015046416781842709,0.004260932095348835,0.08215609937906265
1696958165814173700,1.498173583984375,-0.010785484686493874,-0.01704372838139534,-0.08934641629457474
1696958165824187000,1.508186767578125,-0.0001331541279796511,-0.02769605815410614,0.028894444927573204
1696958165834200300,1.518200439453125,-0.017176883295178413,0.0319569893181324,-0.030758604407310486
1696958165844213800,1.5282138671875,-0.008655018173158169,-0.02023942768573761,-0.027562905102968216
1696958165854227200,1.538227294921875,-0.00226362026296556,-0.02023942768573761,-0.001997311832383275
1696958165864240600,1.54824072265625,-0.009720250964164734,0.03302222490310669,-0.03608476743102074
1696958165874253800,1.55825390625,-0.007589785382151604,-0.01917419396340847,-0.021171506494283676
1696958165884267300,1.568267333984375,0.0030625448562204838,0.02769605815410614,0.03209014609456062
1696958165894280700,1.57828076171875,-0.012915950268507004,-0.04687025398015976,-0.09786828607320786
1696958165904294100,1.588294189453125,-0.010785484686493874,0.10013190656900406,0.047003407031297684
1696958165914307600,1.5983076171875,0.001997311832383275,-0.01917419396340847,-0.027562905102968216
1696958165924320800,1.60832080078125,-0.0033288532868027687,-0.0010652330238372087,-0.013714875094592571
1696958165934334200,1.618334228515625,-0.008655018173158169,0.01917419396340847,-0.005193010903894901
1696958165944347600,1.62834765625,-0.008655018173158169,0.03515268862247467,0.012915950268507004
1696958165954361000,1.638361083984375,0.010519175790250301,-0.0159784946590662,-0.010519175790250301
1696958165964374300,1.648374267578125,-0.007589785382151604,-0.03621792420744896,0.0001331541279796511
1696958165974387700,1.6583876953125,-0.006524552125483751,0.0021304660476744175,-0.0009320789249613881
1696958165984401200,1.668401123046875,0.008388710208237171,-0.02556559257209301,0.048068638890981674
1696958165994414600,1.67841455078125,0.007323476951569319,-0.07137060910463333,-0.052063263952732086
1696958166004428000,1.688427978515625,-0.008655018173158169,-0.02876129187643528,0.057655736804008484
1696958166014441200,1.698441162109375,-0.0033288532868027687,0.02663082629442215,-0.028628136962652206
1696958166024454700,1.70845458984375,0.006258244160562754,0.004260932095348835,0.053394805639982224
1696958166034468000,1.718468017578125,-0.006524552125483751,-0.04473978653550148,-0.04673709720373154
1696958166044481500,1.7284814453125,-0.015046416781842709,0.06071828305721283,0.060851436108350754
1696958166054495000,1.738494873046875,-0.006524552125483751,0.06817491352558136,-0.037150003015995026
1696958166064508200,1.748508056640625,-0.0001331541279796511,-0.009587096981704235,0.041677240282297134
1696958166074521600,1.758521484375,-0.017176883295178413,0.00852186419069767,-0.038215234875679016
1696958166084535000,1.76853515625,-0.011850717477500439,0.07563154399394989,0.058720968663692474
1696958166094548500,1.778548583984375,0.0030625448562204838,0.0106523297727108,-0.044606633484363556
1696958166104562000,1.78856201171875,-0.0001331541279796511,-0.0319569893181324,0.023568280041217804
1696958166114575000,1.7985751953125,-0.015046416781842709,0.01491326279938221,-0.014780107885599136
1696958166124588500,1.808588623046875,0.001997311832383275,-0.0106523297727108,0.016111649572849274
1696958166134602000,1.81860205078125,0.007323476951569319,-0.0053261648863554,-0.028628136962652206
1696958166144615400,1.828615478515625,-0.008655018173158169,-0.03408745676279068,0.013981183059513569
1696958166154628600,1.838628662109375,0.004127778112888336,-0.012782796286046505,-0.015845341607928276
1696958166164642000,1.84864208984375,0.007323476951569319,-0.0053261648863554,0.011850717477500439
1696958166174655500,1.858655517578125,-0.0001331541279796511,-0.06497921794652939,-0.04993279650807381
1696958166184668700,1.868668701171875,-0.005459319334477186,0.0319569893181324,0.05659050494432449
1696958166194682000,1.87868212890625,-0.0001331541279796511,0.03302222490310669,-0.06484606117010117
1696958166204695300,1.8886953125,0.005193010903894901,-0.08308817446231842,0.022503048181533813
1696958166214708700,1.898708740234375,-0.00226362026296556,0.05219641700387001,-0.015845341607928276
1696958166224722200,1.90872216796875,-0.0001331541279796511,-0.02023942768573761,0.009720250964164734
1696958166234735400,1.9187353515625,0.006258244160562754,-0.03834838792681694,-0.026497671380639076
1696958166244748800,1.928748779296875,-0.005459319334477186,0.04473978653550148,0.020372580736875534
1696958166254762000,1.938761962890625,-0.00226362026296556,0.01491326279938221,-0.041410934180021286
1696958166264775400,1.948775390625,0.007323476951569319,0.0021304660476744175,0.07469946891069412
1696958166274788600,1.95878857421875,-0.0033288532868027687,-0.004260932095348835,-0.09467258304357529
1696958166284802000,1.968802001953125,-0.00226362026296556,0.0021304660476744175,0.08961272984743118
1696958166294815500,1.9788154296875,0.001997311832383275,0.03089175745844841,-0.06591129302978516
1696958166304828700,1.98882861328125,0.009453942999243736,0.01917419396340847,0.0778951644897461
1696958166314842000,1.998842041015625,0.005193010903894901,-0.12250179797410965,-0.07336792349815369
1696958166324855300,2.008855224609375,0.001997311832383275,0.05752258375287056,0.10346075892448425
1696958166334868700,2.01886865234375,0.007323476951569319,0.03089175745844841,-0.061650361865758896
1696958166344882200,2.028882080078125,0.010519175790250301,-0.05539211630821228,0.05232957378029823
1696958166354895400,2.038895263671875,-0.007589785382151604,0.01171756349503994,-0.0009320789249613881
1696958166364908800,2.04890869140625,0.009453942999243736,0.0010652330238372087,0.029959678649902344
1696958166374922000,2.058921875,0.006258244160562754,0.04473978653550148,0.004394086077809334
1696958166384935400,2.068935302734375,-0.004394086077809334,-0.01917419396340847,0.0033288532868027687
1696958166394948600,2.078948486328125,-0.0033288532868027687,0.05219641700387001,0.019307348877191544
1696958166404962000,2.088962158203125,0.004127778112888336,0.01491326279938221,0.008655018173158169
1696958166414975500,2.0989755859375,0.0009320789249613881,-0.0031956990715116262,0.005459319334477186
1696958166424988700,2.10898876953125,-0.009720250964164734,-0.0021304660476744175,-0.001997311832383275
1696958166435002000,2.119002197265625,-0.00226362026296556,0.08415340632200241,0.03209014609456062
1696958166445015300,2.129015380859375,-0.0001331541279796511,-0.02450035884976387,-0.007323476951569319
1696958166455028700,2.13902880859375,-0.008655018173158169,-0.012782796286046505,-0.010519175790250301
1696958166465042200,2.149042236328125,-0.0011983871227130294,0.02663082629442215,0.043807707726955414
1696958166475055400,2.159055419921875,-0.0001331541279796511,0.0159784946590662,-0.013714875094592571
1696958166485068800,2.16906884765625,-0.007589785382151604,-0.02556559257209301,0.009720250964164734
1696958166495082000,2.17908203125,-0.009720250964164734,0.01704372838139534,0.015046416781842709
1696958166505095400,2.189095458984375,0.004127778112888336,0.0053261648863554,0.004394086077809334
1696958166515108600,2.199108642578125,-0.0011983871227130294,-0.02556559257209301,0.026763979345560074
1696958166525122000,2.2091220703125,-0.018242115154862404,-0.0063913981430232525,-0.023301972076296806
1696958166535135500,2.219135498046875,-0.006524552125483751,0.07030537724494934,0.05232957378029823
1696958166545148700,2.229148681640625,0.005193010903894901,-0.07669677585363388,-0.014780107885599136
1696958166555162000,2.239162109375,-0.015046416781842709,0.04687025398015976,-0.024367205798625946
1696958166565175300,2.24917529296875,-0.0011983871227130294,-0.05432688444852829,0.067242830991745
1696958166575188700,2.259188720703125,-0.010785484686493874,0.02343512699007988,-0.08934641629457474
1696958166585202200,2.2692021484375,0.001997311832383275,0.05006595328450203,0.09067796170711517
1696958166595215400,2.27921533203125,-0.00226362026296556,-0.14700216054916382,-0.07443315535783768
1696958166605228800,2.289228759765625,-0.012915950268507004,0.12463226169347763,0.026763979345560074
1696958166615242200,2.2992421875,-0.00226362026296556,-0.02023942768573761,-0.005193010903894901
1696958166625255400,2.30925537109375,0.004127778112888336,-0.01704372838139534,-0.020106272771954536
1696958166635268900,2.319268798828125,-0.008655018173158169,-0.02663082629442215,0.008655018173158169
1696958166645282300,2.3292822265625,-0.004394086077809334,0.05752258375287056,-0.040345702320337296
1696958166655295700,2.339295654296875,0.011584409512579441,0.03302222490310669,0.054460037499666214
1696958166665309200,2.34930908203125,-0.005459319334477186,-0.12463226169347763,-0.09573781490325928
1696958166675322400,2.359322265625,-0.00226362026296556,0.09374050796031952,0.05232957378029823
1696958166685335800,2.369335693359375,0.0030625448562204838,0.02663082629442215,-0.04673709720373154
1696958166695349200,2.379349365234375,0.008388710208237171,-0.0213046595454216,-0.011584409512579441
1696958166705362700,2.38936279296875,-0.005459319334477186,0,-0.022236740216612816
1696958166715376000,2.399376220703125,-0.00226362026296556,0.10119713842868805,-0.044606633484363556
1696958166725389300,2.409389404296875,0.0009320789249613881,0.11397993564605713,0.0033288532868027687
1696958166735402800,2.41940283203125,-0.005459319334477186,0.0159784946590662,-0.0829550251364708
1696958166745416200,2.429416259765625,-0.008655018173158169,0.09267527610063553,-0.0009320789249613881
1696958166755429600,2.4394296875,-0.0033288532868027687,0.08841434121131897,-0.059519894421100616
1696958166765442800,2.44944287109375,-0.007589785382151604,0.09800143539905548,-0.031823836266994476
1696958166775456300,2.459456298828125,-0.007589785382151604,-0.01491326279938221,-0.06271559745073318
1696958166785469700,2.4694697265625,0.007323476951569319,0.0319569893181324,0.0011983871227130294
1696958166795483100,2.479483154296875,0.006258244160562754,-0.02556559257209301,-0.043541401624679565
1696958166805496600,2.48949658203125,-0.010785484686493874,-0.0031956990715116262,-0.047802332788705826
1696958166815509800,2.499509765625,0.001997311832383275,-0.0031956990715116262,0.017176883295178413
1696958166825523200,2.509523193359375,0.005193010903894901,0.01704372838139534,-0.059519894421100616
1696958166835536600,2.51953662109375,-0.006524552125483751,0.0063913981430232525,0.0011983871227130294
1696958166845550000,2.529550048828125,-0.009720250964164734,0.01917419396340847,-0.043541401624679565
1696958166855563500,2.5395634765625,0.001997311832383275,0.05858781561255455,0.021437814459204674
1696958166865576700,2.54957666015625,0.001997311832383275,-0.0213046595454216,-0.07443315535783768
1696958166875590100,2.559590087890625,-0.012915950268507004,0.10119713842868805,0.04274247586727142
1696958166885603600,2.569603515625,-0.013981183059513569,0.05006595328450203,-0.10212921351194382
1696958166895617000,2.579616943359375,-0.0001331541279796511,0.1501978635787964,0.058720968663692474
1696958166905630200,2.589630126953125,-0.007589785382151604,0.02343512699007988,-0.10745538026094437
1696958166915643600,2.5996435546875,-0.019307348877191544,0.17363297939300537,0.00226362026296556
1696958166925657000,2.609656982421875,-0.006524552125483751,0.15126308798789978,-0.05632419511675835
1696958166935670500,2.61967041015625,-0.009720250964164734,0.12569749355316162,-0.055258963257074356
1696958166945684000,2.62968408203125,-0.005459319334477186,0.10545806586742401,-0.03928046673536301
1696958166955697200,2.639697265625,-0.013981183059513569,0.1480673849582672,-0.06697652488946915
1696958166965710600,2.649710693359375,0.0009320789249613881,0.08095771074295044,-0.033954303711652756
1696958166975724000,2.65972412109375,0.004127778112888336,0.02556559257209301,-0.06910699605941772
1696958166985737500,2.669737548828125,-0.019307348877191544,0.01917419396340847,-0.059519894421100616
1696958166995751000,2.6797509765625,-0.025698747485876083,0.02876129187643528,-0.026497671380639076
1696958167005764000,2.68976416015625,-0.0033288532868027687,-0.004260932095348835,-0.012649642303586006
1696958167015777500,2.699777587890625,-0.010785484686493874,-0.12995843589305878,-0.08508548885583878
1696958167025791000,2.709791015625,-0.008655018173158169,-0.08628387749195099,0.05659050494432449
1696958167035804400,2.719804443359375,-0.008655018173158169,-0.10758853703737259,-0.024367205798625946
1696958167045817900,2.72981787109375,-0.016111649572849274,-0.07563154399394989,-0.012649642303586006
1696958167055831000,2.7398310546875,-0.011850717477500439,-0.1374150663614273,0.060851436108350754
1696958167065844500,2.749844482421875,0.001997311832383275,-0.07030537724494934,0.021437814459204674
1696958167075858000,2.75985791015625,0.0030625448562204838,-0.03728315606713295,0.03209014609456062
1696958167085871400,2.769871337890625,-0.017176883295178413,-0.10119713842868805,0.018242115154862404
1696958167095884500,2.779884521484375,-0.010785484686493874,-0.02343512699007988,0.07896039634943008
1696958167105898000,2.78989794921875,-0.007589785382151604,0.05219641700387001,0.08641702681779861
1696958167115911400,2.799911376953125,-0.007589785382151604,-0.08734910935163498,-0.007323476951569319
1696958167125924900,2.8099248046875,-0.009720250964164734,-0.0053261648863554,0.09600412845611572
1696958167135938300,2.819938232421875,-0.009720250964164734,0.03302222490310669,0.040612008422613144
1696958167145951500,2.829951416015625,0.007323476951569319,-0.04154408723115921,0.047003407031297684
1696958167155965000,2.83996484375,0.010519175790250301,-0.10758853703737259,0.08961272984743118
1696958167165978400,2.849978271484375,-0.00226362026296556,-0.0031956990715116262,0.013981183059513569
1696958167175991800,2.85999169921875,0.020106272771954536,-0.02450035884976387,0.13328728079795837
1696958167186005200,2.870005126953125,0.023301972076296806,-0.17789392173290253,-0.025432437658309937
1696958167196018400,2.880018310546875,0.007323476951569319,-0.04793548583984375,0.10239552706480026
1696958167206032000,2.890031982421875,0.013714875094592571,-0.05752258375287056,0.021437814459204674
1696958167216045300,2.90004541015625,0.037150003015995026,-0.10865376889705658,0.0874822586774826
1696958167226058800,2.910058837890625,0.014780107885599136,-0.10545806586742401,0.013981183059513569
1696958167236072000,2.920072021484375,0.007323476951569319,-0.05219641700387001,0.08961272984743118
1696958167246085400,2.93008544921875,0.026497671380639076,-0.07989247888326645,0.024633513763546944
1696958167256098800,2.940098876953125,0.020106272771954536,-0.05113118514418602,0.06298190355300903
1696958167266112300,2.9501123046875,0.006258244160562754,-0.07882724702358246,0.022503048181533813
1696958167276125700,2.960125732421875,0.010519175790250301,-0.01810896210372448,0.05659050494432449
1696958167286139000,2.970138916015625,0.014780107885599136,-0.01810896210372448,0.043807707726955414
1696958167296152300,2.98015234375,0.010519175790250301,-0.05219641700387001,0.048068638890981674
1696958167306165800,2.990165771484375,-0.0011983871227130294,-0.02236989326775074,0.018242115154862404
1696958167316179200,3.00017919921875,0.007323476951569319,0.02556559257209301,0.067242830991745
1696958167326192600,3.010192626953125,-0.0001331541279796511,-0.02876129187643528,0.012915950268507004
1696958167336205800,3.020205810546875,0.001997311832383275,-0.01704372838139534,0.03848154470324516
1696958167346219300,3.03021923828125,-0.004394086077809334,-0.02556559257209301,0.028894444927573204
1696958167356232700,3.040232666015625,-0.0001331541279796511,0.04687025398015976,0.041677240282297134
1696958167366246100,3.05024609375,0.0030625448562204838,-0.07669677585363388,0.0001331541279796511
1696958167376259300,3.06025927734375,-0.010785484686493874,-0.004260932095348835,0.04593817517161369
1696958167386272800,3.070272705078125,-0.004394086077809334,0,0.005459319334477186
1696958167396286200,3.0802861328125,0.001997311832383275,-0.02556559257209301,0.029959678649902344
1696958167406299600,3.090299560546875,-0.008655018173158169,-0.06710968166589737,0.0011983871227130294
1696958167416313000,3.10031298828125,-0.012915950268507004,0.02450035884976387,0.031024912372231483
1696958167426326300,3.110326171875,0.0009320789249613881,-0.03621792420744896,0.012915950268507004
1696958167436339700,3.120339599609375,-0.006524552125483751,-0.06497921794652939,0.004394086077809334
1696958167446353200,3.130353271484375,-0.016111649572849274,0.01704372838139534,0.022503048181533813
1696958167456366600,3.14036669921875,-0.0011983871227130294,0.0010652330238372087,0.029959678649902344
1696958167466380000,3.150380126953125,-0.005459319334477186,-0.02769605815410614,-0.004127778112888336
1696958167476393200,3.160393310546875,-0.009720250964164734,-0.009587096981704235,0.016111649572849274
1696958167486406700,3.17040673828125,-0.013981183059513569,0.04154408723115921,0.027829213067889214
1696958167496420000,3.180420166015625,-0.00226362026296556,0.00852186419069767,0.015046416781842709
1696958167506433500,3.19043359375,-0.0033288532868027687,-0.02023942768573761,0.006524552125483751
1696958167516446700,3.20044677734375,-0.010785484686493874,0.05752258375287056,0.028894444927573204
1696958167526460200,3.210460205078125,0.0009320789249613881,0,0.026763979345560074
1696958167536473600,3.2204736328125,0.006258244160562754,0.02450035884976387,0.012915950268507004
1696958167546487000,3.230487060546875,0.0009320789249613881,0.0213046595454216,0.04593817517161369
1696958167556500500,3.24050048828125,-0.0001331541279796511,0.06071828305721283,0.036351077258586884
1696958167566513700,3.250513671875,0.013714875094592571,0.07350108027458191,0.06404713541269302
1696958167576527000,3.260527099609375,0.007323476951569319,0.06071828305721283,0.022503048181533813
1696958167586540500,3.27054052734375,0.004127778112888336,0.03621792420744896,0.08322133123874664
1696958167596554000,3.280553955078125,0.013714875094592571,0.03515268862247467,0.043807707726955414
1696958167606567400,3.2905673828125,0.011584409512579441,0.07563154399394989,0.067242830991745
1696958167616580600,3.30058056640625,0.007323476951569319,-0.02876129187643528,0.012915950268507004
1696958167626594000,3.310593994140625,0.015845341607928276,0.0319569893181324,0.08002562820911407
1696958167636607500,3.320607421875,0.013714875094592571,-0.00852186419069767,0.022503048181533813
1696958167646621000,3.330620849609375,0.001997311832383275,-0.009587096981704235,0.008655018173158169
1696958167656634400,3.34063427734375,0.0030625448562204838,0.01917419396340847,0.058720968663692474
1696958167666647600,3.3506474609375,0.008388710208237171,0.01704372838139534,0.020372580736875534
1696958167676661000,3.360660888671875,0.0030625448562204838,0.02982652559876442,0.018242115154862404
1696958167686674400,3.37067431640625,-0.010785484686493874,0.007456631399691105,-0.005193010903894901
1696958167696687900,3.38068798828125,0.0009320789249613881,0.04047885537147522,0.05659050494432449
1696958167706701000,3.390701171875,-0.005459319334477186,0.04687025398015976,-0.013714875094592571
1696958167716714500,3.400714599609375,-0.010785484686493874,0.02769605815410614,0.019307348877191544
1696958167726728000,3.41072802734375,-0.015046416781842709,0.06178351491689682,0.025698747485876083
1696958167736741400,3.420741455078125,-0.007589785382151604,0.06071828305721283,0.0001331541279796511
1696958167746754800,3.4307548828125,-0.008655018173158169,0.04793548583984375,0.019307348877191544
1696958167756768000,3.44076806640625,-0.019307348877191544,0.02343512699007988,0.0011983871227130294
1696958167766781400,3.450781494140625,-0.005459319334477186,0.11504516750574112,0.06404713541269302
1696958167776795000,3.460794921875,-0.004394086077809334,0.02769605815410614,0.007589785382151604
1696958167786808300,3.470808349609375,-0.020372580736875534,0.06178351491689682,0.008655018173158169
1696958167796821800,3.48082177734375,-0.0033288532868027687,0.06497921794652939,0.10133028775453568
1696958167806835000,3.4908349609375,-0.004394086077809334,0.09800143539905548,-0.009453942999243736
1696958167816848400,3.500848388671875,-0.012915950268507004,0.08095771074295044,0.050199106335639954
1696958167826861800,3.51086181640625,0.0030625448562204838,0.04900071769952774,0.07576470077037811
1696958167836875300,3.520875244140625,0.0030625448562204838,0.10226237028837204,0.048068638890981674
1696958167846888400,3.530888427734375,-0.004394086077809334,0.08734910935163498,0.023568280041217804
1696958167856902000,3.54090185546875,0.001997311832383275,0.07563154399394989,0.09493889659643173
1696958167866915300,3.550915283203125,0.014780107885599136,0.05113118514418602,0.043807707726955414
1696958167876928800,3.5609287109375,-0.013981183059513569,0.08308817446231842,-0.019041040912270546
1696958167886942200,3.570942138671875,-0.012915950268507004,0.02236989326775074,0.08215609937906265
1696958167896955400,3.580955322265625,-0.020372580736875534,0.03089175745844841,-0.009453942999243736
1696958167906968800,3.59096875,-0.013981183059513569,0.0021304660476744175,-0.004127778112888336
1696958167916982300,3.600982177734375,-0.016111649572849274,-0.13315412402153015,-0.020106272771954536
1696958167926995700,3.61099560546875,-0.005459319334477186,-0.03728315606713295,0.015046416781842709
1696958167937009200,3.621009033203125,-0.028894444927573204,-0.08095771074295044,-0.11917294561862946
1696958167947022300,3.631022216796875,-0.028894444927573204,-0.08841434121131897,-0.007323476951569319
1696958167957035800,3.641035888671875,-0.013981183059513569,-0.11611039936542511,-0.05632419511675835
1696958167967049200,3.65104931640625,-0.024633513763546944,-0.06924014538526535,-0.09147688746452332
1696958167977062700,3.661062744140625,-0.033155377954244614,-0.05858781561255455,-0.05632419511675835
1696958167987075800,3.671075927734375,-0.016111649572849274,-0.09267527610063553,-0.048867564648389816
1696958167997089300,3.68108935546875,-0.022503048181533813,-0.02876129187643528,-0.1031944528222084
1696958168007102700,3.691102783203125,-0.025698747485876083,-0.06284874677658081,-0.048867564648389816
1696958168017116200,3.7011162109375,-0.013981183059513569,-0.0426093190908432,-0.052063263952732086
1696958168027129600,3.711129638671875,-0.013981183059513569,0.0010652330238372087,-0.06910699605941772
1696958168037142800,3.721142822265625,-0.012915950268507004,-0.0639139786362648,-0.061650361865758896
1696958168047156200,3.73115625,0.011584409512579441,-0.0639139786362648,-0.009453942999243736
1696958168057169700,3.741169677734375,-0.0011983871227130294,-0.04580501839518547,-0.10106398165225983
1696958168067183000,3.75118310546875,0.001997311832383275,-0.05965305119752884,-0.017975807189941406
1696958168077196500,3.761196533203125,0.025432437658309937,-0.08628387749195099,-0.011584409512579441
1696958168087209000,3.771208984375,0.014780107885599136,-0.0319569893181324,-0.08508548885583878
1696958168097222400,3.781222412109375,0.015845341607928276,-0.09267527610063553,0.004394086077809334
1696958168107235800,3.79123583984375,0.037150003015995026,-0.11184946447610855,-0.014780107885599136
1696958168117249300,3.801249267578125,0.022236740216612816,-0.02236989326775074,-0.06910699605941772
1696958168127262500,3.811262451171875,0.024367205798625946,-0.09374050796031952,0.011850717477500439
1696958168137276000,3.82127587890625,0.03928046673536301,-0.09800143539905548,0.004394086077809334
1696958168147289300,3.831289306640625,0.017975807189941406,-0.012782796286046505,-0.05632419511675835
1696958168157302800,3.841302734375,0.022236740216612816,-0.05645735189318657,0.031024912372231483
1696958168167316000,3.85131591796875,0.030758604407310486,-0.06178351491689682,0.005459319334477186
1696958168177329400,3.861329345703125,0.010519175790250301,-0.0010652330238372087,-0.052063263952732086
1696958168187342800,3.8713427734375,0.007323476951569319,0.012782796286046505,0.0555252730846405
1696958168197356300,3.881356201171875,0.026497671380639076,-0.07350108027458191,0.012915950268507004
1696958168207369700,3.89136962890625,0.001997311832383275,0.02663082629442215,-0.045671865344047546
1696958168217383000,3.9013828125,0.001997311832383275,0.0063913981430232525,0.05978620424866676
1696958168227396400,3.911396240234375,0.013714875094592571,-0.04900071769952774,0.0033288532868027687
1696958168237409800,3.921409912109375,-0.009720250964164734,0.04580501839518547,-0.03288906812667847
1696958168247423200,3.93142333984375,-0.0033288532868027687,0.0106523297727108,0.06404713541269302
1696958168257436700,3.941436767578125,0.004127778112888336,-0.05752258375287056,-0.004127778112888336
1696958168267449900,3.951449951171875,-0.020372580736875534,0.09374050796031952,-0.027562905102968216
1696958168277463300,3.96146337890625,-0.012915950268507004,-0.02556559257209301,0.07469946891069412
1696958168287476700,3.971476806640625,-0.0011983871227130294,-0.0426093190908432,-0.03608476743102074
1696958168297490200,3.981490234375,-0.025698747485876083,0.06284874677658081,0.0011983871227130294
1696958168307503600,3.991503662109375,-0.022503048181533813,0.01384802907705307,0.016111649572849274
1696958168317516800,4.001516845703125,-0.005459319334477186,0.01384802907705307,0.03209014609456062
1696958168327530200,4.0115302734375,-0.025698747485876083,-0.0319569893181324,-0.07762885838747025
1696958168337543700,4.021543701171875,-0.022503048181533813,0.03728315606713295,0.08109086751937866
1696958168347557000,4.03155712890625,-0.008655018173158169,-0.03621792420744896,-0.022236740216612816
1696958168357570300,4.0415703125,-0.028894444927573204,0.02982652559876442,-0.061650361865758896
1696958168367583700,4.051583740234375,-0.021437814459204674,-0.02236989326775074,0.08961272984743118
1696958168377597200,4.06159716796875,-0.008655018173158169,-0.012782796286046505,-0.04673709720373154
1696958168387610600,4.071610595703125,-0.021437814459204674,0.03089175745844841,0.006524552125483751
1696958168397624000,4.0816240234375,-0.015046416781842709,-0.08202294260263443,0.011850717477500439
1696958168407637200,4.09163720703125,-0.0001331541279796511,0.04047885537147522,0.03954677656292915
1696958168417650700,4.101650634765625,-0.010785484686493874,-0.04900071769952774,-0.07443315535783768
1696958168427664100,4.1116640625,-0.009720250964164734,0.012782796286046505,0.07363422960042953
1696958168437677600,4.121677490234375,0.007323476951569319,-0.009587096981704235,0.0011983871227130294
1696958168447691000,4.13169091796875,-0.005459319334477186,-0.0053261648863554,-0.050998032093048096
1696958168457704200,4.1417041015625,0.001997311832383275,0.03834838792681694,0.07469946891069412
1696958168467717600,4.151717529296875,0.012649642303586006,-0.04793548583984375,-0.030758604407310486
1696958168477731000,4.16173095703125,0.0009320789249613881,0.02556559257209301,-0.03608476743102074
1696958168487744500,4.17174462890625,0.012649642303586006,0.03408745676279068,0.08641702681779861
1696958168497757700,4.1817578125,0.012649642303586006,-0.06710968166589737,-0.07656362652778625
1696958168507771100,4.191771240234375,0.004127778112888336,0.06071828305721283,0.022503048181533813
1696958168517784600,4.20178466796875,0.017975807189941406,-0.02556559257209301,0.015046416781842709
1696958168527798000,4.211798095703125,0.021171506494283676,-0.05539211630821228,-0.026497671380639076
1696958168537811500,4.2218115234375,0.001997311832383275,0.03941362351179123,-0.006258244160562754
1696958168547824600,4.23182470703125,0.020106272771954536,-0.03941362351179123,0.008655018173158169
1696958168557838000,4.241838134765625,0.015845341607928276,-0.02769605815410614,-0.020106272771954536
1696958168567851500,4.2518515625,-0.0001331541279796511,0.01384802907705307,-0.017975807189941406
1696958168577865000,4.261864990234375,0.013714875094592571,-0.04687025398015976,0.015046416781842709
1696958168587878400,4.27187841796875,0.011584409512579441,-0.03515268862247467,-0.017975807189941406
1696958168597891600,4.2818916015625,-0.007589785382151604,0.00852186419069767,-0.024367205798625946
1696958168607905000,4.291905029296875,0.006258244160562754,-0.08202294260263443,0.019307348877191544
1696958168617918500,4.30191845703125,0.007323476951569319,-0.03941362351179123,-0.027562905102968216
1696958168627932000,4.311931884765625,-0.013981183059513569,0,-0.001997311832383275
1696958168637945000,4.321945068359375,-0.00226362026296556,-0.10758853703737259,-0.011584409512579441
1696958168647958500,4.33195849609375,0.004127778112888336,-0.05113118514418602,0.009720250964164734
1696958168657972000,4.341971923828125,-0.019307348877191544,-0.03515268862247467,-0.0712374597787857
1696958168667985400,4.3519853515625,-0.008655018173158169,-0.05539211630821228,0.043807707726955414
1696958168677998800,4.361998779296875,-0.0001331541279796511,-0.10545806586742401,-0.038215234875679016
1696958168688012000,4.372011962890625,-0.017176883295178413,-0.02023942768573761,-0.048867564648389816
1696958168698025500,4.382025390625,-0.008655018173158169,-0.05752258375287056,0.03209014609456062
1696958168708039000,4.392038818359375,-0.008655018173158169,-0.0958709716796875,-0.06271559745073318
1696958168718052400,4.40205224609375,-0.020372580736875534,-0.02343512699007988,-0.033954303711652756
1696958168728065800,4.412065673828125,-0.005459319334477186,-0.10332760214805603,-0.022236740216612816
1696958168738079000,4.422078857421875,-0.0033288532868027687,-0.07989247888326645,-0.055258963257074356
1696958168748092400,4.432092529296875,-0.016111649572849274,-0.03728315606713295,-0.025432437658309937
1696958168758105900,4.44210595703125,0.0030625448562204838,-0.05432688444852829,-0.007323476951569319
1696958168768119300,4.452119384765625,0.005193010903894901,-0.0532616525888443,-0.06271559745073318
1696958168778132500,4.462132568359375,-0.005459319334477186,0.0010652330238372087,-0.047802332788705826
1696958168788146000,4.47214599609375,0.019041040912270546,-0.007456631399691105,0.029959678649902344
1696958168798159400,4.482159423828125,0.015845341607928276,-0.0053261648863554,-0.061650361865758896
1696958168808172800,4.4921728515625,0.008388710208237171,0.06071828305721283,0.0011983871227130294
1696958168818186200,4.502186279296875,0.023301972076296806,-0.06284874677658081,-0.037150003015995026
1696958168828199400,4.512199462890625,0.004127778112888336,0.0852186381816864,-0.061650361865758896
1696958168838212900,4.522212890625,0.010519175790250301,0.0532616525888443,-0.05312849581241608
1696958168848226300,4.532226318359375,0.035019535571336746,-0.03302222490310669,-0.040345702320337296
1696958168858239700,4.54223974609375,0.027562905102968216,-0.06710968166589737,-0.11171631515026093
1696958168868253200,4.552253173828125,0.026497671380639076,0.01384802907705307,-0.03608476743102074
1696958168878266400,4.562266357421875,0.027562905102968216,-0.03515268862247467,-0.13302096724510193
1696958168888279800,4.57227978515625,0.030758604407310486,0.04473978653550148,-0.052063263952732086
1696958168898293200,4.582293212890625,0.026497671380639076,-0.03621792420744896,-0.1138467788696289
1696958168908306700,4.592306640625,0.027562905102968216,0.02982652559876442,-0.09893351793289185
1696958168918320000,4.602320068359375,0.027562905102968216,0.03728315606713295,-0.0712374597787857
1696958168928333300,4.612333251953125,0.011584409512579441,-0.04580501839518547,-0.1575213372707367
1696958168938346800,4.6223466796875,0.023301972076296806,0.07243584841489792,0.005459319334477186
1696958168948360200,4.632360107421875,0.024367205798625946,-0.0319569893181324,-0.1255643367767334
1696958168958373600,4.64237353515625,-0.006524552125483751,0.10119713842868805,-0.08721595257520676
1696958168968386800,4.65238671875,0.013714875094592571,-0.01491326279938221,0.009720250964164734
1696958168978400300,4.662400146484375,0.0009320789249613881,0.05645735189318657,-0.17243459820747375
1696958168988413700,4.67241357421875,-0.009720250964164734,0.11611039936542511,0.028894444927573204
1696958168998427100,4.68242724609375,-0.004394086077809334,-0.03621792420744896,-0.08721595257520676
1696958169008440600,4.692440673828125,-0.007589785382151604,0.10332760214805603,-0.007323476951569319
1696958169018453800,4.702453857421875,-0.03528584539890289,0.04580501839518547,-0.07656362652778625
1696958169028467200,4.71246728515625,-0.021437814459204674,0.04154408723115921,0.026763979345560074
1696958169038480600,4.722480712890625,-0.025698747485876083,0.05752258375287056,-0.030758604407310486
1696958169048494000,4.732494140625,-0.04913387447595596,0.05539211630821228,-0.05312849581241608
1696958169058507500,4.742507568359375,-0.028894444927573204,0.02556559257209301,0.016111649572849274
1696958169068520700,4.752520751953125,-0.03848154470324516,0.08628387749195099,-0.021171506494283676
1696958169078534100,4.7625341796875,-0.040612008422613144,-0.01171756349503994,-0.017975807189941406
1696958169088547600,4.772547607421875,-0.028894444927573204,0.07563154399394989,0.057655736804008484
1696958169098561000,4.78256103515625,-0.031024912372231483,0.0532616525888443,-0.03608476743102074
1696958169108574200,4.79257421875,-0.022503048181533813,0.04900071769952774,-0.041410934180021286
1696958169118587600,4.802587646484375,-0.007589785382151604,-0.01917419396340847,0.03528584539890289
1696958169128601000,4.81260107421875,-0.016111649572849274,0.05752258375287056,-0.060585130006074905
1696958169138614500,4.822614501953125,-0.012915950268507004,0.12250179797410965,0.005459319334477186
1696958169148628000,4.8326279296875,-0.006524552125483751,-0.03515268862247467,-0.001997311832383275
1696958169158641200,4.84264111328125,-0.010785484686493874,0.11291470378637314,-0.027562905102968216
1696958169168654600,4.852654541015625,0.0009320789249613881,0.07563154399394989,-0.016910573467612267
1696958169178668000,4.86266796875,0.005193010903894901,0.04473978653550148,-0.043541401624679565
1696958169188681500,4.872681396484375,0.016910573467612267,0.04687025398015976,0.011850717477500439
1696958169198695000,4.88269482421875,0.001997311832383275,0.13421936333179474,-0.059519894421100616
1696958169208708000,4.8927080078125,0.004127778112888336,0.09693620353937149,0.05232957378029823
1696958169218721500,4.902721435546875,0.027562905102968216,0.00852186419069767,-0.017975807189941406
1696958169228735000,4.91273486328125,0.010519175790250301,0.10013190656900406,-0.012649642303586006
1696958169238748400,4.92274853515625,0.013714875094592571,0.0532616525888443,-0.006258244160562754
1696958169248761600,4.93276171875,0.031823836266994476,0.04154408723115921,0.06830807030200958
1696958169258775000,4.942775146484375,0.013714875094592571,0.07882724702358246,-0.045671865344047546
1696958169268788500,4.95278857421875,0.010519175790250301,0.04367455467581749,0.08109086751937866
1696958169278802000,4.962802001953125,0.040345702320337296,-0.04047885537147522,0.06937330216169357
1696958169288815400,4.9728154296875,0.010519175790250301,0.08308817446231842,-0.060585130006074905
1696958169298828500,4.98282861328125,0.008388710208237171,-0.01704372838139534,0.09174319356679916
1696958169308842000,4.992842041015625,0.016910573467612267,-0.02450035884976387,0.036351077258586884
1696958169318855400,5.00285546875,0.001997311832383275,0.06284874677658081,-0.0009320789249613881
1696958169328868900,5.012868896484375,-0.015046416781842709,0.00852186419069767,0.028894444927573204
1696958169338882300,5.02288232421875,0.001997311832383275,-0.0319569893181324,0.03848154470324516
1696958169348895500,5.0328955078125,-0.008655018173158169,0.02982652559876442,-0.028628136962652206
1696958169358909000,5.042908935546875,-0.028894444927573204,0.05432688444852829,0.024633513763546944
1696958169368922400,5.05292236328125,-0.015046416781842709,0.02982652559876442,0.040612008422613144
1696958169378935800,5.062935791015625,-0.012915950268507004,0.06071828305721283,-0.04673709720373154
1696958169388949000,5.072948974609375,-0.017176883295178413,0.05219641700387001,0.033155377954244614
1696958169398962400,5.08296240234375,-0.020372580736875534,0.03089175745844841,-0.020106272771954536
1696958169408976000,5.092975830078125,-0.028894444927573204,0.14274121820926666,-0.024367205798625946
1696958169418989300,5.1029892578125,-0.03848154470324516,0.12250179797410965,0.012915950268507004
1696958169429002800,5.113002685546875,-0.012915950268507004,0.03728315606713295,0.027829213067889214
1696958169439016000,5.123015869140625,-0.015046416781842709,0.09054480493068695,-0.023301972076296806
1696958169449029400,5.133029296875,-0.024633513763546944,0.06817491352558136,-0.023301972076296806
1696958169459042800,5.143042724609375,-0.004394086077809334,0.0031956990715116262,0.053394805639982224
1696958169469056300,5.15305615234375,-0.008655018173158169,0.05858781561255455,-0.04993279650807381
1696958169479069700,5.163069580078125,-0.013981183059513569,0.007456631399691105,0.066177599132061
1696958169489083000,5.173082763671875,0.008388710208237171,-0.02769605815410614,0.009720250964164734
1696958169499096300,5.183096435546875,0.010519175790250301,0.05219641700387001,0.03528584539890289
1696958169509109800,5.19310986328125,-0.016111649572849274,0.01171756349503994,-0.031823836266994476
1696958169519123200,5.203123291015625,0.008388710208237171,-0.03834838792681694,0.0981345921754837
1696958169529136400,5.213136474609375,0.016910573467612267,-0.03728315606713295,-0.010519175790250301
1696958169539149800,5.22314990234375,-0.0033288532868027687,-0.0106523297727108,0.016111649572849274
1696958169549163300,5.233163330078125,0.017975807189941406,-0.10226237028837204,0.050199106335639954
1696958169559176700,5.2431767578125,0.011584409512579441,-0.05006595328450203,0.011850717477500439
1696958169569190100,5.253190185546875,0.012649642303586006,-0.1278279572725296,-0.020106272771954536
1696958169579203300,5.263203369140625,0.016910573467612267,-0.14380645751953125,0.09174319356679916
1696958169589216800,5.273216796875,0.016910573467612267,-0.15126308798789978,-0.043541401624679565
1696958169599230200,5.283230224609375,0.011584409512579441,-0.08628387749195099,0.06298190355300903
1696958169609243600,5.29324365234375,0.009453942999243736,-0.08841434121131897,-0.004127778112888336
1696958169619257000,5.303257080078125,0.011584409512579441,-0.10332760214805603,0.067242830991745
1696958169629270300,5.313270263671875,-0.004394086077809334,-0.05006595328450203,-0.011584409512579441
1696958169639283700,5.32328369140625,-0.004394086077809334,0.03302222490310669,0.08535179495811462
1696958169649297200,5.333297119140625,0.0009320789249613881,-0.05432688444852829,0.016111649572849274
1696958169659310800,5.343310791015625,-0.004394086077809334,0.0213046595454216,0.0555252730846405
1696958169669324000,5.353323974609375,-0.004394086077809334,-0.08202294260263443,0.034220609813928604
1696958169679337500,5.36333740234375,-0.00226362026296556,-0.0319569893181324,0.03528584539890289
1696958169689350700,5.3733505859375,-0.009720250964164734,0.0031956990715116262,0.051264338195323944
1696958169699363800,5.38336376953125,-0.004394086077809334,-0.10226237028837204,0.020372580736875534
1696958169709377000,5.393376953125,0.006258244160562754,-0.06604444980621338,0.06298190355300903
1696958169719390200,5.40339013671875,-0.007589785382151604,-0.06710968166589737,-0.052063263952732086
1696958169729403400,5.4134033203125,-0.0033288532868027687,0.05219641700387001,0.06830807030200958
1696958169739416800,5.423416748046875,0.006258244160562754,-0.06604444980621338,0.012915950268507004
1696958169749430000,5.433429931640625,-0.020372580736875534,0.02876129187643528,-0.027562905102968216
1696958169759443200,5.443443115234375,-0.008655018173158169,0.05539211630821228,0.11091738939285278
1696958169769456600,5.45345654296875,-0.008655018173158169,0.02556559257209301,0.00226362026296556
1696958169779469800,5.4634697265625,-0.019307348877191544,0.0213046595454216,0.08002562820911407
1696958169789483300,5.473483154296875,-0.011850717477500439,-0.0106523297727108,0.07576470077037811
1696958169799496700,5.48349658203125,0.0009320789249613881,0.0063913981430232525,0.12263495475053787
1696958169809510100,5.49351025390625,-0.010785484686493874,-0.05858781561255455,0.10772168636322021
1696958169819523600,5.503523681640625,-0.031024912372231483,-0.03408745676279068,0.14287437498569489
1696958169829537000,5.513537109375,-0.009720250964164734,0.05965305119752884,0.17589659988880157
1696958169839550500,5.523550537109375,-0.017176883295178413,0.01704372838139534,0.09174319356679916
1696958169849564000,5.53356396484375,-0.023568280041217804,0.007456631399691105,0.1524614691734314
1696958169859577300,5.543577392578125,-0.004394086077809334,0.05006595328450203,0.15672241151332855
1696958169869590800,5.5535908203125,-0.013981183059513569,0.01491326279938221,0.08002562820911407
1696958169879604200,5.563604248046875,-0.013981183059513569,0.04473978653550148,0.16417904198169708
1696958169889617700,5.57361767578125,0.007323476951569319,0.03728315606713295,0.15885287523269653
1696958169899631000,5.583631103515625,-0.0001331541279796511,0.07243584841489792,0.016111649572849274
1696958169909644500,5.59364453125,0.005193010903894901,0.06604444980621338,0.18548369407653809
1696958169919658000,5.603657958984375,0.019041040912270546,0.02236989326775074,0.047003407031297684
1696958169929671400,5.61367138671875,0.011584409512579441,0.11397993564605713,0.10559122264385223
1696958169939684900,5.623684814453125,0.007323476951569319,0.02343512699007988,0.08109086751937866
1696958169949698300,5.6336982421875,0.013714875094592571,0.10013190656900406,0.10559122264385223
1696958169959711700,5.643711669921875,0.006258244160562754,0.0532616525888443,0.017176883295178413
1696958169969725200,5.65372509765625,-0.007589785382151604,0.05752258375287056,0.05659050494432449
1696958169979738600,5.663738525390625,0.0030625448562204838,0.05219641700387001,0.07043853402137756
1696958169989752000,5.673751953125,-0.013981183059513569,0.06817491352558136,-0.022236740216612816
1696958169999765500,5.683765625,-0.008655018173158169,0.07776200771331787,0.06511236727237701
1696958170009779000,5.693779052734375,-0.012915950268507004,-0.012782796286046505,-0.0009320789249613881
1696958170019792400,5.70379248046875,-0.018242115154862404,0.12569749355316162,-0.0009320789249613881
1696958170029805800,5.713805908203125,-0.011850717477500439,0.12037133425474167,-0.007323476951569319
1696958170039819300,5.7238193359375,-0.005459319334477186,0.0319569893181324,-0.012649642303586006
1696958170049832400,5.73383251953125,-0.022503048181533813,0.08628387749195099,-0.016910573467612267
1696958170059846000,5.743845947265625,-0.03209014609456062,0.1693720519542694,-0.026497671380639076
1696958170069859300,5.753859375,-0.013981183059513569,0.08947957307100296,0.029959678649902344
1696958170079872800,5.763872802734375,-0.037416309118270874,0.12569749355316162,-0.050998032093048096
1696958170089886000,5.773885986328125,-0.03954677656292915,0.20026381313800812,-0.013714875094592571
1696958170099899400,5.7838994140625,-0.024633513763546944,0.1501978635787964,0.00226362026296556
1696958170109912600,5.79391259765625,-0.03209014609456062,0.1587197184562683,-0.030758604407310486
1696958170119926000,5.803926025390625,-0.04913387447595596,0.11824086308479309,-0.041410934180021286
1696958170129939200,5.813939208984375,-0.025698747485876083,0.14380645751953125,0.047003407031297684
1696958170139952600,5.82395263671875,-0.027829213067889214,-0.03728315606713295,-0.1149120107293129
1696958170149966000,5.833966064453125,-0.044872939586639404,0.03302222490310669,0.040612008422613144
1696958170159980000,5.84397998046875,-0.0991998240351677,0.1501978635787964,-0.048867564648389816
1696958170169993000,5.853992919921875,-0.040612008422613144,-0.04687025398015976,0.048068638890981674
1696958170180006100,5.864006103515625,-0.043807707726955414,-0.17363297939300537,-0.1575213372707367
1696958170190019000,5.87401904296875,-0.04913387447595596,0.07243584841489792,0.2248973250389099
1696958170200032300,5.8840322265625,-0.07256899774074554,-0.21091613173484802,-0.18628261983394623
1696958170210045200,5.894045166015625,-0.019307348877191544,-0.02982652559876442,0.058720968663692474
1696958170220058400,5.904058349609375,0.001997311832383275,-0.15445879101753235,0.16950520873069763
1696958170230071600,5.914071533203125,-0.010785484686493874,-0.16404588520526886,-0.21823962032794952
1696958170240084700,5.924084716796875,0.005193010903894901,0.04900071769952774,0.17802706360816956
1696958170250098000,5.934097900390625,0.03608476743102074,-0.1693720519542694,0.06937330216169357
1696958170260111400,5.944111328125,-0.007589785382151604,0.05006595328450203,-0.08721595257520676
1696958170270124800,5.954124755859375,0.015845341607928276,0.03941362351179123,0.20998406410217285
1696958170280138200,5.96413818359375,0.029693370684981346,-0.09267527610063553,-0.03288906812667847
1696958170290151700,5.974151611328125,0.028628136962652206,0.10332760214805603,0.08428656309843063
1696958170300165000,5.9841650390625,0.03608476743102074,-0.0745663121342659,0.09174319356679916
1696958170310178800,5.9941787109375,0.045671865344047546,0.007456631399691105,0.053394805639982224
1696958170320192500,6.004192626953125,0.044606633484363556,0.004260932095348835,0.08215609937906265
1696958170330206200,6.014206298828125,0.061650361865758896,-0.03728315606713295,0.11517832428216934
1696958170340219600,6.0242197265625,0.044606633484363556,-0.0063913981430232525,0.024633513763546944
1696958170350233300,6.0342333984375,0.058454662561416626,-0.01171756349503994,0.1311568170785904
1696958170360247000,6.0442470703125,0.061650361865758896,-0.06284874677658081,0.06298190355300903
1696958170370260700,6.0542607421875,0.052063263952732086,0.012782796286046505,0.08215609937906265
1696958170380274000,6.06427392578125,0.048867564648389816,-0.03302222490310669,0.053394805639982224
1696958170390287400,6.074287353515625,0.044606633484363556,-0.04473978653550148,0.06298190355300903
1696958170400300800,6.08430078125,0.03928046673536301,-0.0021304660476744175,0.08961272984743118
1696958170410314200,6.094314208984375,0.029693370684981346,-0.05752258375287056,0.040612008422613144
1696958170420327400,6.104327392578125,0.03608476743102074,-0.06178351491689682,0.0768299326300621
1696958170430340900,6.1143408203125,0.015845341607928276,-0.01491326279938221,0.018242115154862404
1696958170440354000,6.12435400390625,0.0009320789249613881,0.007456631399691105,0.060851436108350754
1696958170450367500,6.134367431640625,0.0009320789249613881,-0.0159784946590662,0.020372580736875534
1696958170460380700,6.144380615234375,-0.0001331541279796511,-0.0053261648863554,0.05978620424866676
1696958170470394000,6.15439404296875,-0.007589785382151604,0.007456631399691105,0.033155377954244614
1696958170480407600,6.164407470703125,-0.008655018173158169,-0.03408745676279068,0.0033288532868027687
1696958170490420700,6.174420654296875,-0.016111649572849274,-0.0426093190908432,0.05659050494432449
1696958170500434200,6.18443408203125,-0.027829213067889214,-0.0426093190908432,0.023568280041217804
1696958170510447400,6.194447265625,-0.034220609813928604,0.03728315606713295,0.057655736804008484
1696958170520460800,6.204460693359375,-0.033155377954244614,0.02450035884976387,0.018242115154862404
1696958170530474200,6.21447412109375,-0.023568280041217804,-0.11930610239505768,0.047003407031297684
1696958170540487400,6.2244873046875,-0.025698747485876083,-0.08095771074295044,0.028894444927573204
1696958170550500900,6.2345009765625,-0.03209014609456062,-0.009587096981704235,0.03954677656292915
1696958170560514000,6.24451416015625,-0.027829213067889214,-0.03302222490310669,0.023568280041217804
1696958170570527500,6.254527587890625,-0.023568280041217804,0.03408745676279068,0.06298190355300903
1696958170580540700,6.264540771484375,-0.009720250964164734,-0.03515268862247467,-0.026497671380639076
1696958170590554000,6.27455419921875,-0.016111649572849274,0.04900071769952774,0.050199106335639954
1696958170600567600,6.284567626953125,0.007323476951569319,-0.02236989326775074,0.03209014609456062
1696958170610580700,6.294580810546875,-0.00226362026296556,-0.00852186419069767,-0.037150003015995026
1696958170620594200,6.30459423828125,0.008388710208237171,0.07882724702358246,0.14500483870506287
1696958170630607400,6.314607421875,0.007323476951569319,-0.04793548583984375,-0.07975932210683823
1696958170640620800,6.324620849609375,0.024367205798625946,0.05432688444852829,0.10133028775453568
1696958170650634200,6.33463427734375,0.03288906812667847,-0.0852186381816864,-0.016910573467612267
1696958170660647400,6.3446474609375,0.021171506494283676,0.02343512699007988,0.053394805639982224
1696958170670660900,6.354660888671875,0.037150003015995026,-0.0213046595454216,0.007589785382151604
1696958170680674000,6.364674072265625,0.03608476743102074,-0.0021304660476744175,0.008655018173158169
1696958170690687500,6.3746875,0.047802332788705826,0.009587096981704235,0.041677240282297134
1696958170700700700,6.38470068359375,0.03608476743102074,0.02556559257209301,-0.048867564648389816
1696958170710714000,6.394714111328125,0.038215234875679016,0.03621792420744896,0.0778951644897461
1696958170720727600,6.4047275390625,0.033954303711652756,0.03302222490310669,-0.09467258304357529
1696958170730741000,6.414740966796875,0.031823836266994476,0.11930610239505768,0.07576470077037811
1696958170740754400,6.42475439453125,0.031823836266994476,-0.04580501839518547,-0.06591129302978516
1696958170750767600,6.434767578125,0.015845341607928276,0.10758853703737259,-0.008388710208237171
1696958170760781000,6.444781005859375,0.027562905102968216,0.04687025398015976,0.0001331541279796511
1696958170770794500,6.45479443359375,0.014780107885599136,0.11184946447610855,-0.0723026916384697
1696958170780808000,6.464807861328125,0.008388710208237171,0.0958709716796875,0.040612008422613144
1696958170790821400,6.4748212890625,0.004127778112888336,0.03515268862247467,-0.0723026916384697
1696958170800834600,6.48483447265625,0.0030625448562204838,0.1587197184562683,0.018242115154862404
1696958170810848000,6.494847900390625,0.011584409512579441,0.01171756349503994,-0.061650361865758896
1696958170820861400,6.504861328125,-0.009720250964164734,0.07243584841489792,-0.023301972076296806
1696958170830875000,6.514875,0.001997311832383275,-0.009587096981704235,-0.05632419511675835
1696958170840888000,6.52488818359375,0.005193010903894901,-0.0159784946590662,0.0011983871227130294
1696958170850901500,6.534901611328125,-0.00226362026296556,-0.012782796286046505,-0.06804175674915314
1696958170860915000,6.5449150390625,-0.005459319334477186,0.01491326279938221,-0.033954303711652756
1696958170870928400,6.554928466796875,-0.010785484686493874,-0.0319569893181324,-0.047802332788705826
1696958170880941800,6.56494189453125,0.0009320789249613881,-0.0063913981430232525,-0.021171506494283676
1696958170890955000,6.574955078125,-0.007589785382151604,0.0319569893181324,-0.028628136962652206
1696958170900968400,6.584968505859375,-0.008655018173158169,0.00852186419069767,-0.050998032093048096
1696958170910982000,6.59498193359375,-0.005459319334477186,0.05965305119752884,0.028894444927573204
1696958170920995300,6.604995361328125,-0.004394086077809334,0.01917419396340847,-0.041410934180021286
1696958170931008800,6.6150087890625,-0.004394086077809334,0.07776200771331787,0.017176883295178413
1696958170941022000,6.62502197265625,-0.0011983871227130294,0.04580501839518547,-0.021171506494283676
1696958170951035400,6.635035400390625,0.011584409512579441,0.05752258375287056,0.040612008422613144
1696958170961048800,6.645048828125,0.004127778112888336,0.06924014538526535,-0.022236740216612816
1696958170971062300,6.655062255859375,0.008388710208237171,0.1065233051776886,0.03848154470324516
1696958170981075500,6.665075439453125,0.022236740216612816,0.05645735189318657,0.020372580736875534
1696958170991089000,6.6750888671875,0.015845341607928276,0.08415340632200241,0.016111649572849274
1696958171001102300,6.685102294921875,0.029693370684981346,0.09693620353937149,0.036351077258586884
1696958171011115800,6.69511572265625,0.027562905102968216,-0.03728315606713295,-0.052063263952732086
1696958171021129200,6.705129150390625,0.0009320789249613881,0.01384802907705307,0.04593817517161369
1696958171031142400,6.715142333984375,-0.026763979345560074,-0.10439283400774002,-0.028628136962652206
1696958171041155800,6.72515576171875,0.038215234875679016,-0.13528458774089813,-0.048867564648389816
1696958171051169300,6.735169189453125,0.03288906812667847,-0.17895914614200592,-0.043541401624679565
1696958171061182700,6.7451826171875,0.021171506494283676,-0.2535254657268524,-0.12662957608699799
1696958171071196200,6.755196044921875,0.029693370684981346,-0.17895914614200592,-0.06697652488946915
1696958171081209300,6.765209228515625,0.023301972076296806,-0.21517707407474518,-0.13302096724510193
1696958171091222800,6.775222900390625,0.015845341607928276,-0.09267527610063553,-0.021171506494283676
1696958171101236200,6.785236328125,-0.006524552125483751,-0.07350108027458191,-0.20332635939121246
1696958171111249700,6.795249755859375,0.009453942999243736,-0.03089175745844841,-0.020106272771954536
1696958171121262800,6.805262939453125,0.011584409512579441,-0.13102366030216217,-0.14899946749210358
1696958171131276300,6.8152763671875,-0.010785484686493874,0.01810896210372448,-0.07762885838747025
1696958171141289700,6.825289794921875,-0.005459319334477186,-0.05432688444852829,-0.11704248189926147
1696958171151303200,6.83530322265625,0.001997311832383275,-0.00852186419069767,-0.052063263952732086
1696958171161316600,6.845316650390625,0.012649642303586006,-0.11504516750574112,-0.1042596846818924
1696958171171329800,6.855329833984375,0.014780107885599136,-0.13421936333179474,-0.09041165560483932
1696958171181343200,6.86534326171875,0.013714875094592571,-0.09693620353937149,-0.037150003015995026
1696958171191356700,6.875356689453125,0.012649642303586006,-0.11291470378637314,-0.11917294561862946
1696958171201370000,6.8853701171875,0.028628136962652206,-0.10545806586742401,0.017176883295178413
1696958171211383600,6.895383544921875,0.028628136962652206,-0.21624229848384857,-0.15432563424110413
1696958171221396700,6.905396728515625,0.022236740216612816,-0.02982652559876442,0.027829213067889214
1696958171231410200,6.91541015625,0.038215234875679016,-0.1810896098613739,-0.10639014840126038
1696958171241423600,6.925423583984375,0.025432437658309937,-0.07776200771331787,-0.038215234875679016
1696958171251437000,6.93543701171875,0.03288906812667847,-0.12143656611442566,-0.030758604407310486
1696958171261450200,6.9454501953125,0.021171506494283676,-0.05219641700387001,-0.08508548885583878
1696958171271463700,6.955463623046875,0.03288906812667847,-0.07882724702358246,0.013981183059513569
1696958171281477000,6.96547705078125,0.023301972076296806,-0.10332760214805603,-0.08615072071552277
1696958171291490600,6.975490478515625,0.026497671380639076,-0.01491326279938221,0.021437814459204674
1696958171301504000,6.98550390625,0.016910573467612267,-0.08308817446231842,-0.07443315535783768
1696958171311517200,6.99551708984375,0.022236740216612816,0.03728315606713295,0.018242115154862404
1696958171321530600,7.005530517578125,0.017975807189941406,-0.0958709716796875,-0.048867564648389816
1696958171331544000,7.0155439453125,0.011584409512579441,0.01491326279938221,-0.007323476951569319
1696958171341557500,7.0255576171875,0.012649642303586006,0.01810896210372448,0.019307348877191544
1696958171351571000,7.035571044921875,0.013714875094592571,-0.01491326279938221,-0.040345702320337296
1696958171361584000,7.045584228515625,0.008388710208237171,-0.01917419396340847,0.037416309118270874
1696958171371597600,7.05559765625,0.006258244160562754,0.0106523297727108,-0.047802332788705826
1696958171381611000,7.065611083984375,0.001997311832383275,0.0532616525888443,0.037416309118270874
1696958171391624400,7.07562451171875,0.005193010903894901,-0.0106523297727108,-0.016910573467612267
1696958171401638000,7.085637939453125,0.0030625448562204838,0.04367455467581749,0.03954677656292915
1696958171411651000,7.095651123046875,0.004127778112888336,-0.01704372838139534,-0.020106272771954536
1696958171421664500,7.10566455078125,-0.009720250964164734,0.02556559257209301,0.018242115154862404
1696958171431678000,7.115677978515625,0.009453942999243736,-0.0053261648863554,0.044872939586639404
1696958171441691400,7.12569140625,-0.0033288532868027687,-0.04580501839518547,0.0011983871227130294
1696958171451704600,7.13570458984375,0.001997311832383275,-0.01917419396340847,0.013981183059513569
1696958171461718000,7.145718017578125,-0.005459319334477186,0.05539211630821228,0.03528584539890289
1696958171471731500,7.1557314453125,0.011584409512579441,-0.0426093190908432,0.022503048181533813
1696958171481745000,7.165744873046875,-0.00226362026296556,-0.04154408723115921,-0.031823836266994476
1696958171491758300,7.17575830078125,0.009453942999243736,0.04687025398015976,0.08322133123874664
1696958171501771500,7.185771484375,-0.00226362026296556,0.02556559257209301,-0.07017222791910172
1696958171511785000,7.195784912109375,0.0009320789249613881,0.04687025398015976,0.066177599132061
1696958171521798400,7.20579833984375,0.007323476951569319,0.02450035884976387,-0.043541401624679565
1696958171531811800,7.215811767578125,0.0009320789249613881,0.08947957307100296,0.022503048181533813
1696958171541825300,7.2258251953125,0.011584409512579441,-0.01491326279938221,-0.004127778112888336
1696958171551838500,7.23583837890625,0.005193010903894901,0.03408745676279068,0.010785484686493874
1696958171561852000,7.245851806640625,0.021171506494283676,-0.004260932095348835,-0.0030625448562204838
1696958171571865300,7.255865234375,0.016910573467612267,-0.03941362351179123,0.022503048181533813
1696958171581878800,7.265878662109375,0.013714875094592571,-0.0213046595454216,-0.03928046673536301
1696958171591892000,7.27589208984375,0.023301972076296806,0.0021304660476744175,0.067242830991745
1696958171601905400,7.285905517578125,0.015845341607928276,-0.05539211630821228,-0.050998032093048096
1696958171611918800,7.2959189453125,0.017975807189941406,0.02343512699007988,0.03209014609456062
1696958171621932300,7.305932373046875,0.006258244160562754,0.007456631399691105,-0.031823836266994476
1696958171631945700,7.31594580078125,0.012649642303586006,0.0010652330238372087,-0.004127778112888336
1696958171641959000,7.325958984375,0.011584409512579441,0.05432688444852829,0.0001331541279796511
1696958171651972400,7.335972412109375,0.009453942999243736,-0.03408745676279068,-0.045671865344047546
1696958171661985800,7.34598583984375,0.012649642303586006,0.0639139786362648,0.048068638890981674
1696958171671999200,7.355999267578125,0.004127778112888336,-0.0106523297727108,-0.054193731397390366
1696958171682012700,7.3660126953125,0.010519175790250301,0.01171756349503994,0.03209014609456062
1696958171692025900,7.37602587890625,0.004127778112888336,0.00852186419069767,-0.041410934180021286
1696958171702039300,7.386039306640625,-0.004394086077809334,0.02769605815410614,0.007589785382151604
1696958171712052700,7.396052734375,0.013714875094592571,-0.0021304660476744175,0.012915950268507004
1696958171722066200,7.406066162109375,0.004127778112888336,-0.0639139786362648,-0.012649642303586006
1696958171732079400,7.416079345703125,-0.0001331541279796511,0.06284874677658081,0.005459319334477186
1696958171742092800,7.4260927734375,0.015845341607928276,-0.03728315606713295,0.037416309118270874
1696958171752106200,7.436106201171875,-0.004394086077809334,-0.02236989326775074,-0.043541401624679565
1696958171762119700,7.44611962890625,0.008388710208237171,-0.0031956990715116262,0.06511236727237701
1696958171772133000,7.456133056640625,0.008388710208237171,-0.01491326279938221,-0.042476166039705276
1696958171782146300,7.466146240234375,0.004127778112888336,-0.01810896210372448,0.021437814459204674
1696958171792159700,7.47615966796875,0.012649642303586006,-0.03089175745844841,0.020372580736875534
1696958171802173200,7.486173095703125,0.006258244160562754,-0.0159784946590662,-0.026497671380639076
1696958171812186600,7.4961865234375,0.011584409512579441,0.012782796286046505,0.043807707726955414
1696958171822200000,7.506199951171875,0.012649642303586006,-0.11078423261642456,-0.030758604407310486
1696958171832213200,7.516213134765625,0.008388710208237171,0.03515268862247467,0.023568280041217804
1696958171842226700,7.526226806640625,0.004127778112888336,0.004260932095348835,0.015046416781842709
1696958171852240100,7.536240234375,0.017975807189941406,-0.05965305119752884,-0.022236740216612816
1696958171862253600,7.546253662109375,-0.004394086077809334,0.0213046595454216,0.004394086077809334
1696958171872266800,7.556266845703125,0.013714875094592571,0.02343512699007988,0.050199106335639954
1696958171882280200,7.5662802734375,0.004127778112888336,0.0010652330238372087,-0.020106272771954536
1696958171892293600,7.576293701171875,-0.0033288532868027687,-0.012782796286046505,-0.001997311832383275
1696958171902307000,7.58630712890625,0.011584409512579441,0.01491326279938221,0.047003407031297684
1696958171912320500,7.596320556640625,0.0030625448562204838,0.02450035884976387,-0.021171506494283676
1696958171922333700,7.606333740234375,-0.00226362026296556,-0.02450035884976387,0.00226362026296556
1696958171932347100,7.61634716796875,0.013714875094592571,-0.07030537724494934,0.04593817517161369
1696958171942360600,7.626360595703125,-0.010785484686493874,0.08095771074295044,-0.061650361865758896
1696958171952374000,7.6363740234375,0.007323476951569319,-0.012782796286046505,0.08322133123874664
1696958171962387500,7.646387451171875,0.0030625448562204838,-0.08308817446231842,-0.06910699605941772
1696958171972400600,7.656400634765625,-0.004394086077809334,0.05645735189318657,0.027829213067889214
1696958171982414000,7.6664140625,0.001997311832383275,0.007456631399691105,-0.0009320789249613881
1696958171992427500,7.676427490234375,0.006258244160562754,-0.0426093190908432,-0.012649642303586006
1696958172002441000,7.68644091796875,-0.011850717477500439,-0.00852186419069767,-0.04993279650807381
1696958172012454100,7.6964541015625,0.017975807189941406,0.0213046595454216,0.10452599078416824
1696958172022467600,7.706467529296875,0.007323476951569319,-0.06497921794652939,-0.14154283702373505
1696958172032481000,7.71648095703125,-0.006524552125483751,0.09800143539905548,0.060851436108350754
1696958172042494500,7.726494384765625,0.006258244160562754,-0.06604444980621338,0.03528584539890289
1696958172052508000,7.7365078125,-0.0011983871227130294,0.01384802907705307,-0.1575213372707367
1696958172062521000,7.74652099609375,-0.0011983871227130294,0.04793548583984375,0.14393961429595947
1696958172072534500,7.756534423828125,0.001997311832383275,-0.0426093190908432,-0.1351514458656311
1696958172082548000,7.7665478515625,-0.004394086077809334,0.10013190656900406,0.09174319356679916
1696958172092561400,7.7765615234375,0.005193010903894901,-0.07030537724494934,-0.08615072071552277
1696958172102574800,7.786574951171875,0.0009320789249613881,0.09267527610063553,0.05659050494432449
1696958172112588000,7.796588134765625,-0.008655018173158169,-0.02876129187643528,-0.06591129302978516
1696958172122601500,7.8066015625,0.012649642303586006,0.02982652559876442,0.060851436108350754
1696958172132615000,7.816614990234375,-0.0011983871227130294,-0.03834838792681694,-0.05632419511675835
1696958172142628400,7.82662841796875,-0.005459319334477186,0.04367455467581749,0.015046416781842709
1696958172152641800,7.836641845703125,0.012649642303586006,0.004260932095348835,0.06511236727237701
1696958172162655000,7.846655029296875,-0.005459319334477186,-0.01704372838139534,-0.12343387305736542
1696958172172668400,7.85666845703125,0.001997311832383275,0.07243584841489792,0.13222205638885498
1696958172182681900,7.866681884765625,0.004127778112888336,-0.07669677585363388,-0.09041165560483932
1696958172192695300,7.8766953125,-0.012915950268507004,0.13528458774089813,0.04593817517161369
1696958172202708500,7.88670849609375,0.007323476951569319,-0.04687025398015976,0.023568280041217804
1696958172212722000,7.896721923828125,-0.004394086077809334,-0.0021304660476744175,-0.050998032093048096
1696958172222735400,7.9067353515625,-0.007589785382151604,0.07350108027458191,0.041677240282297134
1696958172232748800,7.916748779296875,-0.0001331541279796511,-0.02982652559876442,-0.017975807189941406
1696958172242762200,7.92676220703125,-0.00226362026296556,0.004260932095348835,0.024633513763546944
1696958172252775400,7.936775390625,-0.004394086077809334,-0.00852186419069767,-0.013714875094592571
1696958172262788900,7.946788818359375,0.004127778112888336,0.04154408723115921,0.043807707726955414
1696958172272802300,7.95680224609375,-0.016111649572849274,-0.0159784946590662,-0.057389430701732635
1696958172282815700,7.966815673828125,0.006258244160562754,0.004260932095348835,0.08854749798774719
1696958172292829200,7.9768291015625,-0.005459319334477186,-0.03089175745844841,-0.04993279650807381
1696958172302842400,7.98684228515625,-0.011850717477500439,0.05539211630821228,0.021437814459204674
1696958172312855800,7.996855712890625,0.011584409512579441,-0.04473978653550148,0.10026505589485168
1696958172322869200,8.006869140625,-0.010785484686493874,-0.04473978653550148,-0.14154283702373505
1696958172332882700,8.016882568359375,-0.0011983871227130294,0.08734910935163498,0.15033100545406342
1696958172342895900,8.026895751953125,-0.017176883295178413,-0.02556559257209301,-0.08828118443489075
1696958172352909300,8.036909423828124,-0.007589785382151604,0.04687025398015976,0.067242830991745
1696958172362922800,8.0469228515625,-0.00226362026296556,-0.10013190656900406,-0.03288906812667847
1696958172372936200,8.056936279296876,-0.015046416781842709,0.11078423261642456,0.010785484686493874
1696958172382949600,8.06694970703125,-0.018242115154862404,-0.0106523297727108,0.020372580736875534
1696958172392962800,8.076962890625,-0.0001331541279796511,-0.06071828305721283,-0.021171506494283676
1696958172402976300,8.086976318359374,-0.016111649572849274,0.0063913981430232525,-0.001997311832383275
1696958172412989700,8.09698974609375,-0.011850717477500439,-0.0053261648863554,0.0001331541279796511
1696958172423003100,8.107003173828126,-0.010785484686493874,0.01384802907705307,0.027829213067889214
1696958172433016600,8.1170166015625,-0.011850717477500439,-0.0852186381816864,-0.055258963257074356
1696958172443029800,8.12702978515625,-0.012915950268507004,-0.0010652330238372087,0.05232957378029823
1696958172453043200,8.137043212890624,-0.009720250964164734,-0.01810896210372448,-0.025432437658309937
1696958172463056600,8.147056640625,-0.012915950268507004,-0.08308817446231842,0.009720250964164734
1696958172473070000,8.157070068359374,-0.015046416781842709,-0.03834838792681694,0.0033288532868027687
1696958172483083300,8.167083251953125,-0.017176883295178413,0.02663082629442215,0.0001331541279796511
1696958172493096700,8.1770966796875,-0.0011983871227130294,-0.05645735189318657,0.007589785382151604
1696958172503110100,8.187110107421875,-0.022503048181533813,-0.01810896210372448,-0.030758604407310486
1696958172513123600,8.19712353515625,-0.012915950268507004,0.0063913981430232525,0.054460037499666214
1696958172523137000,8.207136962890624,-0.0033288532868027687,-0.03089175745844841,-0.038215234875679016
1696958172533150200,8.217150146484375,-0.022503048181533813,0.03089175745844841,0.006524552125483751
