time,seconds_elapsed,z,y,x
1696965336240818700,0.175818603515625,-1.9717659950256348,0.07290126383304596,0.6605478525161743
1696965336250834400,0.18583447265625,1.9335565567016602,0.08527043461799622,0.7063949704170227
1696965336260852700,0.195852783203125,0.2030315399169922,-0.1679723858833313,0.7822016477584839
1696965336270873000,0.205873046875,-1.3949050903320312,0.030469819903373718,0.7269567847251892
1696965336280895500,0.2158955078125,2.0070858001708984,-0.1797206848859787,0.633413553237915
1696965336290919200,0.225919189453125,-1.401503562927246,-0.14703509211540222,1.1070351600646973
1696965336300944000,0.23594384765625,1.7950716018676758,-0.12793880701065063,0.9095427989959717
1696965336310969300,0.24596923828125,0.6948032379150391,0.07676617801189423,0.18347424268722534
1696965336320994800,0.255994873046875,-1.4337005615234375,0.11920936405658722,0.7450580596923828
1696965336331012000,0.26601220703125,1.9262924194335938,-0.00356370210647583,0.831787109375
1696965336341026300,0.2760263671875,-2.1374611854553223,-0.150227889418602,0.19218429923057556
1696965336351040500,0.28604052734375,1.0278558731079102,-0.06171718239784241,0.2744573950767517
1696965336361054700,0.2960546875,0.3948783874511719,0.0873694121837616,0.13335445523262024
1696965336371069000,0.30606884765625,-0.8944377899169922,-0.12585929036140442,0.2553030550479889
1696965336381083100,0.316083251953125,0.4002504348754883,0.053070783615112305,0.24760979413986206
1696965336391097300,0.326097412109375,-1.1178388595581055,0.2085859775543213,-0.37534675002098083
1696965336401111600,0.336111572265625,-0.2635517120361328,0.2115010768175125,-0.2922835946083069
1696965336411125800,0.346125732421875,-0.17026138305664062,-0.6241226196289062,-0.1793883740901947
1696965336421140000,0.356139892578125,-1.0496110916137695,0.03432382643222809,-0.2838290333747864
1696965336431154200,0.366154296875,-0.2357931137084961,0.6665720343589783,0.4784482419490814
1696965336441168400,0.37616845703125,1.113999366760254,0.114617258310318,0.6043205857276917
1696965336451182800,0.386182861328125,-1.9565320014953613,-0.19824238121509552,-0.2631363272666931
1696965336461197000,0.396197021484375,0.9487953186035156,0.2569689154624939,-0.47891950607299805
1696965336471211300,0.406211181640625,-0.8256082534790039,0.24680083990097046,-0.059898823499679565
1696965336481225500,0.4162255859375,-0.6982631683349609,-0.03436380624771118,0.2360248565673828
1696965336491239700,0.42623974609375,-0.08237838745117188,-0.33116263151168823,-0.463957279920578
1696965336501254000,0.43625390625,-0.4800224304199219,0.17914485931396484,-0.08343994617462158
1696965336511268000,0.44626806640625,0.40456581115722656,-0.06631115078926086,0.2924426198005676
1696965336521282300,0.4562822265625,0.3797731399536133,-0.02904421091079712,0.33400633931159973
1696965336531296500,0.466296630859375,0.001476287841796875,0.12636056542396545,0.30859532952308655
1696965336541310700,0.476310791015625,-0.3812227249145508,0.29957321286201477,0.6112381815910339
1696965336551325000,0.486324951171875,0.8894853591918945,0.0065742433071136475,0.6299310922622681
1696965336561339100,0.496339111328125,-1.0999536514282227,0.0033923685550689697,-0.18394368886947632
1696965336571353300,0.506353271484375,0.14692401885986328,0.4029282033443451,0.2255409061908722
1696965336581367600,0.516367431640625,1.7298240661621094,0.004367798566818237,0.37153372168540955
1696965336591381800,0.5263818359375,-0.898681640625,-0.8277093172073364,-0.27613919973373413
1696965336601396000,0.53639599609375,-1.2345809936523438,0.14393746852874756,0.015864521265029907
1696965336611410200,0.54641015625,1.9604368209838867,0.2210213541984558,0.28913354873657227
1696965336621424400,0.55642431640625,-0.6131753921508789,-0.10588979721069336,0.10799810290336609
1696965336631438600,0.5664384765625,1.214980125427246,-0.33850008249282837,-0.12489429116249084
1696965336641452800,0.576452880859375,-0.5834903717041016,-0.12577933073043823,0.31951195001602173
1696965336651467000,0.586467041015625,1.0432252883911133,0.3333125114440918,0.5180087685585022
1696965336661481200,0.596481201171875,1.1448678970336914,0.10118106007575989,-0.11362168192863464
1696965336671495400,0.606495361328125,-0.6530733108520508,0.08223581314086914,-0.29094550013542175
1696965336681509600,0.616509521484375,0.6519937515258789,-0.3005247116088867,0.3428909182548523
1696965336691524000,0.626524169921875,0.11330032348632812,0.4052475094795227,0.40670621395111084
1696965336701538300,0.636538330078125,0.7602119445800781,-0.33654576539993286,-0.13817566633224487
1696965336711552500,0.646552490234375,-0.10466289520263672,-0.012892067432403564,0.2628556489944458
1696965336721566700,0.656566650390625,-0.04160881042480469,0.03354641795158386,0.46529489755630493
1696965336731581000,0.666580810546875,0.4202919006347656,0.06001099944114685,-0.3709619343280792
1696965336741595100,0.67659521484375,-1.0560483932495117,0.29599690437316895,-0.5933026671409607
1696965336751609300,0.686609375,-0.015872955322265625,-0.4248810410499573,-0.05630624294281006
1696965336761623600,0.69662353515625,0.29067325592041016,0.0645449161529541,-0.006131231784820557
1696965336771637800,0.7066376953125,0.46521854400634766,-0.1915551722049713,-0.16350007057189941
1696965336781652000,0.71665185546875,-0.3150653839111328,-0.3623485863208771,-0.4481353759765625
1696965336791666200,0.726666259765625,-0.9889745712280273,0.261044442653656,0.43992674350738525
1696965336801680400,0.736680419921875,0.4556598663330078,-0.18795490264892578,0.26717281341552734
1696965336811694600,0.746694580078125,-1.400740623474121,0.4492734670639038,-0.06763362884521484
1696965336821708800,0.756708740234375,1.3056459426879883,-0.3201916217803955,0.06234419345855713
1696965336831723300,0.76672314453125,-0.7949695587158203,0.35855987668037415,0.5211813449859619
1696965336841737500,0.776737548828125,0.6137828826904297,-0.06728813052177429,0.11610835790634155
1696965336851751700,0.786751708984375,-0.21184635162353516,-0.029105305671691895,-0.23918020725250244
1696965336861766000,0.796765869140625,-0.40251636505126953,-0.23405979573726654,-0.30353885889053345
1696965336871780400,0.8067802734375,-1.5306358337402344,0.2341112494468689,0.17192047834396362
1696965336881794600,0.816794677734375,1.5331687927246094,-0.557828426361084,0.09137839078903198
1696965336891808800,0.826808837890625,-0.9922046661376953,-0.2693464756011963,-0.5150867104530334
1696965336901823000,0.836822998046875,-0.09506893157958984,0.03310286998748779,-0.45844703912734985
1696965336911837400,0.84683740234375,0.44538307189941406,0.00007998943328857422,-0.08537030220031738
1696965336921851600,0.8568515625,-0.49669837951660156,-0.5141013860702515,-0.557717502117157
1696965336931865900,0.866865966796875,-0.8353080749511719,-0.06998765468597412,-0.6160829067230225
1696965336941880000,0.876880126953125,0.8641347885131836,0.12159869074821472,-0.3943946957588196
1696965336951894500,0.88689453125,-0.27707576751708984,-0.09207046031951904,-0.4831753671169281
1696965336961908700,0.89690869140625,-0.3916759490966797,-0.31324297189712524,-0.6008919477462769
1696965336971923000,0.9069228515625,-0.8644590377807617,0.1937428116798401,-0.45801687240600586
1696965336981937200,0.916937255859375,0.5188188552856445,0.37627652287483215,-0.1683085560798645
1696965336991951600,0.92695166015625,0.01597309112548828,-0.12900501489639282,-0.2994994819164276
1696965337001965800,0.9369658203125,0.31436634063720703,-0.15662506222724915,-0.6801278591156006
1696965337011980000,0.94697998046875,-0.2806978225708008,0.2861582040786743,-0.4141899645328522
1696965337021994200,0.956994140625,0.5941267013549805,0.19852831959724426,-0.12013554573059082
1696965337032008700,0.9670087890625,0.7345418930053711,-0.11955195665359497,-0.20374369621276855
1696965337042023000,0.97702294921875,-0.9361076354980469,-0.35691988468170166,-0.09779560565948486
1696965337052037000,0.987037109375,0.9552974700927734,0.6472976207733154,0.4453463554382324
1696965337062051300,0.99705126953125,1.0918235778808594,-0.011997610330581665,0.41131240129470825
1696965337072065800,1.007065673828125,-0.70166015625,-0.5383127927780151,0.06685656309127808
1696965337082080000,1.017080078125,1.2394866943359375,0.2923066020011902,-0.401494562625885
1696965337092094200,1.02709423828125,-0.7735786437988281,-0.022329241037368774,0.08568918704986572
1696965337102108400,1.0371083984375,0.6991090774536133,-0.3841295838356018,-0.4665161967277527
1696965337112123000,1.047122802734375,-0.0853586196899414,-0.06702399253845215,-0.24259144067764282
1696965337122137000,1.05713720703125,0.11481094360351562,0.3100453019142151,0.4578988552093506
1696965337132151300,1.0671513671875,0.9104080200195312,0.0824364423751831,0.6087784171104431
1696965337142165500,1.07716552734375,0.09952926635742188,-0.6077228784561157,-0.3509035110473633
1696965337152180000,1.087179931640625,-0.9207239151000977,0.3363575339317322,0.4125220775604248
1696965337162194200,1.097194091796875,2.6125831604003906,0.1453377604484558,0.49231040477752686
1696965337172208400,1.10720849609375,-1.1417980194091797,-0.16564881801605225,0.09716778993606567
1696965337182222600,1.11722265625,0.32582950592041016,-0.8764161467552185,-0.081706702709198
1696965337192237000,1.127237060546875,0.9015159606933594,0.4276220202445984,-0.1769273281097412
1696965337202251300,1.137251220703125,-0.7584228515625,0.2624044418334961,-0.2659246027469635
1696965337212265500,1.147265380859375,1.2182950973510742,-0.7459638118743896,0.27139079570770264
1696965337222279700,1.15727978515625,-0.6583232879638672,-0.4878058433532715,-0.5922514200210571
1696965337232294100,1.167294189453125,-0.5902585983276367,0.2430528700351715,-0.04582780599594116
1696965337242308400,1.177308349609375,1.7173995971679688,-0.012969672679901123,-0.31843918561935425
1696965337252322600,1.187322509765625,-1.065561294555664,-0.11350855231285095,-0.5945757627487183
1696965337262336800,1.197336669921875,-0.06825542449951172,0.024717509746551514,-0.5302342772483826
1696965337272351200,1.207351318359375,0.046695709228515625,0.14823803305625916,0.5669316649436951
1696965337282365400,1.217365478515625,1.0006589889526367,-0.06475275754928589,0.028587400913238525
1696965337292379600,1.227379638671875,-1.7859420776367188,0.2098502516746521,-0.5384568572044373
1696965337302393900,1.237393798828125,0.5142526626586914,0.2747388482093811,-0.15387427806854248
1696965337312408300,1.247408203125,-0.06957244873046875,-0.07113325595855713,-0.21619462966918945
1696965337322422500,1.257422607421875,-1.455728530883789,-0.3194107711315155,-0.13701176643371582
1696965337332436700,1.267436767578125,1.1691980361938477,-0.19961431622505188,-0.7788496017456055
1696965337342451000,1.277450927734375,-2.2463760375976562,0.3170650899410248,-0.11623626947402954
1696965337352465200,1.287465087890625,0.8747825622558594,0.11936172842979431,0.47056007385253906
1696965337362479600,1.297479736328125,0.04088115692138672,-0.30374211072921753,-0.2318115234375
1696965337372493800,1.307493896484375,-2.377750873565674,0.07983922958374023,-0.24110251665115356
1696965337382508000,1.317508056640625,2.3174943923950195,0.17288705706596375,-0.27039849758148193
1696965337392522200,1.327522216796875,-2.191783905029297,0.046359628438949585,-0.11831480264663696
1696965337402536700,1.33753662109375,1.0717144012451172,-0.5680936574935913,-0.42264389991760254
1696965337412551000,1.347551025390625,-1.0086259841918945,0.450024276971817,-0.08433341979980469
1696965337422565000,1.357565185546875,0.8958024978637695,0.032789140939712524,0.4084172248840332
1696965337432579300,1.367579345703125,0.17128753662109375,0.2345007359981537,0.13442373275756836
1696965337442593800,1.37759375,0.7450113296508789,-0.09241041541099548,-0.07965672016143799
1696965337452608000,1.38760791015625,0.059838294982910156,0.14982008934020996,0.4454492926597595
1696965337462622200,1.397622314453125,1.2714719772338867,-0.533169686794281,0.6781109571456909
1696965337472636400,1.407636474609375,-0.6544561386108398,-0.35002729296684265,-0.6365618705749512
1696965337482651000,1.41765087890625,0.3728513717651367,0.15437811613082886,-0.3449062705039978
1696965337492665000,1.4276650390625,0.9122247695922852,-0.06019425392150879,-0.32622578740119934
1696965337502679300,1.43767919921875,-1.305830955505371,-0.4652387499809265,-0.44643405079841614
1696965337512693500,1.447693603515625,0.9914131164550781,-0.45186981558799744,-0.6219899654388428
1696965337522708000,1.4577080078125,-1.3364505767822266,0.5820755958557129,-0.8135374784469604
1696965337532722200,1.46772216796875,0.4902915954589844,-0.18411660194396973,-0.03848063945770264
1696965337542736400,1.477736328125,0.38716983795166016,0.03059220314025879,-0.1633850336074829
1696965337552750600,1.48775048828125,-0.7902717590332031,-0.7074891328811646,-0.5848588943481445
1696965337562765000,1.49776513671875,-0.8507699966430664,0.8928751945495605,0.23994803428649902
1696965337572779300,1.507779296875,2.932309150695801,-0.22493770718574524,0.2824990153312683
1696965337582793500,1.51779345703125,-2.0449442863464355,-0.2855111062526703,-0.44495609402656555
1696965337592807700,1.5278076171875,1.0711545944213867,-0.0005891919136047363,-0.45920243859291077
1696965337602822100,1.537822265625,0.9690313339233398,0.2329273223876953,0.23760437965393066
1696965337612836400,1.54783642578125,-0.055817604064941406,-0.041285544633865356,0.48032844066619873
1696965337622850600,1.5578505859375,1.6716737747192383,-0.9834304451942444,-0.900647759437561
1696965337632865000,1.567864990234375,-2.2506909370422363,0.8477941751480103,-0.3638899326324463
1696965337642879200,1.577879150390625,1.514425277709961,-0.8498890399932861,-0.14077723026275635
1696965337652893400,1.5878935546875,-0.7561779022216797,-0.06824210286140442,-0.5747731328010559
1696965337662908000,1.597907958984375,0.39617252349853516,-0.14301371574401855,-0.7355409860610962
1696965337672922000,1.607922119140625,0.6605005264282227,0.140568345785141,0.2015644907951355
1696965337682936600,1.6179365234375,0.7752723693847656,-0.4307107627391815,0.7166646122932434
1696965337692950800,1.62795068359375,0.2990074157714844,0.039562225341796875,-0.13236373662948608
1696965337702965200,1.63796533203125,-0.08350658416748047,-0.19280335307121277,0.10644149780273438
1696965337712979500,1.6479794921875,0.3836956024169922,-0.04762426018714905,0.6291074156761169
1696965337722994000,1.657993896484375,0.1382732391357422,-0.33654600381851196,0.3659532070159912
1696965337733008100,1.668008056640625,0.9084920883178711,-0.26676130294799805,-0.1692333221435547
1696965337743022600,1.678022705078125,-1.601180076599121,-0.07636672258377075,-0.061690688133239746
1696965337753036800,1.688036865234375,1.3746337890625,-0.6370412111282349,0.23419791460037231
1696965337763051000,1.698051025390625,-2.199833393096924,0.11354637145996094,0.28548288345336914
1696965337773065500,1.7080654296875,0.9224739074707031,-0.8351463079452515,-0.6396479606628418
1696965337783079700,1.71807958984375,-1.873159408569336,-0.3469622731208801,-0.6500847339630127
1696965337793094100,1.72809423828125,-0.4427051544189453,-0.6689887046813965,-0.4071924090385437
1696965337803108400,1.7381083984375,-0.1304922103881836,-0.24972540140151978,-0.3400539755821228
1696965337813122800,1.748122802734375,-0.815333366394043,-0.3151373267173767,-0.8018941283226013
1696965337823137000,1.758136962890625,-0.738677978515625,-0.5194184184074402,0.06908756494522095
1696965337833151500,1.7681513671875,0.09923267364501953,0.2699177861213684,0.22389954328536987
1696965337843165700,1.778165771484375,-0.11097240447998047,-0.3768964409828186,-0.23653465509414673
1696965337853180000,1.788179931640625,-0.08621692657470703,-0.8648906946182251,-0.33600538969039917
1696965337863194400,1.7981943359375,0.46213626861572266,-0.2583545446395874,-0.6098355650901794
1696965337873208600,1.80820849609375,-0.7597312927246094,0.2244550585746765,-0.07146292924880981
1696965337883223000,1.81822314453125,1.7930068969726562,-0.5494080185890198,-0.20374667644500732
1696965337893237200,1.8282373046875,-1.3751888275146484,-0.2934703826904297,-0.45658037066459656
1696965337903251700,1.838251708984375,1.1479425430297852,-0.19377964735031128,0.20424139499664307
1696965337913266000,1.848265869140625,0.7032489776611328,0.13566887378692627,0.41472649574279785
1696965337923280400,1.8582802734375,0.4942770004272461,-0.8269674181938171,-0.6665592789649963
1696965337933294600,1.868294677734375,-1.280355453491211,-0.5666123628616333,-0.503021776676178
1696965337943308800,1.878308837890625,-0.15357208251953125,-0.5167605876922607,0.22508299350738525
1696965337953323300,1.8883232421875,0.7143468856811523,-0.2149028182029724,-0.061628103256225586
1696965337963337500,1.89833740234375,-1.9765424728393555,-0.3572167754173279,-0.1842498779296875
1696965337973352000,1.90835205078125,0.8692770004272461,0.04864919185638428,-0.5017159581184387
1696965337983366100,1.9183662109375,-1.3508405685424805,-0.1449585258960724,-0.24438154697418213
1696965337993380600,1.928380615234375,-0.12360763549804688,-0.42420169711112976,-0.540645956993103
1696965338003394800,1.938394775390625,-0.5849742889404297,-0.2570227086544037,-0.5253133177757263
1696965338013409000,1.948408935546875,-0.2955808639526367,-0.10244014859199524,-0.09088057279586792
1696965338023423200,1.95842333984375,0.08734893798828125,0.05469387769699097,0.017448246479034424
1696965338033437700,1.968437744140625,0.2060375213623047,0.03229552507400513,-0.08902782201766968
1696965338043452000,1.978451904296875,-0.9145517349243164,-0.45576730370521545,-0.08063310384750366
1696965338053466000,1.988466064453125,-0.35218238830566406,0.4422348737716675,0.12701153755187988
1696965338063480300,1.998480224609375,1.3415594100952148,-0.20873841643333435,-0.3310398757457733
1696965338073494800,2.008494873046875,-1.715444564819336,-0.8593054413795471,-0.2771143615245819
1696965338083509000,2.018509033203125,0.4000673294067383,-0.06467500329017639,-0.6070126891136169
1696965338093523200,2.028523193359375,0.6555719375610352,-0.09672805666923523,-0.04075890779495239
1696965338103537400,2.038537353515625,-0.43430042266845703,-0.5611460208892822,0.006378531455993652
1696965338113552000,2.0485517578125,0.44008636474609375,-0.3970485329627991,0.043686091899871826
1696965338123566000,2.058566162109375,0.14264488220214844,-0.14156106114387512,0.19451266527175903
1696965338133580300,2.068580322265625,0.7662792205810547,-0.5516095161437988,0.1592513918876648
1696965338143594500,2.078594482421875,0.3620309829711914,-0.43324577808380127,-0.12389534711837769
1696965338153609000,2.08860888671875,-0.08774566650390625,-0.5245769619941711,0.10211819410324097
1696965338163623200,2.098623046875,0.7375736236572266,0.0768122673034668,0.32098037004470825
1696965338173637400,2.108637451171875,1.7492170333862305,-0.8866212368011475,-0.0740586519241333
1696965338183651600,2.118651611328125,-2.163393497467041,0.012688517570495605,0.25272369384765625
1696965338193666000,2.128666015625,3.0195674896240234,-0.5200076103210449,-0.18945574760437012
1696965338203680300,2.13868017578125,-2.2387213706970215,0.015642523765563965,0.0806586742401123
1696965338213694500,2.148694580078125,0.3035755157470703,-0.4165518879890442,0.3015773296356201
1696965338223708700,2.158708740234375,1.131937026977539,-0.09447586536407471,-0.6951537728309631
1696965338233723100,2.16872314453125,-1.624220848083496,-0.3263375163078308,-1.0755252838134766
1696965338243737300,2.1787373046875,0.6348209381103516,-0.3583434224128723,0.20451319217681885
1696965338253751600,2.18875146484375,0.1456289291381836,-0.4012436866760254,0.4780394434928894
1696965338263765800,2.198765869140625,-1.0516300201416016,-0.11917072534561157,-0.06667083501815796
1696965338273780200,2.2087802734375,0.34613990783691406,-0.44708698987960815,0.2646844983100891
1696965338283794400,2.21879443359375,-0.0033245086669921875,0.5355788469314575,0.5797387957572937
1696965338293808600,2.22880859375,0.8788909912109375,-0.21376946568489075,0.5042975544929504
1696965338303822800,2.23882275390625,-0.6034221649169922,-0.6111308336257935,-0.30360090732574463
1696965338313837300,2.24883740234375,-1.0868444442749023,-0.5344166159629822,0.189405620098114
1696965338323851500,2.2588515625,0.70648193359375,0.6849676966667175,0.36948609352111816
1696965338333865700,2.26886572265625,0.27868175506591797,0.07225307822227478,0.5456549525260925
1696965338343880000,2.2788798828125,-0.19000530242919922,-0.9050717353820801,-0.08123111724853516
1696965338353894400,2.288894287109375,-0.6945943832397461,-0.2513827681541443,0.27032244205474854
1696965338363908600,2.29890869140625,1.454737663269043,-0.4798413813114166,0.46237891912460327
1696965338373922800,2.3089228515625,-0.7459821701049805,-0.5055354833602905,-0.5973540544509888
1696965338383937000,2.31893701171875,-1.0378828048706055,-0.04976963996887207,0.12535208463668823
1696965338393951500,2.328951416015625,2.5295162200927734,-0.14586368203163147,-0.04489576816558838
1696965338403965700,2.338965576171875,-2.2272253036499023,-0.07986053824424744,0.35178714990615845
1696965338413980000,2.34897998046875,1.8606643676757812,-1.1412583589553833,0.36778318881988525
1696965338423994000,2.358994140625,-2.406670570373535,-0.5002585053443909,-0.10271948575973511
1696965338434008600,2.369008544921875,1.6056737899780273,-0.34394919872283936,0.1913253664970398
1696965338444022800,2.379022705078125,-1.4250335693359375,-0.034608304500579834,-0.09797900915145874
1696965338454037000,2.389037109375,-1.1233749389648438,-0.6862417459487915,-0.422781765460968
1696965338464051200,2.39905126953125,0.551356315612793,-0.9512939453125,-0.623162031173706
1696965338474065700,2.409065673828125,-2.6275458335876465,-0.18656212091445923,0.0627816915512085
1696965338484079900,2.419079833984375,2.888453483581543,-0.6632148623466492,-0.15892207622528076
1696965338494094000,2.429093994140625,-1.402480125427246,-0.720643162727356,-0.6732602119445801
1696965338504108500,2.439108642578125,0.1399364471435547,-0.7587871551513672,-0.26771605014801025
1696965338514122800,2.449122802734375,0.8933210372924805,-0.1349892020225525,-0.1581869125366211
1696965338524137500,2.459137451171875,0.20745277404785156,-1.1111469268798828,-0.40786975622177124
1696965338534152000,2.46915185546875,-0.6802663803100586,-1.0806143283843994,-0.3220904469490051
1696965338544166400,2.47916650390625,2.0803098678588867,0.46721529960632324,0.48730260133743286
1696965338554181000,2.48918115234375,0.7932376861572266,-0.709793210029602,0.06471610069274902
1696965338564195300,2.4991953125,-0.9227333068847656,-0.9678000211715698,-0.4057059586048126
1696965338574209800,2.509209716796875,0.9610786437988281,-0.4610767066478729,-0.6150972843170166
1696965338584224000,2.51922412109375,0.5804872512817383,-0.2549285888671875,-0.13453274965286255
1696965338594238500,2.529238525390625,0.18722057342529297,-1.1354514360427856,0.14377212524414062
1696965338604252700,2.539252685546875,1.0452795028686523,-0.9150649309158325,-0.28622353076934814
1696965338614267000,2.549266845703125,-0.5091972351074219,-0.6706925630569458,-0.20348137617111206
1696965338624281000,2.559281005859375,0.628748893737793,-0.5880354046821594,0.45556211471557617
1696965338634295600,2.569295654296875,1.5946779251098633,-0.6543965935707092,-0.5288668274879456
1696965338644309800,2.579309814453125,-1.8515052795410156,-1.002071738243103,-0.11981219053268433
1696965338654324000,2.589323974609375,1.4915590286254883,-0.5111603736877441,0.6129869818687439
1696965338664338200,2.599338134765625,1.2086095809936523,-0.4129990339279175,0.45799922943115234
1696965338674352600,2.6093525390625,0.21151351928710938,-0.5144296288490295,-0.1047782301902771
1696965338684366800,2.619366943359375,0.8644161224365234,-0.9151259660720825,-0.5852218866348267
1696965338694381000,2.629381103515625,-1.5818109512329102,-0.8309714198112488,0.061230480670928955
1696965338704395300,2.639395263671875,1.4114742279052734,-0.8496518731117249,-0.293474018573761
1696965338714409700,2.64940966796875,-0.46447181701660156,-0.44396793842315674,-0.741907000541687
1696965338724424000,2.659423828125,0.00545501708984375,-0.794807493686676,-0.10587424039840698
1696965338734438100,2.669438232421875,-0.2804422378540039,-0.4584169387817383,0.9638752341270447
1696965338744452400,2.679452392578125,1.3236465454101562,-0.4566175639629364,-0.16815310716629028
1696965338754466600,2.689466552734375,-1.4156370162963867,-0.8106589317321777,-0.5864356756210327
1696965338764481000,2.69948095703125,0.7758407592773438,-0.6719349026679993,0.4669620990753174
1696965338774495200,2.7094951171875,0.5818605422973633,-0.7848851680755615,0.1730436086654663
1696965338784509400,2.719509521484375,-1.3297348022460938,-0.6885088682174683,-0.9682542085647583
1696965338794523600,2.729523681640625,-0.4938182830810547,-0.3436129093170166,-0.2730315327644348
1696965338804538000,2.7395380859375,-0.17217731475830078,-0.6932003498077393,0.06313639879226685
1696965338814552300,2.74955224609375,-0.7729806900024414,-0.9067089557647705,-0.12666034698486328
1696965338824566500,2.75956640625,0.17482852935791016,-0.8661218881607056,-1.0593020915985107
1696965338834580700,2.769580810546875,-1.0519170761108398,-0.7281327843666077,-0.08381742238998413
1696965338844595200,2.77959521484375,0.8897771835327148,-0.6043018698692322,-0.04438138008117676
1696965338854609400,2.789609375,-0.5741367340087891,-1.0073429346084595,-0.6915134787559509
1696965338864623600,2.79962353515625,-1.0728368759155273,-0.9835795164108276,-0.37484991550445557
1696965338874637800,2.809637939453125,0.3536663055419922,-0.6372840404510498,0.24599379301071167
1696965338884652300,2.81965234375,0.08965015411376953,-0.6549621820449829,-0.20546507835388184
1696965338894666500,2.82966650390625,0.07040023803710938,-0.294491708278656,-0.426736980676651
1696965338904680700,2.8396806640625,1.0583181381225586,-0.9382877349853516,-0.35891973972320557
1696965338914695000,2.84969482421875,-1.6757631301879883,-0.6124813556671143,0.3079102635383606
1696965338924709400,2.85970947265625,2.134531021118164,-0.9545520544052124,0.12427067756652832
1696965338934723600,2.8697236328125,-0.9282808303833008,-1.0346335172653198,-0.5617587566375732
1696965338944737800,2.87973779296875,-0.3806324005126953,-0.34423595666885376,-0.30970633029937744
1696965338954752000,2.889751953125,2.1745853424072266,-1.2480179071426392,-0.13364821672439575
1696965338964766500,2.899766357421875,-1.4324092864990234,-0.5073181986808777,-0.5176494717597961
1696965338974780700,2.90978076171875,1.2651300430297852,-1.3494569063186646,-0.7635981440544128
1696965338984795000,2.919794921875,-0.5769538879394531,-0.21908845007419586,-0.33954012393951416
1696965338994809000,2.92980908203125,1.0913915634155273,-1.0865875482559204,0.05066633224487305
1696965339004823600,2.939823486328125,-0.11537456512451172,-0.7487920522689819,-0.7758336067199707
1696965339014837800,2.949837646484375,0.1431751251220703,-0.6520019769668579,-0.38601207733154297
1696965339024852200,2.959852294921875,1.6755237579345703,-0.6996265053749084,0.05092179775238037
1696965339034866400,2.969866455078125,0.04172992706298828,-0.9361492395401001,-0.287464439868927
1696965339044880600,2.979880615234375,0.4906892776489258,-0.7190508246421814,-0.26189249753952026
1696965339054895000,2.98989501953125,0.947575569152832,0.033000946044921875,0.12886452674865723
1696965339064909300,2.999909423828125,0.08484458923339844,-0.7568838000297546,0.020222187042236328
1696965339074923800,3.009923828125,0.9392223358154297,-0.6563271284103394,-0.456840455532074
1696965339084938000,3.01993798828125,-0.17158985137939453,-0.9456303119659424,-0.8751119375228882
1696965339094952400,3.029952392578125,0.22087669372558594,-0.1841544359922409,0.23079371452331543
1696965339104966700,3.039966552734375,1.2846364974975586,-1.6302990913391113,-0.3806390166282654
1696965339114981000,3.049981201171875,-2.119029998779297,-0.0014942437410354614,-0.3342990279197693
1696965339124995300,3.059995361328125,1.8369245529174805,-0.7509539127349854,-0.2335079312324524
1696965339135009500,3.070009521484375,-1.3203210830688477,-0.5269389152526855,0.4480099678039551
1696965339145024000,3.08002392578125,1.1140575408935547,-0.7764140367507935,-0.6312365531921387
1696965339155038200,3.0900380859375,-0.8852167129516602,-0.6624531149864197,-0.7081320285797119
1696965339165052700,3.100052734375,0.531275749206543,-0.042960137128829956,-0.5124832987785339
1696965339175067000,3.11006689453125,-0.2439584732055664,-1.6429778337478638,-0.27614593505859375
1696965339185081300,3.120081298828125,-0.9590911865234375,0.162389874458313,-0.12233299016952515
1696965339195095600,3.130095458984375,1.3741464614868164,-0.9671164751052856,-0.77232426404953
1696965339205110000,3.140110107421875,-2.937016487121582,-0.17173519730567932,-0.2179943323135376
1696965339215124200,3.150124267578125,2.8171138763427734,-0.46466392278671265,0.18814635276794434
1696965339225138400,3.160138427734375,-1.3989391326904297,-0.9099254608154297,-0.6036736965179443
1696965339235153000,3.17015283203125,-1.9434900283813477,-0.5703555345535278,-0.782114565372467
1696965339245167000,3.1801669921875,2.212787628173828,-0.24091634154319763,0.13627749681472778
1696965339255181600,3.190181640625,-1.2803239822387695,-0.6443727612495422,0.08717107772827148
1696965339265195800,3.20019580078125,-0.6079320907592773,-1.0110654830932617,-0.6408003568649292
1696965339275210200,3.210210205078125,-0.4528188705444336,-0.39483731985092163,0.28385859727859497
1696965339285224400,3.220224365234375,0.9046134948730469,-0.5856726169586182,0.4339669346809387
1696965339295239000,3.230239013671875,-0.6984844207763672,-0.6735225915908813,-0.3585219979286194
1696965339305253000,3.240253173828125,-0.7393560409545898,-0.3378288745880127,-0.8013935685157776
1696965339315267600,3.250267578125,0.6001739501953125,-0.7730504870414734,0.1478102207183838
1696965339325281800,3.26028173828125,-0.75836181640625,-0.10474346578121185,-0.12117868661880493
1696965339335296000,3.2702958984375,0.2322854995727539,-1.1738252639770508,-0.5122528076171875
1696965339345310500,3.280310546875,-0.8191738128662109,-0.5772001147270203,-0.6872475743293762
1696965339355324700,3.29032470703125,0.5540199279785156,-0.2308230847120285,-0.235306978225708
1696965339365339100,3.300339111328125,-0.025750160217285156,-0.7394841313362122,-0.34761834144592285
1696965339375353300,3.310353271484375,0.2274169921875,-0.6421751976013184,-1.047790765762329
1696965339385367800,3.320367919921875,-0.9192581176757812,-0.45905470848083496,-0.33245033025741577
1696965339395382000,3.330382080078125,0.6024370193481445,-0.06846834719181061,0.15925967693328857
1696965339405396500,3.340396484375,-0.04451274871826172,-0.7676738500595093,-0.6288480758666992
1696965339415410700,3.35041064453125,-1.4433879852294922,-0.13842211663722992,-0.5621151328086853
1696965339425425000,3.3604248046875,1.2070274353027344,0.04466886818408966,-0.23488777875900269
1696965339435439400,3.370439453125,-0.7310104370117188,0.1148386001586914,0.08052676916122437
1696965339445453600,3.38045361328125,0.3361978530883789,-0.23560668528079987,-0.14306515455245972
1696965339455468000,3.390468017578125,-0.5008268356323242,-0.2930232882499695,-0.27896547317504883
1696965339465482200,3.400482177734375,0.11667156219482422,0.44573283195495605,0.18718135356903076
1696965339475496700,3.41049658203125,1.033097267150879,0.12103578448295593,0.3771952986717224
1696965339485511000,3.420510986328125,0.21758270263671875,-0.35719484090805054,-0.3582327961921692
1696965339495525400,3.430525390625,-1.1684932708740234,-0.12163960933685303,-0.6789412498474121
1696965339505539600,3.44053955078125,1.1944160461425781,0.27762773633003235,-0.2487703561782837
1696965339515554000,3.450553955078125,0.526616096496582,0.4322305917739868,-0.5342767238616943
1696965339525568300,3.460568359375,0.8258438110351562,-0.18466033041477203,-1.0035154819488525
1696965339535582500,3.47058251953125,-0.8912134170532227,0.31355634331703186,-0.45387381315231323
1696965339545597000,3.480596923828125,0.8452215194702148,0.6025158166885376,-0.030398130416870117
1696965339555611100,3.490611083984375,2.0272693634033203,-0.06802256405353546,-0.9772449135780334
1696965339565625600,3.50062548828125,-2.3538131713867188,0.42509913444519043,-1.0145694017410278
1696965339575639800,3.510639892578125,2.931577682495117,0.48479941487312317,-0.7450470924377441
1696965339585654300,3.520654296875,-0.21510982513427734,0.5819882154464722,-0.6917064785957336
1696965339595668500,3.53066845703125,0.6360845565795898,-0.10270576179027557,-0.8197808861732483
1696965339605682700,3.5406826171875,0.6536798477172852,0.4168245792388916,-1.3870525360107422
1696965339615697200,3.550697265625,-1.0100345611572266,0.05327393114566803,-0.4709396958351135
1696965339625711400,3.56071142578125,3.149137496948242,0.34448570013046265,-0.8187123537063599
1696965339635725600,3.5707255859375,-0.007616996765136719,-0.21901237964630127,-1.7948869466781616
1696965339645739800,3.58073974609375,-0.20733261108398438,0.30376118421554565,-1.257969856262207
1696965339655754200,3.590754150390625,1.317702293395996,-0.5001058578491211,-0.8968551158905029
1696965339665768400,3.6007685546875,0.8846330642700195,0.11097773909568787,-1.3983523845672607
1696965339675782700,3.61078271484375,0.7015047073364258,-0.1514919400215149,-2.3315799236297607
1696965339685796900,3.620796875,-1.1479692459106445,0.6210511922836304,-1.2821658849716187
1696965339695811300,3.630811279296875,2.0524864196777344,-0.6516045928001404,-0.5716245174407959
1696965339705825500,3.640825439453125,0.9583206176757812,0.485904335975647,-1.7868645191192627
1696965339715839700,3.65083984375,0.24071407318115234,-0.0018943548202514648,-1.9221079349517822
1696965339725854000,3.66085400390625,0.24659252166748047,0.6772840023040771,-0.7721404433250427
1696965339735868400,3.670868408203125,1.6422605514526367,-0.006816983222961426,-0.45925775170326233
1696965339745882600,3.680882568359375,0.4831581115722656,0.38314390182495117,-1.1106185913085938
1696965339755896800,3.690896728515625,0.2398977279663086,0.04767882823944092,-0.9494783282279968
1696965339765911000,3.7009111328125,0.6279497146606445,0.42934226989746094,0.057824671268463135
1696965339775925500,3.710925537109375,1.9176149368286133,0.33192023634910583,0.6703433990478516
1696965339785939700,3.720939697265625,1.6888236999511719,0.5298831462860107,-0.3329862356185913
1696965339795954000,3.730953857421875,0.49132251739501953,-0.12431252002716064,0.23250120878219604
1696965339805968100,3.740968017578125,1.9196357727050781,0.403401255607605,1.5219839811325073
1696965339815982600,3.750982666015625,2.139317512512207,-0.41849276423454285,1.3671739101409912
1696965339825996800,3.760996826171875,1.3072233200073242,-0.4230523705482483,0.5432586073875427
1696965339836011000,3.771010986328125,0.9365663528442383,0.14753693342208862,1.3276126384735107
1696965339846025200,3.781025146484375,1.8704357147216797,0.3865983486175537,2.213670492172241
1696965339856039400,3.791039306640625,0.5130186080932617,0.04587811231613159,1.6877562999725342
1696965339866054000,3.801053955078125,0.4681243896484375,0.23239877820014954,1.197771430015564
1696965339876068000,3.811068115234375,-0.9185876846313477,1.119106650352478,1.4595880508422852
1696965339886082300,3.821082275390625,0.5165224075317383,0.6268556118011475,2.1575160026550293
1696965339896096500,3.831096435546875,0.31881046295166016,0.3758605122566223,2.095099925994873
1696965339906111000,3.841111083984375,-2.1385483741760254,0.2540143132209778,1.334094524383545
1696965339916125200,3.851125244140625,-1.2253293991088867,1.1279664039611816,1.967087984085083
1696965339926139400,3.861139404296875,-0.7404088973999023,1.0947198867797852,1.7285940647125244
1696965339936153600,3.871153564453125,-2.7840709686279297,0.536848783493042,1.413468837738037
1696965339946168000,3.88116796875,-2.5002894401550293,0.8292086720466614,0.9803154468536377
1696965339956182300,3.891182373046875,-3.7461977005004883,0.9900321364402771,1.3412939310073853
1696965339966196500,3.901196533203125,-2.580913543701172,1.146464228630066,1.8596620559692383
1696965339976210700,3.911210693359375,-2.455807685852051,1.365983486175537,1.1402204036712646
1696965339986225200,3.92122509765625,-4.142049312591553,1.4739997386932373,0.6393799185752869
1696965339996239400,3.9312392578125,-2.9090137481689453,1.331805944442749,0.7913016676902771
1696965340006253600,3.941253662109375,-1.8755950927734375,1.3038849830627441,0.5353546738624573
1696965340016267800,3.951267822265625,-3.6878247261047363,0.7559007406234741,0.08467626571655273
1696965340026282200,3.9612822265625,-3.636744976043701,0.9488290548324585,-0.6559252738952637
1696965340036296400,3.97129638671875,-3.6908798217773438,1.289923906326294,-0.5785127282142639
1696965340046311000,3.981310791015625,-2.717790126800537,1.1742489337921143,-0.9621221423149109
1696965340056325000,3.9913251953125,-4.155258655548096,1.3247435092926025,-0.8617449998855591
1696965340066339300,4.00133935546875,-3.027966022491455,0.7400951385498047,-1.5655717849731445
1696965340076353800,4.011353759765625,-3.1219348907470703,1.1713390350341797,-1.5596063137054443
1696965340086368000,4.021367919921875,-2.5514779090881348,0.8135731816291809,-1.9121278524398804
1696965340096382500,4.031382568359375,-3.277374267578125,0.18992280960083008,-2.4050419330596924
1696965340106396700,4.041396728515625,-3.0409040451049805,0.820526659488678,-2.596900463104248
1696965340116411100,4.0514111328125,-1.8204193115234375,0.7257289886474609,-2.7364625930786133
1696965340126425300,4.06142529296875,-3.2838473320007324,0.7233767509460449,-2.186901330947876
1696965340136439800,4.071439697265625,-2.3159780502319336,0.31644099950790405,-2.3464126586914062
1696965340146454000,4.0814541015625,-3.4101438522338867,1.0129101276397705,-2.338921546936035
1696965340156468200,4.09146826171875,-1.1994733810424805,0.41277992725372314,-2.505539655685425
1696965340166482700,4.101482666015625,-1.6033258438110352,0.515758752822876,-2.50473690032959
1696965340176497000,4.111496826171875,-1.523691177368164,-0.11194965243339539,-2.9926860332489014
1696965340186511400,4.121511474609375,-0.6982746124267578,1.1117533445358276,-2.0175461769104004
1696965340196525600,4.131525634765625,-0.20010948181152344,0.8553766012191772,-1.431124210357666
1696965340206540000,4.1415400390625,-0.7687482833862305,0.5518723726272583,-1.4845045804977417
1696965340216554200,4.15155419921875,-0.6144514083862305,-0.03147140145301819,-1.645929217338562
1696965340226568700,4.161568603515625,-0.1830615997314453,0.5757765769958496,-1.3726915121078491
1696965340236583000,4.1715830078125,1.8479366302490234,0.6390841603279114,-1.1666409969329834
1696965340246597400,4.181597412109375,1.7381324768066406,0.5579324960708618,-1.6550976037979126
1696965340256611600,4.191611572265625,-0.9996576309204102,0.5420230031013489,-0.8426522016525269
1696965340266625800,4.201625732421875,3.2511377334594727,0.540186882019043,-0.6300737857818604
1696965340276640300,4.21164013671875,0.24208736419677734,0.04919341206550598,-0.7672870755195618
1696965340286654500,4.221654541015625,2.07696533203125,-0.07943612337112427,-0.6230529546737671
1696965340296669000,4.2316689453125,0.997035026550293,0.2136191725730896,-0.696012020111084
1696965340306683100,4.24168310546875,1.898345947265625,0.9489309787750244,0.1157224178314209
1696965340316697600,4.251697509765625,4.455710411071777,0.06956905126571655,-0.5034383535385132
1696965340326711800,4.2617119140625,0.17806053161621094,0.3762706220149994,-0.8186876177787781
1696965340336726300,4.271726318359375,2.6542320251464844,-0.27514445781707764,-0.1314055323600769
1696965340346740500,4.281740478515625,3.523221969604492,0.1696263551712036,-0.18095040321350098
1696965340356754700,4.291754638671875,2.1012115478515625,-0.08017580211162567,-0.766188383102417
1696965340366769200,4.30176904296875,2.4991016387939453,-0.021352216601371765,-0.7794313430786133
1696965340376783400,4.311783447265625,2.236557960510254,0.06826457381248474,0.07225286960601807
1696965340386797800,4.3217978515625,4.3257951736450195,0.12274932861328125,-0.30274707078933716
1696965340396812000,4.33181201171875,2.419801712036133,-0.15138892829418182,-0.6856110692024231
1696965340406826500,4.341826416015625,2.129155158996582,-0.14323268830776215,-0.40378111600875854
1696965340416840700,4.3518408203125,4.147435188293457,0.02987051010131836,0.4053179621696472
1696965340426855200,4.361855224609375,3.489010810852051,0.015503063797950745,0.1886434555053711
1696965340436869400,4.371869384765625,2.5789451599121094,-0.17762351036071777,-0.2175329327583313
1696965340446883800,4.3818837890625,2.861429214477539,-0.2272508442401886,0.9366479516029358
1696965340456898000,4.39189794921875,2.736398696899414,-0.47021394968032837,1.6996506452560425
1696965340466912300,4.401912353515625,2.74495792388916,-0.04529412090778351,1.3622410297393799
1696965340476926700,4.4119267578125,3.3986282348632812,-0.567324161529541,0.7452537417411804
1696965340486941000,4.42194091796875,-0.4365825653076172,-0.5569099187850952,1.2264273166656494
1696965340496955400,4.431955322265625,3.7130489349365234,-0.10473848134279251,2.2603321075439453
1696965340506969600,4.441969482421875,2.66646671295166,-0.529639720916748,1.081441044807434
1696965340516984000,4.451984130859375,-0.39327335357666016,-0.3640933930873871,1.1859170198440552
1696965340526998300,4.461998291015625,1.299616813659668,-0.6187058091163635,1.7830467224121094
1696965340537012700,4.4720126953125,0.10138702392578125,-0.17282049357891083,1.9767708778381348
1696965340547027000,4.48202685546875,0.05788421630859375,-0.33790165185928345,1.6633267402648926
1696965340557041200,4.492041259765625,0.826655387878418,-0.2482946664094925,1.2149055004119873
1696965340567055600,4.5020556640625,-1.3688030242919922,0.08366908133029938,1.6833124160766602
1696965340577069800,4.51206982421875,1.716440200805664,-0.18459895253181458,2.478729486465454
1696965340587084300,4.522084228515625,-0.49664306640625,-0.2793633043766022,1.9798921346664429
1696965340597098500,4.532098388671875,-0.8880329132080078,-0.2619200348854065,1.6674153804779053
1696965340607113000,4.542113037109375,-0.48996639251708984,0.07933895289897919,1.9582828283309937
1696965340617127200,4.552127197265625,-0.3130779266357422,0.3323982357978821,2.3001039028167725
1696965340627141600,4.5621416015625,0.4792928695678711,-0.261214017868042,1.6097025871276855
1696965340637155800,4.57215576171875,-2.0226216316223145,-0.35305148363113403,1.2085484266281128
1696965340647170000,4.582170166015625,0.17461872100830078,-0.23625223338603973,1.5403050184249878
1696965340657184300,4.592184326171875,-0.9315729141235352,0.12049361318349838,1.694469690322876
1696965340667198700,4.60219873046875,0.03408622741699219,-0.4690456986427307,1.4495484828948975
1696965340677213000,4.612212890625,-1.7171096801757812,-0.11791826039552689,0.6986764073371887
1696965340687227100,4.62222705078125,-0.797175407409668,-0.21182283759117126,0.9243837594985962
1696965340697241300,4.632241455078125,-0.5916328430175781,-0.04621513932943344,1.0784814357757568
1696965340707255800,4.642255859375,-1.8301677703857422,-0.539431095123291,0.1280168890953064
1696965340717270000,4.65227001953125,-0.9481353759765625,-0.5177780389785767,-0.10700106620788574
1696965340727284200,4.6622841796875,-1.305750846862793,-0.08375825732946396,-0.029046475887298584
1696965340737298400,4.67229833984375,-0.8168888092041016,-0.2289133220911026,-0.3191763758659363
1696965340747313000,4.68231298828125,-1.3660669326782227,-0.6444253921508789,-0.887307345867157
1696965340757327000,4.6923271484375,-2.276553153991699,-0.1623842567205429,-1.1444642543792725
1696965340767341300,4.70234130859375,-1.4499435424804688,-0.11567197740077972,-1.0087515115737915
1696965340777355500,4.71235546875,-1.834305763244629,0.36235281825065613,-0.9219644069671631
1696965340787370000,4.722369873046875,-0.3251609802246094,-0.31973615288734436,-1.5476324558258057
1696965340797385200,4.73238525390625,-2.914891242980957,0.10059581696987152,-2.175978660583496
1696965340807399000,4.74239892578125,-1.8610343933105469,-0.16897830367088318,-1.7049579620361328
1696965340817412600,4.75241259765625,-0.6998567581176758,0.23725681006908417,-1.857898473739624
1696965340827426300,4.76242626953125,-2.12701416015625,-0.6643004417419434,-2.458998441696167
1696965340837440300,4.772440185546875,-2.6466164588928223,0.23149168491363525,-2.324063301086426
1696965340847454200,4.7824541015625,0.39525508880615234,0.029564768075942993,-1.5419408082962036
1696965340857468000,4.792468017578125,-2.4960622787475586,0.5651065111160278,-1.488140344619751
1696965340867482000,4.802482177734375,-0.4008293151855469,-0.28378182649612427,-1.4099907875061035
1696965340877496000,4.81249609375,-0.8955984115600586,0.43940848112106323,-1.6837085485458374
1696965340887510300,4.82251025390625,-0.2520637512207031,0.0803932249546051,-1.6882133483886719
1696965340897524700,4.832524658203125,-1.8795318603515625,0.7818642854690552,-1.4877533912658691
1696965340907539200,4.842539306640625,-0.26816749572753906,0.2090717852115631,-2.132838726043701
1696965340917553700,4.8525537109375,-1.618189811706543,0.6581669449806213,-2.076991319656372
1696965340927568100,4.862568115234375,-0.1311054229736328,0.4694729447364807,-1.4315879344940186
1696965340937582800,4.872582763671875,-0.3774242401123047,0.3962669372558594,-0.6159659624099731
1696965340947597600,4.88259765625,-0.09775733947753906,0.045554935932159424,-1.4294631481170654
1696965340957612300,4.8926123046875,-2.016505718231201,0.41459739208221436,-1.254044532775879
1696965340967627000,4.902626953125,0.6665410995483398,1.0258698463439941,-0.39263808727264404
1696965340977641500,4.912641357421875,0.3561592102050781,1.0267736911773682,-0.35459983348846436
1696965340987656200,4.92265625,0.3568458557128906,0.5108484625816345,-0.6159570813179016
1696965340997670700,4.932670654296875,-0.038593292236328125,0.865278959274292,-0.42478513717651367
1696965341007685000,4.94268505859375,0.8088445663452148,1.0083677768707275,0.2829939126968384
1696965341017699300,4.95269921875,0.9327478408813477,0.7491632699966431,0.0886567234992981
1696965341027713500,4.962713623046875,-0.4350414276123047,0.3108981251716614,-0.18311768770217896
1696965341037727700,4.972727783203125,0.16501617431640625,1.1778581142425537,0.015887439250946045
1696965341047742200,4.9827421875,1.4845781326293945,1.15787672996521,0.4680606722831726
1696965341057756400,4.99275634765625,0.8942680358886719,0.9555812478065491,0.5344056487083435
1696965341067770600,5.0027705078125,0.5345296859741211,0.3117177486419678,0.3110615015029907
1696965341077784800,5.012784912109375,0.28076934814453125,1.2012968063354492,0.6745561957359314
1696965341087799300,5.02279931640625,1.9580621719360352,1.1340570449829102,1.0257577896118164
1696965341097813500,5.0328134765625,0.4912757873535156,0.6561301946640015,0.8134622573852539
1696965341107827700,5.04282763671875,0.2657318115234375,-0.05622798204421997,0.4959287643432617
1696965341117842000,5.052842041015625,1.3931045532226562,0.777976393699646,0.8629451990127563
1696965341127856400,5.0628564453125,0.9406881332397461,0.6533190011978149,1.4009935855865479
1696965341137870600,5.07287060546875,1.2867307662963867,-0.06471335887908936,0.8210461139678955
1696965341147884800,5.082884765625,-0.6947040557861328,0.25181394815444946,0.7340987920761108
1696965341157899000,5.09289892578125,1.5621604919433594,0.19848978519439697,1.0233080387115479
1696965341167913500,5.10291357421875,0.6883993148803711,0.40412986278533936,0.9551319479942322
1696965341177927700,5.112927734375,0.7005205154418945,-0.5957573652267456,0.75123131275177
1696965341187942000,5.12294189453125,-0.0992898941040039,-0.07253223657608032,0.290566086769104
1696965341197956000,5.1329560546875,0.28766822814941406,0.17605549097061157,0.6323645114898682
1696965341207970600,5.142970458984375,1.2236013412475586,-0.4568353295326233,0.7541976571083069
1696965341217984800,5.15298486328125,-0.33773231506347656,-0.34540608525276184,0.21361154317855835
1696965341227999000,5.1629990234375,0.11255168914794922,-0.21572503447532654,0.4715399146080017
1696965341238013200,5.17301318359375,0.41321372985839844,0.008731484413146973,0.9579467177391052
1696965341248027400,5.18302734375,1.625554084777832,-0.4104396104812622,0.9010969996452332
1696965341258041900,5.193041748046875,0.5509471893310547,-0.8121113777160645,0.03687065839767456
1696965341268056000,5.20305615234375,-1.5722970962524414,-0.19900605082511902,0.20776647329330444
1696965341278070300,5.2130703125,2.273348808288574,-0.37998396158218384,0.7141821384429932
1696965341288084500,5.22308447265625,-0.6046018600463867,-0.644905149936676,0.19151026010513306
1696965341298099200,5.23309912109375,0.3092508316040039,-0.7198006510734558,-0.17311334609985352
1696965341308113700,5.24311376953125,-0.38432979583740234,-0.5925719738006592,0.1834002137184143
1696965341318128000,5.253128173828125,0.34258556365966797,-0.24404311180114746,0.5369313359260559
1696965341328142600,5.263142578125,0.5468893051147461,-0.9684351682662964,-0.2356840968132019
1696965341338157000,5.273156982421875,-1.3182945251464844,-0.4377395808696747,-0.5327867269515991
1696965341348171300,5.283171142578125,0.27654075622558594,-0.5708740949630737,0.3772062063217163
1696965341358185500,5.293185546875,0.7294731140136719,-0.4008493423461914,0.1551085114479065
1696965341368200000,5.303199951171875,-1.011922836303711,-0.8871459364891052,-0.5906345248222351
1696965341378214100,5.313214111328125,-0.2827339172363281,-0.6001866459846497,-0.4263451099395752
1696965341388228400,5.323228271484375,-0.29613590240478516,-0.3372805118560791,0.1512581706047058
1696965341398242600,5.33324267578125,-0.08509159088134766,-0.7066150903701782,0.04394996166229248
1696965341408257000,5.343257080078125,-0.2710447311401367,-0.8607903122901917,-0.5876637101173401
1696965341418271200,5.353271240234375,-0.9865264892578125,-0.31902551651000977,-0.12044411897659302
1696965341428285400,5.363285400390625,0.43072509765625,-0.41930416226387024,0.16949492692947388
1696965341438299600,5.373299560546875,-0.7406978607177734,-0.5073778033256531,-0.04498147964477539
1696965341448314000,5.383314208984375,-0.22232341766357422,-0.4555925130844116,-0.726635217666626
1696965341458328300,5.393328369140625,-0.9233856201171875,-0.281486451625824,0.10875344276428223
1696965341468342500,5.403342529296875,0.94305419921875,-0.4912959039211273,0.17673718929290771
1696965341478356700,5.413356689453125,-0.7123270034790039,-1.090317964553833,-0.560798704624176
1696965341488371200,5.42337109375,-1.4264507293701172,-0.5058031678199768,-0.09090322256088257
1696965341498385400,5.433385498046875,1.1106462478637695,0.09867632389068604,1.1037602424621582
1696965341508399600,5.443399658203125,0.5439748764038086,-0.14910271763801575,0.4051312208175659
1696965341518413800,5.453413818359375,-0.6900835037231445,-0.9284749031066895,-0.5897278189659119
1696965341528428300,5.46342822265625,-0.2048940658569336,0.03686714172363281,0.2076019048690796
1696965341538442500,5.4734423828125,1.4204835891723633,0.21369582414627075,0.19527137279510498
1696965341548456700,5.483456787109375,-0.6567506790161133,-0.7375912666320801,-0.036180734634399414
1696965341558471000,5.493470947265625,0.162322998046875,-0.7199044823646545,-0.31856709718704224
1696965341568485400,5.5034853515625,-0.4062318801879883,0.09874415397644043,0.25766289234161377
1696965341578499600,5.51349951171875,0.8756933212280273,0.2202969789505005,0.37641441822052
1696965341588513800,5.523513671875,-0.1300525665283203,-0.8562836647033691,-0.5821700692176819
1696965341598528000,5.533528076171875,-1.084817886352539,-0.5142780542373657,-0.31802690029144287
1696965341608542500,5.54354248046875,0.3997468948364258,0.124908447265625,0.33986347913742065
1696965341618556700,5.553556640625,0.22684192657470703,-0.2293865978717804,0.10165053606033325
1696965341628571000,5.56357080078125,0.0735025405883789,-0.18888238072395325,-0.7872879505157471
1696965341638585000,5.573585205078125,-0.6713590621948242,-0.2277989685535431,-0.16931384801864624
1696965341648599600,5.583599609375,0.4440183639526367,0.1407971978187561,0.22090768814086914
1696965341658613800,5.59361376953125,1.0834121704101562,-0.6587855219841003,-0.14052706956863403
1696965341668628000,5.6036279296875,-1.51849365234375,-0.4030081629753113,-0.5546911358833313
1696965341678642200,5.61364208984375,0.4212942123413086,-0.030811667442321777,0.09234553575515747
1696965341688656600,5.62365673828125,0.8934602737426758,0.0902106761932373,0.22689765691757202
1696965341698670800,5.6336708984375,0.13619041442871094,-0.28629016876220703,-0.44101589918136597
1696965341708685000,5.64368505859375,-0.5422191619873047,-0.2842385172843933,-0.44824308156967163
1696965341718699300,5.65369921875,0.5249710083007812,0.05519765615463257,-0.02747046947479248
1696965341728713700,5.663713623046875,1.1067876815795898,0.11844873428344727,-0.04531705379486084
1696965341738728000,5.67372802734375,-0.009286880493164062,-0.8116083145141602,-0.4326854944229126
1696965341748742100,5.6837421875,-0.5824451446533203,-0.10971805453300476,-0.32310909032821655
1696965341758756400,5.69375634765625,0.7906951904296875,0.042276859283447266,-0.02646958827972412
1696965341768770800,5.703770751953125,0.3251075744628906,-0.5009492635726929,-0.3441240191459656
1696965341778785000,5.713784912109375,0.1956624984741211,-0.8415244221687317,-0.3888477683067322
1696965341788799500,5.723799560546875,0.8643522262573242,-0.3164835274219513,-0.5976797938346863
1696965341798813700,5.733813720703125,-0.03588294982910156,-0.1764197051525116,-0.14826887845993042
1696965341808828200,5.743828125,1.5317907333374023,-0.6063477396965027,-0.20112359523773193
1696965341818842400,5.75384228515625,-0.47380924224853516,-0.7137258648872375,-0.5552902221679688
1696965341828855300,5.763855224609375,-0.4341602325439453,-0.4050644338130951,-0.5044032335281372
1696965341838870000,5.7738701171875,1.230459213256836,-0.30022329092025757,-0.15026724338531494
1696965341848884200,5.78388427734375,0.39621925354003906,-0.502486526966095,-0.15234524011611938
1696965341858898400,5.7938984375,-0.5360889434814453,-0.833166241645813,-0.6313959360122681
1696965341868913000,5.803912841796875,-0.04686927795410156,0.3246859312057495,-0.04590266942977905
1696965341878927000,5.813927001953125,0.4268531799316406,-0.5191449522972107,0.0921441912651062
1696965341888941600,5.823941650390625,-1.2705259323120117,-0.1615433394908905,-0.3917139172554016
1696965341898955800,5.833955810546875,0.5441493988037109,-0.5142577290534973,-0.7538776993751526
1696965341908970200,5.84397021484375,-1.0573749542236328,0.10946786403656006,0.0402950644493103
1696965341918984400,5.853984375,0.9810199737548828,-0.39877212047576904,0.11376631259918213
1696965341928999000,5.8639990234375,-1.1095895767211914,-0.5320350527763367,-0.4543907642364502
1696965341939013000,5.87401318359375,-0.5711841583251953,-0.18308499455451965,-0.24612557888031006
1696965341949027300,5.88402734375,0.46737098693847656,0.21647369861602783,0.051430702209472656
1696965341959041800,5.894041748046875,-0.09768867492675781,-0.30316516757011414,-0.09514403343200684
1696965341969056000,5.904055908203125,-0.5607681274414062,-0.5195510983467102,-0.3826825022697449
1696965341979070500,5.914070556640625,-0.024007797241210938,0.21964937448501587,-0.35229772329330444
1696965341989084700,5.924084716796875,-0.36293983459472656,0.2216772437095642,0.019590377807617188
1696965341999099100,5.93409912109375,-0.11348819732666016,-0.24448344111442566,-0.2757529616355896
1696965342009113300,5.94411328125,0.45560741424560547,-0.14633017778396606,-0.737869143486023
1696965342019127800,5.9541279296875,-1.1885852813720703,0.06401556730270386,-0.2545182704925537
1696965342029142000,5.96414208984375,0.9123239517211914,0.1610497236251831,0.027314305305480957
1696965342039156200,5.97415625,0.23657989501953125,-0.33899572491645813,-0.5545030236244202
1696965342049170700,5.984170654296875,-1.9661922454833984,0.05199772119522095,-0.3464018702507019
1696965342059185000,5.994184814453125,1.2647333145141602,0.16581487655639648,0.22642892599105835
1696965342069199400,6.004199462890625,-0.2482624053955078,0.23638612031936646,-0.15117919445037842
1696965342079213600,6.014213623046875,0.07291603088378906,-0.3099370300769806,-0.3737199902534485
1696965342089228000,6.02422802734375,0.13074111938476562,0.19729912281036377,-0.16103023290634155
1696965342099242200,6.0342421875,0.6800565719604492,0.15757602453231812,-0.050611138343811035
1696965342109256700,6.044256591796875,0.4778585433959961,0.009193480014801025,-0.2979687452316284
1696965342119271000,6.05427099609375,-0.8036403656005859,-0.2228146493434906,-0.2618534564971924
1696965342129285400,6.064285400390625,0.541325569152832,0.20088309049606323,-0.28418582677841187
1696965342139299600,6.074299560546875,-0.4680604934692383,0.22984224557876587,0.02185434103012085
1696965342149313800,6.084313720703125,1.3775701522827148,-0.24432310461997986,-0.4916948676109314
1696965342159328300,6.094328369140625,-1.5211820602416992,-0.036739349365234375,-0.6643348932266235
1696965342169342500,6.104342529296875,0.47068214416503906,0.14267992973327637,-0.43993836641311646
1696965342179357000,6.11435693359375,0.7563152313232422,0.22540366649627686,-0.33356910943984985
1696965342189371100,6.12437109375,-0.9711627960205078,-0.02590566873550415,-0.5279311537742615
1696965342199385600,6.134385498046875,-0.026619911193847656,0.161371648311615,-0.6690123081207275
1696965342209399800,6.14439990234375,-0.7623357772827148,0.17783522605895996,-0.23262566328048706
1696965342219414300,6.154414306640625,0.5826759338378906,0.20029252767562866,-0.26216739416122437
1696965342229428500,6.164428466796875,-0.4837474822998047,-0.07761597633361816,-0.7480791807174683
1696965342239442700,6.174442626953125,-0.9119987487792969,0.042153894901275635,-0.4518340229988098
1696965342249457200,6.18445703125,0.8879375457763672,0.3270529508590698,-0.1751953363418579
