time,seconds_elapsed,z,y,x
1696965336240818700,0.175818603515625,-0.13222205638885498,-0.04580501839518547,0.04593817517161369
1696965336250834400,0.18583447265625,-0.13648298382759094,-0.0053261648863554,-0.025432437658309937
1696965336260852700,0.195852783203125,-0.13435252010822296,0.004260932095348835,0.067242830991745
1696965336270873000,0.205873046875,-0.1300915777683258,-0.03834838792681694,0.0001331541279796511
1696965336280895500,0.2158955078125,-0.1311568170785904,0.0213046595454216,-0.0009320789249613881
1696965336290919200,0.225919189453125,-0.12689588963985443,-0.02023942768573761,0.07256899774074554
1696965336300944000,0.23594384765625,-0.13648298382759094,0.01384802907705307,-0.055258963257074356
1696965336310969300,0.24596923828125,-0.1311568170785904,0.04580501839518547,0.10239552706480026
1696965336320994800,0.255994873046875,-0.12796111404895782,-0.0532616525888443,-0.023301972076296806
1696965336331012000,0.26601220703125,-0.13861344754695892,0.06071828305721283,0.027829213067889214
1696965336341026300,0.2760263671875,-0.13435252010822296,0.0319569893181324,0.05978620424866676
1696965336351040500,0.28604052734375,-0.13435252010822296,0.0063913981430232525,-0.043541401624679565
1696965336361054700,0.2960546875,-0.1300915777683258,0.0426093190908432,0.08961272984743118
1696965336371069000,0.30606884765625,-0.13541774451732635,-0.0031956990715116262,-0.016910573467612267
1696965336381083100,0.316083251953125,-0.12689588963985443,-0.01491326279938221,0.050199106335639954
1696965336391097300,0.326097412109375,-0.1300915777683258,0.02450035884976387,0.025698747485876083
1696965336401111600,0.336111572265625,-0.1311568170785904,-0.012782796286046505,0.021437814459204674
1696965336411125800,0.346125732421875,-0.1194392517209053,-0.04793548583984375,0.025698747485876083
1696965336421140000,0.356139892578125,-0.12263495475053787,-0.0063913981430232525,0.057655736804008484
1696965336431154200,0.366154296875,-0.12370018661022186,-0.06071828305721283,-0.010519175790250301
1696965336441168400,0.37616845703125,-0.12370018661022186,-0.01384802907705307,0.060851436108350754
1696965336451182800,0.386182861328125,-0.12689588963985443,-0.0010652330238372087,0.029959678649902344
1696965336461197000,0.396197021484375,-0.12583065032958984,-0.0213046595454216,0.004394086077809334
1696965336471211300,0.406211181640625,-0.1205044835805893,-0.04900071769952774,0.066177599132061
1696965336481225500,0.4162255859375,-0.12583065032958984,-0.03728315606713295,-0.009453942999243736
1696965336491239700,0.42623974609375,-0.12263495475053787,-0.0053261648863554,0.04593817517161369
1696965336501254000,0.43625390625,-0.1205044835805893,-0.05645735189318657,0.013981183059513569
1696965336511268000,0.44626806640625,-0.12476541846990585,-0.0426093190908432,0.025698747485876083
1696965336521282300,0.4562822265625,-0.12156971544027328,-0.02236989326775074,0.013981183059513569
1696965336531296500,0.466296630859375,-0.1205044835805893,-0.03089175745844841,0.036351077258586884
1696965336541310700,0.476310791015625,-0.12263495475053787,-0.02663082629442215,0.004394086077809334
1696965336551325000,0.486324951171875,-0.12689588963985443,0.009587096981704235,0.0001331541279796511
1696965336561339100,0.496339111328125,-0.12370018661022186,0.004260932095348835,0.025698747485876083
1696965336571353300,0.506353271484375,-0.12370018661022186,-0.02236989326775074,-0.027562905102968216
1696965336581367600,0.516367431640625,-0.12583065032958984,0.01171756349503994,0.00226362026296556
1696965336591381800,0.5263818359375,-0.12476541846990585,0.01917419396340847,0.027829213067889214
1696965336601396000,0.53639599609375,-0.1205044835805893,-0.05113118514418602,-0.029693370684981346
1696965336611410200,0.54641015625,-0.12476541846990585,0.01491326279938221,-0.011584409512579441
1696965336621424400,0.55642431640625,-0.12370018661022186,-0.01917419396340847,0.028894444927573204
1696965336631438600,0.5664384765625,-0.12263495475053787,-0.01171756349503994,-0.052063263952732086
1696965336641452800,0.576452880859375,-0.11517832428216934,-0.04473978653550148,0.050199106335639954
1696965336651467000,0.586467041015625,-0.12796111404895782,-0.0213046595454216,-0.06697652488946915
1696965336661481200,0.596481201171875,-0.12370018661022186,0.02982652559876442,0.043807707726955414
1696965336671495400,0.606495361328125,-0.11624355614185333,-0.06178351491689682,-0.024367205798625946
1696965336681509600,0.616509521484375,-0.11411308497190475,-0.01917419396340847,-0.0009320789249613881
1696965336691524000,0.626524169921875,-0.12583065032958984,-0.007456631399691105,-0.001997311832383275
1696965336701538300,0.636538330078125,-0.12263495475053787,0.0319569893181324,0.0001331541279796511
1696965336711552500,0.646552490234375,-0.11091738939285278,-0.06604444980621338,0.018242115154862404
1696965336721566700,0.656566650390625,-0.12583065032958984,-0.004260932095348835,0.00226362026296556
1696965336731581000,0.666580810546875,-0.13222205638885498,0.04900071769952774,0.005459319334477186
1696965336741595100,0.67659521484375,-0.11730878800153732,-0.02982652559876442,0.026763979345560074
1696965336751609300,0.686609375,-0.11411308497190475,-0.05752258375287056,-0.007323476951569319
1696965336761623600,0.69662353515625,-0.12583065032958984,0.01810896210372448,0.023568280041217804
1696965336771637800,0.7066376953125,-0.12263495475053787,-0.02343512699007988,-0.0009320789249613881
1696965336781652000,0.71665185546875,-0.11198262125253677,-0.04793548583984375,0.036351077258586884
1696965336791666200,0.726666259765625,-0.11730878800153732,-0.06071828305721283,-0.005193010903894901
1696965336801680400,0.736680419921875,-0.12156971544027328,-0.012782796286046505,0.009720250964164734
1696965336811694600,0.746694580078125,-0.1205044835805893,-0.00852186419069767,0.020372580736875534
1696965336821708800,0.756708740234375,-0.11198262125253677,-0.03621792420744896,-0.024367205798625946
1696965336831723300,0.76672314453125,-0.1194392517209053,-0.03302222490310669,0.05232957378029823
1696965336841737500,0.776737548828125,-0.12796111404895782,0.03515268862247467,-0.050998032093048096
1696965336851751700,0.786751708984375,-0.11517832428216934,0.0021304660476744175,0.048068638890981674
1696965336861766000,0.796765869140625,-0.1205044835805893,-0.02023942768573761,-0.031823836266994476
1696965336871780400,0.8067802734375,-0.11730878800153732,-0.0159784946590662,0.022503048181533813
1696965336881794600,0.816794677734375,-0.12583065032958984,0.01810896210372448,-0.059519894421100616
1696965336891808800,0.826808837890625,-0.11624355614185333,-0.0063913981430232525,0.06937330216169357
1696965336901823000,0.836822998046875,-0.12156971544027328,-0.02663082629442215,-0.06591129302978516
1696965336911837400,0.84683740234375,-0.11411308497190475,-0.0213046595454216,0.037416309118270874
1696965336921851600,0.8568515625,-0.11730878800153732,-0.009587096981704235,-0.019041040912270546
1696965336931865900,0.866865966796875,-0.1087869256734848,-0.04473978653550148,0.018242115154862404
1696965336941880000,0.876880126953125,-0.11304785311222076,-0.04154408723115921,-0.021171506494283676
1696965336951894500,0.88689453125,-0.10985215753316879,-0.0426093190908432,0.03528584539890289
1696965336961908700,0.89690869140625,-0.10452599078416824,-0.05858781561255455,-0.006258244160562754
1696965336971923000,0.9069228515625,-0.10239552706480026,-0.06924014538526535,0.027829213067889214
1696965336981937200,0.916937255859375,-0.1087869256734848,-0.05006595328450203,-0.008388710208237171
1696965336991951600,0.92695166015625,-0.10346075892448425,-0.05858781561255455,0.033155377954244614
1696965337001965800,0.9369658203125,-0.10133028775453568,-0.05858781561255455,0.00226362026296556
1696965337011980000,0.94697998046875,-0.10239552706480026,-0.07669677585363388,0.037416309118270874
1696965337021994200,0.956994140625,-0.10559122264385223,-0.04793548583984375,-0.014780107885599136
1696965337032008700,0.9670087890625,-0.10026505589485168,-0.04900071769952774,0.027829213067889214
1696965337042023000,0.97702294921875,-0.09706936031579971,-0.05752258375287056,0.013981183059513569
1696965337052037000,0.987037109375,-0.10452599078416824,-0.0319569893181324,-0.011584409512579441
1696965337062051300,0.99705126953125,-0.10239552706480026,-0.0106523297727108,0.025698747485876083
1696965337072065800,1.007065673828125,-0.0991998240351677,-0.03941362351179123,-0.0009320789249613881
1696965337082080000,1.017080078125,-0.10346075892448425,0.012782796286046505,-0.007323476951569319
1696965337092094200,1.02709423828125,-0.09600412845611572,-0.05752258375287056,0.029959678649902344
1696965337102108400,1.0371083984375,-0.10133028775453568,0.03089175745844841,-0.03608476743102074
1696965337112123000,1.047122802734375,-0.09174319356679916,-0.04154408723115921,0.041677240282297134
1696965337122137000,1.05713720703125,-0.09174319356679916,-0.04154408723115921,-0.023301972076296806
1696965337132151300,1.0671513671875,-0.09706936031579971,-0.012782796286046505,0.010785484686493874
1696965337142165500,1.07716552734375,-0.09280842542648315,0.0426093190908432,0.011850717477500439
1696965337152180000,1.087179931640625,-0.09067796170711517,-0.08947957307100296,0.006524552125483751
1696965337162194200,1.097194091796875,-0.0991998240351677,0.02982652559876442,-0.026497671380639076
1696965337172208400,1.10720849609375,-0.09387365728616714,0.0319569893181324,0.0555252730846405
1696965337182222600,1.11722265625,-0.0991998240351677,-0.02769605815410614,-0.04673709720373154
1696965337192237000,1.127237060546875,-0.09493889659643173,0.03408745676279068,0.040612008422613144
1696965337202251300,1.137251220703125,-0.09706936031579971,-0.00852186419069767,-0.007323476951569319
1696965337212265500,1.147265380859375,-0.09493889659643173,-0.01810896210372448,-0.007323476951569319
1696965337222279700,1.15727978515625,-0.09280842542648315,0.02450035884976387,0.047003407031297684
1696965337232294100,1.167294189453125,-0.09387365728616714,-0.0532616525888443,-0.006258244160562754
1696965337242308400,1.177308349609375,-0.09706936031579971,0.02023942768573761,0.017176883295178413
1696965337252322600,1.187322509765625,-0.08854749798774719,-0.04047885537147522,0.053394805639982224
1696965337262336800,1.197336669921875,-0.08854749798774719,-0.03089175745844841,0.0001331541279796511
1696965337272351200,1.207351318359375,-0.09067796170711517,-0.04793548583984375,0.040612008422613144
1696965337282365400,1.217365478515625,-0.10026505589485168,0.02982652559876442,0.022503048181533813
1696965337292379600,1.227379638671875,-0.09280842542648315,-0.02023942768573761,0.057655736804008484
1696965337302393900,1.237393798828125,-0.09280842542648315,-0.05219641700387001,-0.007323476951569319
1696965337312408300,1.247408203125,-0.0981345921754837,0.02556559257209301,0.058720968663692474
1696965337322422500,1.257422607421875,-0.09706936031579971,-0.03834838792681694,0.013981183059513569
1696965337332436700,1.267436767578125,-0.09600412845611572,0.02769605815410614,0.011850717477500439
1696965337342451000,1.277450927734375,-0.08854749798774719,-0.04687025398015976,0.07256899774074554
1696965337352465200,1.287465087890625,-0.09600412845611572,-0.03728315606713295,-0.050998032093048096
1696965337362479600,1.297479736328125,-0.09387365728616714,0.04473978653550148,0.08428656309843063
1696965337372493800,1.307493896484375,-0.09280842542648315,-0.06924014538526535,-0.014780107885599136
1696965337382508000,1.317508056640625,-0.09387365728616714,0.01704372838139534,0.008655018173158169
1696965337392522200,1.327522216796875,-0.08961272984743118,-0.02556559257209301,0.05978620424866676
1696965337402536700,1.33753662109375,-0.09387365728616714,-0.01491326279938221,-0.043541401624679565
1696965337412551000,1.347551025390625,-0.08428656309843063,-0.02876129187643528,0.08002562820911407
1696965337422565000,1.357565185546875,-0.09387365728616714,-0.02663082629442215,-0.052063263952732086
1696965337432579300,1.367579345703125,-0.09493889659643173,-0.0021304660476744175,0.06830807030200958
1696965337442593800,1.37759375,-0.09493889659643173,0.0053261648863554,-0.035019535571336746
1696965337452608000,1.38760791015625,-0.0874822586774826,-0.03621792420744896,0.053394805639982224
1696965337462622200,1.397622314453125,-0.10026505589485168,0.02769605815410614,-0.033954303711652756
1696965337472636400,1.407636474609375,-0.10665645450353622,0.07243584841489792,0.058720968663692474
1696965337482651000,1.41765087890625,-0.09600412845611572,-0.03621792420744896,-0.030758604407310486
1696965337492665000,1.4276650390625,-0.0991998240351677,0.01491326279938221,0.037416309118270874
1696965337502679300,1.43767919921875,-0.10133028775453568,0.0063913981430232525,0.007589785382151604
1696965337512693500,1.447693603515625,-0.09387365728616714,-0.03302222490310669,-0.009453942999243736
1696965337522708000,1.4577080078125,-0.09706936031579971,-0.01491326279938221,0.057655736804008484
1696965337532722200,1.46772216796875,-0.09387365728616714,-0.06604444980621338,-0.043541401624679565
1696965337542736400,1.477736328125,-0.09493889659643173,-0.01917419396340847,0.050199106335639954
1696965337552750600,1.48775048828125,-0.08641702681779861,-0.04473978653550148,0.0011983871227130294
1696965337562765000,1.49776513671875,-0.09174319356679916,-0.07563154399394989,0.025698747485876083
1696965337572779300,1.507779296875,-0.09706936031579971,0.0106523297727108,-0.022236740216612816
1696965337582793500,1.51779345703125,-0.09387365728616714,-0.02769605815410614,0.09493889659643173
1696965337592807700,1.5278076171875,-0.09600412845611572,-0.03515268862247467,-0.07656362652778625
1696965337602822100,1.537822265625,-0.08641702681779861,-0.01384802907705307,0.08854749798774719
1696965337612836400,1.54783642578125,-0.09387365728616714,-0.03515268862247467,-0.03928046673536301
1696965337622850600,1.5578505859375,-0.09706936031579971,0.06710968166589737,0.04593817517161369
1696965337632865000,1.567864990234375,-0.09600412845611572,-0.07563154399394989,0.022503048181533813
1696965337642879200,1.577879150390625,-0.08641702681779861,-0.03408745676279068,-0.026497671380639076
1696965337652893400,1.5878935546875,-0.09600412845611572,0.02556559257209301,0.040612008422613144
1696965337662908000,1.597907958984375,-0.08002562820911407,-0.07989247888326645,-0.013714875094592571
1696965337672922000,1.607922119140625,-0.07576470077037811,-0.05752258375287056,0.025698747485876083
1696965337682936600,1.6179365234375,-0.08322133123874664,-0.02769605815410614,-0.012649642303586006
1696965337692950800,1.62795068359375,-0.09067796170711517,0.02556559257209301,0.033155377954244614
1696965337702965200,1.63796533203125,-0.07896039634943008,-0.05219641700387001,-0.015845341607928276
1696965337712979500,1.6479794921875,-0.08641702681779861,-0.0063913981430232525,0.03209014609456062
1696965337722994000,1.657993896484375,-0.09174319356679916,0.02343512699007988,-0.016910573467612267
1696965337733008100,1.668008056640625,-0.09067796170711517,0.04793548583984375,0.033155377954244614
1696965337743022600,1.678022705078125,-0.08215609937906265,-0.03408745676279068,0.012915950268507004
1696965337753036800,1.688036865234375,-0.09067796170711517,0.04793548583984375,-0.011584409512579441
1696965337763051000,1.698051025390625,-0.09067796170711517,0,0.05232957378029823
1696965337773065500,1.7080654296875,-0.09600412845611572,0.04793548583984375,-0.048867564648389816
1696965337783079700,1.71807958984375,-0.08535179495811462,-0.004260932095348835,0.07043853402137756
1696965337793094100,1.72809423828125,-0.09174319356679916,-0.04367455467581749,-0.04993279650807381
1696965337803108400,1.7381083984375,-0.09067796170711517,0.02450035884976387,0.034220609813928604
1696965337813122800,1.748122802734375,-0.08428656309843063,-0.02343512699007988,-0.001997311832383275
1696965337823137000,1.758136962890625,-0.08322133123874664,-0.05752258375287056,0.009720250964164734
1696965337833151500,1.7681513671875,-0.09174319356679916,-0.02343512699007988,-0.009453942999243736
1696965337843165700,1.778165771484375,-0.08961272984743118,0.02556559257209301,0.018242115154862404
1696965337853180000,1.788179931640625,-0.08854749798774719,-0.06071828305721283,-0.008388710208237171
1696965337863194400,1.7981943359375,-0.08961272984743118,0.0010652330238372087,0.029959678649902344
1696965337873208600,1.80820849609375,-0.09174319356679916,-0.03834838792681694,-0.007323476951569319
1696965337883223000,1.81822314453125,-0.09174319356679916,0.0031956990715116262,0.004394086077809334
1696965337893237200,1.8282373046875,-0.08641702681779861,-0.01917419396340847,0.040612008422613144
1696965337903251700,1.838251708984375,-0.09174319356679916,-0.04367455467581749,-0.03288906812667847
1696965337913266000,1.848265869140625,-0.09387365728616714,0.01704372838139534,0.047003407031297684
1696965337923280400,1.8582802734375,-0.09280842542648315,0.0213046595454216,-0.009453942999243736
1696965337933294600,1.868294677734375,-0.08322133123874664,-0.02556559257209301,0.05978620424866676
1696965337943308800,1.878308837890625,-0.08854749798774719,-0.04047885537147522,-0.043541401624679565
1696965337953323300,1.8883232421875,-0.09067796170711517,0.04900071769952774,0.0555252730846405
1696965337963337500,1.89833740234375,-0.08535179495811462,-0.0426093190908432,0.0011983871227130294
1696965337973352000,1.90835205078125,-0.08535179495811462,0.004260932095348835,0.006524552125483751
1696965337983366100,1.9183662109375,-0.08322133123874664,-0.03089175745844841,0.023568280041217804
1696965337993380600,1.928380615234375,-0.08641702681779861,-0.02556559257209301,-0.015845341607928276
1696965338003394800,1.938394775390625,-0.07896039634943008,-0.02236989326775074,0.015046416781842709
1696965338013409000,1.948408935546875,-0.08002562820911407,-0.07243584841489792,-0.011584409512579441
1696965338023423200,1.95842333984375,-0.08428656309843063,-0.0213046595454216,0.00226362026296556
1696965338033437700,1.968437744140625,-0.08641702681779861,-0.01917419396340847,-0.022236740216612816
1696965338043452000,1.978451904296875,-0.08002562820911407,-0.06817491352558136,0.013981183059513569
1696965338053466000,1.988466064453125,-0.08961272984743118,-0.02876129187643528,-0.04993279650807381
1696965338063480300,1.998480224609375,-0.08961272984743118,-0.0021304660476744175,0.0001331541279796511
1696965338073494800,2.008494873046875,-0.0874822586774826,-0.05432688444852829,-0.017975807189941406
1696965338083509000,2.018509033203125,-0.09174319356679916,-0.02876129187643528,-0.043541401624679565
1696965338093523200,2.028523193359375,-0.08641702681779861,-0.04473978653550148,-0.014780107885599136
1696965338103537400,2.038537353515625,-0.09280842542648315,-0.05965305119752884,-0.027562905102968216
1696965338113552000,2.0485517578125,-0.09706936031579971,-0.01171756349503994,-0.045671865344047546
1696965338123566000,2.058566162109375,-0.09067796170711517,-0.06710968166589737,-0.013714875094592571
1696965338133580300,2.068580322265625,-0.09493889659643173,-0.012782796286046505,-0.045671865344047546
1696965338143594500,2.078594482421875,-0.10239552706480026,-0.01491326279938221,-0.017975807189941406
1696965338153609000,2.08860888671875,-0.09706936031579971,-0.03834838792681694,-0.024367205798625946
1696965338163623200,2.098623046875,-0.09600412845611572,-0.05113118514418602,-0.035019535571336746
1696965338173637400,2.108637451171875,-0.10133028775453568,0.01917419396340847,-0.005193010903894901
1696965338183651600,2.118651611328125,-0.10026505589485168,-0.07776200771331787,0.007589785382151604
1696965338193666000,2.128666015625,-0.10133028775453568,0.0213046595454216,-0.06804175674915314
1696965338203680300,2.13868017578125,-0.09280842542648315,-0.07776200771331787,0.10026505589485168
1696965338213694500,2.148694580078125,-0.10772168636322021,-0.0319569893181324,-0.12130340933799744
1696965338223708700,2.158708740234375,-0.1087869256734848,0.00852186419069767,0.08428656309843063
1696965338233723100,2.16872314453125,-0.11304785311222076,-0.07563154399394989,-0.020106272771954536
1696965338243737300,2.1787373046875,-0.08322133123874664,-0.12995843589305878,-0.0030625448562204838
1696965338253751600,2.18875146484375,-0.10559122264385223,-0.02450035884976387,0.010785484686493874
1696965338263765800,2.198765869140625,-0.10239552706480026,-0.04047885537147522,0.005459319334477186
1696965338273780200,2.2087802734375,-0.0981345921754837,-0.07989247888326645,-0.011584409512579441
1696965338283794400,2.21879443359375,-0.10985215753316879,-0.03621792420744896,0.010785484686493874
1696965338293808600,2.22880859375,-0.1087869256734848,-0.0159784946590662,-0.025432437658309937
1696965338303822800,2.23882275390625,-0.10559122264385223,0,0.019307348877191544
1696965338313837300,2.24883740234375,-0.10665645450353622,-0.04793548583984375,-0.030758604407310486
1696965338323851500,2.2588515625,-0.11091738939285278,-0.0063913981430232525,-0.015845341607928276
1696965338333865700,2.26886572265625,-0.11091738939285278,0.0106523297727108,-0.015845341607928276
1696965338343880000,2.2788798828125,-0.10772168636322021,0,-0.013714875094592571
1696965338353894400,2.288894287109375,-0.10985215753316879,-0.0213046595454216,-0.016910573467612267
1696965338363908600,2.29890869140625,-0.10985215753316879,-0.02663082629442215,-0.048867564648389816
1696965338373922800,2.3089228515625,-0.11837401986122131,0.05645735189318657,0.033155377954244614
1696965338383937000,2.31893701171875,-0.10665645450353622,-0.10226237028837204,-0.059519894421100616
1696965338393951500,2.328951416015625,-0.10985215753316879,0.01704372838139534,0.00226362026296556
1696965338403965700,2.338965576171875,-0.10559122264385223,-0.04580501839518547,0.007589785382151604
1696965338413980000,2.34897998046875,-0.11411308497190475,-0.01917419396340847,-0.07549838721752167
1696965338423994000,2.358994140625,-0.11198262125253677,-0.01810896210372448,0.07363422960042953
1696965338434008600,2.369008544921875,-0.1205044835805893,-0.02556559257209301,-0.12023817747831345
1696965338444022800,2.379022705078125,-0.11624355614185333,-0.02663082629442215,0.11198262125253677
1696965338454037000,2.389037109375,-0.1300915777683258,-0.012782796286046505,-0.12343387305736542
1696965338464051200,2.39905126953125,-0.11304785311222076,-0.02236989326775074,0.050199106335639954
1696965338474065700,2.409065673828125,-0.11624355614185333,-0.08947957307100296,-0.029693370684981346
1696965338484079900,2.419079833984375,-0.1290263533592224,0.02450035884976387,-0.05312849581241608
1696965338494094000,2.429093994140625,-0.11730878800153732,-0.05006595328450203,0.07150376588106155
1696965338504108500,2.439108642578125,-0.12156971544027328,-0.08095771074295044,-0.07443315535783768
1696965338514122800,2.449122802734375,-0.12156971544027328,-0.01704372838139534,0.036351077258586884
1696965338524137500,2.459137451171875,-0.1205044835805893,-0.02663082629442215,-0.021171506494283676
1696965338534152000,2.46915185546875,-0.11411308497190475,-0.07030537724494934,0.020372580736875534
1696965338544166400,2.47916650390625,-0.12156971544027328,-0.03408745676279068,-0.031823836266994476
1696965338554181000,2.48918115234375,-0.12156971544027328,-0.0106523297727108,0.054460037499666214
1696965338564195300,2.4991953125,-0.12263495475053787,-0.02982652559876442,-0.023301972076296806
1696965338574209800,2.509209716796875,-0.1194392517209053,-0.01491326279938221,0.022503048181533813
1696965338584224000,2.51922412109375,-0.11730878800153732,-0.0426093190908432,0.0011983871227130294
1696965338594238500,2.529238525390625,-0.11837401986122131,-0.04154408723115921,0.028894444927573204
1696965338604252700,2.539252685546875,-0.12156971544027328,-0.0031956990715116262,-0.019041040912270546
1696965338614267000,2.549266845703125,-0.10985215753316879,-0.04687025398015976,0.06830807030200958
1696965338624281000,2.559281005859375,-0.11411308497190475,-0.05432688444852829,-0.044606633484363556
1696965338634295600,2.569295654296875,-0.1194392517209053,0.04900071769952774,0.05978620424866676
1696965338644309800,2.579309814453125,-0.10133028775453568,-0.08628387749195099,0.012915950268507004
1696965338654324000,2.589323974609375,-0.10772168636322021,-0.02876129187643528,-0.009453942999243736
1696965338664338200,2.599338134765625,-0.11837401986122131,0.04687025398015976,0.033155377954244614
1696965338674352600,2.6093525390625,-0.10772168636322021,-0.02982652559876442,0.021437814459204674
1696965338684366800,2.619366943359375,-0.10239552706480026,0.00852186419069767,0.011850717477500439
1696965338694381000,2.629381103515625,-0.10346075892448425,-0.05219641700387001,0.047003407031297684
1696965338704395300,2.639395263671875,-0.11304785311222076,0.0319569893181324,-0.027562905102968216
1696965338714409700,2.64940966796875,-0.10026505589485168,-0.012782796286046505,0.07469946891069412
1696965338724424000,2.659423828125,-0.09493889659643173,-0.06710968166589737,-0.012649642303586006
1696965338734438100,2.669438232421875,-0.0991998240351677,-0.04793548583984375,0.04913387447595596
1696965338744452400,2.679452392578125,-0.11304785311222076,0.07350108027458191,-0.008388710208237171
1696965338754466600,2.689466552734375,-0.09706936031579971,-0.04047885537147522,0.06830807030200958
1696965338764481000,2.69948095703125,-0.10346075892448425,-0.03941362351179123,-0.027562905102968216
1696965338774495200,2.7094951171875,-0.11411308497190475,0.03515268862247467,0.050199106335639954
1696965338784509400,2.719509521484375,-0.11304785311222076,0.04580501839518547,0.012915950268507004
1696965338794523600,2.729523681640625,-0.10239552706480026,-0.05645735189318657,0.006524552125483751
1696965338804538000,2.7395380859375,-0.11091738939285278,0.007456631399691105,0.017176883295178413
1696965338814552300,2.74955224609375,-0.11411308497190475,0.0106523297727108,0.005459319334477186
1696965338824566500,2.75956640625,-0.11091738939285278,0.0213046595454216,0.00226362026296556
1696965338834580700,2.769580810546875,-0.10346075892448425,-0.07350108027458191,0.029959678649902344
1696965338844595200,2.77959521484375,-0.11624355614185333,0.0063913981430232525,-0.026497671380639076
1696965338854609400,2.789609375,-0.1087869256734848,0.0159784946590662,0.036351077258586884
1696965338864623600,2.79962353515625,-0.10239552706480026,-0.06071828305721283,-0.016910573467612267
1696965338874637800,2.809637939453125,-0.11198262125253677,-0.01384802907705307,0.00226362026296556
1696965338884652300,2.81965234375,-0.11517832428216934,0.02663082629442215,0.0011983871227130294
1696965338894666500,2.82966650390625,-0.1087869256734848,-0.02769605815410614,-0.008388710208237171
1696965338904680700,2.8396806640625,-0.10665645450353622,-0.00852186419069767,-0.0030625448562204838
1696965338914695000,2.84969482421875,-0.10346075892448425,-0.03089175745844841,0.015046416781842709
1696965338924709400,2.85970947265625,-0.11730878800153732,0.03408745676279068,-0.050998032093048096
1696965338934723600,2.8697236328125,-0.10559122264385223,0.0159784946590662,0.06511236727237701
1696965338944737800,2.87973779296875,-0.11091738939285278,-0.03302222490310669,-0.048867564648389816
1696965338954752000,2.889751953125,-0.1087869256734848,0.02876129187643528,0.020372580736875534
1696965338964766500,2.899766357421875,-0.1087869256734848,-0.02876129187643528,0.029959678649902344
1696965338974780700,2.90978076171875,-0.10346075892448425,0.0021304660476744175,-0.017975807189941406
1696965338984795000,2.919794921875,-0.10133028775453568,-0.03834838792681694,0.05232957378029823
1696965338994809000,2.92980908203125,-0.10665645450353622,-0.02769605815410614,-0.013714875094592571
1696965339004823600,2.939823486328125,-0.09706936031579971,-0.0063913981430232525,0.043807707726955414
1696965339014837800,2.949837646484375,-0.09706936031579971,-0.04687025398015976,0.006524552125483751
1696965339024852200,2.959852294921875,-0.09706936031579971,-0.03941362351179123,0.015046416781842709
1696965339034866400,2.969866455078125,-0.10026505589485168,0.0053261648863554,0.043807707726955414
1696965339044880600,2.979880615234375,-0.09493889659643173,-0.04367455467581749,0.0033288532868027687
1696965339054895000,2.98989501953125,-0.0981345921754837,-0.01917419396340847,0.041677240282297134
1696965339064909300,2.999909423828125,-0.10133028775453568,0.01384802907705307,0.012915950268507004
1696965339074923800,3.009923828125,-0.10239552706480026,0.0021304660476744175,0.016111649572849274
1696965339084938000,3.01993798828125,-0.09280842542648315,0.0010652330238372087,0.044872939586639404
1696965339094952400,3.029952392578125,-0.0991998240351677,-0.05113118514418602,0.00226362026296556
1696965339104966700,3.039966552734375,-0.10026505589485168,0.05113118514418602,0.041677240282297134
1696965339114981000,3.049981201171875,-0.0991998240351677,-0.02982652559876442,0.04274247586727142
1696965339124995300,3.059995361328125,-0.09280842542648315,-0.00852186419069767,-0.008388710208237171
1696965339135009500,3.070009521484375,-0.09387365728616714,-0.02343512699007988,0.07150376588106155
1696965339145024000,3.08002392578125,-0.11198262125253677,0.05965305119752884,-0.026497671380639076
1696965339155038200,3.0900380859375,-0.09280842542648315,-0.02876129187643528,0.07469946891069412
1696965339165052700,3.100052734375,-0.09706936031579971,-0.02769605815410614,-0.020106272771954536
1696965339175067000,3.11006689453125,-0.09387365728616714,0.004260932095348835,0.047003407031297684
1696965339185081300,3.120081298828125,-0.10026505589485168,-0.05006595328450203,-0.004127778112888336
1696965339195095600,3.130095458984375,-0.09387365728616714,0.03621792420744896,0.013981183059513569
1696965339205110000,3.140110107421875,-0.09067796170711517,-0.07243584841489792,0.047003407031297684
1696965339215124200,3.150124267578125,-0.10239552706480026,-0.007456631399691105,-0.08188978582620621
1696965339225138400,3.160138427734375,-0.09493889659643173,0.012782796286046505,0.11730878800153732
1696965339235153000,3.17015283203125,-0.10772168636322021,-0.04047885537147522,-0.07975932210683823
1696965339245167000,3.1801669921875,-0.09280842542648315,-0.012782796286046505,0.012915950268507004
1696965339255181600,3.190181640625,-0.09600412845611572,-0.01171756349503994,0.024633513763546944
1696965339265195800,3.20019580078125,-0.09600412845611572,0.02769605815410614,-0.044606633484363556
1696965339275210200,3.210210205078125,-0.09280842542648315,-0.04154408723115921,0.024633513763546944
1696965339285224400,3.220224365234375,-0.0991998240351677,0.02769605815410614,-0.044606633484363556
1696965339295239000,3.230239013671875,-0.10133028775453568,0.06284874677658081,0.031024912372231483
1696965339305253000,3.240253173828125,-0.0991998240351677,-0.0010652330238372087,-0.047802332788705826
1696965339315267600,3.250267578125,-0.09280842542648315,0.00852186419069767,0.010785484686493874
1696965339325281800,3.26028173828125,-0.10133028775453568,0.03515268862247467,-0.027562905102968216
1696965339335296000,3.2702958984375,-0.09600412845611572,0.04793548583984375,-0.010519175790250301
1696965339345310500,3.280310546875,-0.09280842542648315,-0.0010652330238372087,-0.013714875094592571
1696965339355324700,3.29032470703125,-0.09706936031579971,0.0063913981430232525,-0.013714875094592571
1696965339365339100,3.300339111328125,-0.09600412845611572,0.01384802907705307,-0.023301972076296806
1696965339375353300,3.310353271484375,-0.09067796170711517,0.0063913981430232525,-0.0009320789249613881
1696965339385367800,3.320367919921875,-0.08428656309843063,-0.04580501839518547,-0.001997311832383275
1696965339395382000,3.330382080078125,-0.09387365728616714,-0.01491326279938221,-0.029693370684981346
1696965339405396500,3.340396484375,-0.09174319356679916,0.05113118514418602,0.015046416781842709
1696965339415410700,3.35041064453125,-0.08535179495811462,-0.07137060910463333,-0.017975807189941406
1696965339425425000,3.3604248046875,-0.09067796170711517,0.0053261648863554,-0.017975807189941406
1696965339435439400,3.370439453125,-0.08961272984743118,-0.007456631399691105,0.007589785382151604
1696965339445453600,3.38045361328125,-0.09280842542648315,0.009587096981704235,-0.040345702320337296
1696965339455468000,3.390468017578125,-0.08961272984743118,0.02023942768573761,0.00226362026296556
1696965339465482200,3.400482177734375,-0.09600412845611572,0.01810896210372448,-0.029693370684981346
1696965339475496700,3.41049658203125,-0.09706936031579971,0.04154408723115921,-0.021171506494283676
1696965339485511000,3.420510986328125,-0.09493889659643173,0.05965305119752884,-0.004127778112888336
1696965339495525400,3.430525390625,-0.09387365728616714,0.02876129187643528,-0.010519175790250301
1696965339505539600,3.44053955078125,-0.09174319356679916,0.02876129187643528,-0.030758604407310486
1696965339515554000,3.450553955078125,-0.09706936031579971,0.05006595328450203,0.016111649572849274
1696965339525568300,3.460568359375,-0.0874822586774826,0.01917419396340847,-0.011584409512579441
1696965339535582500,3.47058251953125,-0.08322133123874664,-0.02876129187643528,0.034220609813928604
1696965339545597000,3.480596923828125,-0.09493889659643173,0.0159784946590662,-0.03928046673536301
1696965339555611100,3.490611083984375,-0.09174319356679916,0.03515268862247467,0.04274247586727142
1696965339565625600,3.50062548828125,-0.08109086751937866,-0.07030537724494934,0.034220609813928604
1696965339575639800,3.510639892578125,-0.09067796170711517,-0.01171756349503994,-0.042476166039705276
1696965339585654300,3.520654296875,-0.0874822586774826,-0.0159784946590662,0.1087869256734848
1696965339595668500,3.53066845703125,-0.08961272984743118,-0.06178351491689682,-0.055258963257074356
1696965339605682700,3.5406826171875,-0.08109086751937866,-0.01384802907705307,0.10665645450353622
1696965339615697200,3.550697265625,-0.08535179495811462,-0.10226237028837204,-0.012649642303586006
1696965339625711400,3.56071142578125,-0.09600412845611572,-0.0063913981430232525,0.04274247586727142
1696965339635725600,3.5707255859375,-0.08961272984743118,-0.0426093190908432,0.07896039634943008
1696965339645739800,3.58073974609375,-0.07896039634943008,-0.13208889961242676,0.028894444927573204
1696965339655754200,3.590754150390625,-0.0874822586774826,-0.05858781561255455,0.047003407031297684
1696965339665768400,3.6007685546875,-0.09493889659643173,-0.07563154399394989,0.060851436108350754
1696965339675782700,3.61078271484375,-0.08215609937906265,-0.10758853703737259,0.08535179495811462
1696965339685796900,3.620796875,-0.07469946891069412,-0.1821548491716385,0.061916667968034744
1696965339695811300,3.630811279296875,-0.08428656309843063,-0.1491326242685318,0.043807707726955414
1696965339705825500,3.640825439453125,-0.08854749798774719,-0.0852186381816864,0.10452599078416824
1696965339715839700,3.65083984375,-0.06830807030200958,-0.2130466103553772,0.08322133123874664
1696965339725854000,3.66085400390625,-0.067242830991745,-0.21624229848384857,0.08428656309843063
1696965339735868400,3.670868408203125,-0.07896039634943008,-0.14593692123889923,0.08109086751937866
1696965339745882600,3.680882568359375,-0.07256899774074554,-0.17682868242263794,0.10985215753316879
1696965339755896800,3.690896728515625,-0.061916667968034744,-0.191741943359375,0.09174319356679916
1696965339765911000,3.7009111328125,-0.06511236727237701,-0.1821548491716385,0.09600412845611572
1696965339775925500,3.710925537109375,-0.07043853402137756,-0.13634982705116272,0.0981345921754837
1696965339785939700,3.720939697265625,-0.07576470077037811,-0.08095771074295044,0.1087869256734848
1696965339795954000,3.730953857421875,-0.06298190355300903,-0.1395455300807953,0.12156971544027328
1696965339805968100,3.740968017578125,-0.057655736804008484,-0.09800143539905548,0.07363422960042953
1696965339815982600,3.750982666015625,-0.08322133123874664,0.01917419396340847,0.12796111404895782
1696965339825996800,3.760996826171875,-0.08109086751937866,0.012782796286046505,0.0991998240351677
1696965339836011000,3.771010986328125,-0.07256899774074554,-0.02876129187643528,0.1300915777683258
1696965339846025200,3.781025146484375,-0.07896039634943008,0.05432688444852829,0.08428656309843063
1696965339856039400,3.791039306640625,-0.08854749798774719,0.10119713842868805,0.1418091505765915
1696965339866054000,3.801053955078125,-0.08535179495811462,0.11184946447610855,0.08641702681779861
1696965339876068000,3.811068115234375,-0.0768299326300621,0.06710968166589737,0.1524614691734314
1696965339886082300,3.821082275390625,-0.07896039634943008,0.13528458774089813,0.060851436108350754
1696965339896096500,3.831096435546875,-0.09067796170711517,0.14700216054916382,0.14607007801532745
1696965339906111000,3.841111083984375,-0.08854749798774719,0.13528458774089813,0.10346075892448425
1696965339916125200,3.851125244140625,-0.0874822586774826,0.10226237028837204,0.0874822586774826
1696965339926139400,3.861139404296875,-0.10346075892448425,0.19600287079811096,0.10452599078416824
1696965339936153600,3.871153564453125,-0.0991998240351677,0.1395455300807953,0.09600412845611572
1696965339946168000,3.88116796875,-0.10985215753316879,0.14487169682979584,0.06511236727237701
1696965339956182300,3.891182373046875,-0.10772168636322021,0.14274121820926666,0.08322133123874664
1696965339966196500,3.901196533203125,-0.10985215753316879,0.1491326242685318,0.026763979345560074
1696965339976210700,3.911210693359375,-0.13328728079795837,0.20772044360637665,0.05978620424866676
1696965339986225200,3.92122509765625,-0.14287437498569489,0.17576344311237335,0.021437814459204674
1696965339996239400,3.9312392578125,-0.13648298382759094,0.14380645751953125,-0.011584409512579441
1696965340006253600,3.941253662109375,-0.14820054173469543,0.22689463198184967,-0.004127778112888336
1696965340016267800,3.951267822265625,-0.15565717220306396,0.18322007358074188,-0.011584409512579441
1696965340026282200,3.9612822265625,-0.172700896859169,0.18641577661037445,-0.048867564648389816
1696965340036296400,3.97129638671875,-0.16098333895206451,0.17682868242263794,-0.05312849581241608
1696965340046311000,3.981310791015625,-0.1620485782623291,0.20452474057674408,-0.08188978582620621
1696965340056325000,3.9913251953125,-0.16098333895206451,0.1597849577665329,-0.06378082931041718
1696965340066339300,4.00133935546875,-0.16950520873069763,0.1480673849582672,-0.12449911236763
1696965340076353800,4.011353759765625,-0.15991811454296112,0.15658925473690033,-0.08828118443489075
1696965340086368000,4.021367919921875,-0.15778763592243195,0.10758853703737259,-0.14260807633399963
1696965340096382500,4.031382568359375,-0.1620485782623291,0.1288931965827942,-0.10212921351194382
1696965340106396700,4.041396728515625,-0.17057043313980103,0.06710968166589737,-0.1575213372707367
1696965340116411100,4.0514111328125,-0.15459194779396057,0.06071828305721283,-0.13408620655536652
1696965340126425300,4.06142529296875,-0.12263495475053787,0.02023942768573761,-0.1468690037727356
1696965340136439800,4.071439697265625,-0.10985215753316879,0.01704372838139534,-0.16284750401973724
1696965340146454000,4.0814541015625,-0.1087869256734848,0.0106523297727108,-0.1468690037727356
1696965340156468200,4.09146826171875,-0.10026505589485168,-0.009587096981704235,-0.19800019264221191
1696965340166482700,4.101482666015625,-0.09280842542648315,-0.01171756349503994,-0.13941237330436707
1696965340176497000,4.111496826171875,-0.08535179495811462,-0.02450035884976387,-0.19586972892284393
1696965340186511400,4.121511474609375,-0.06937330216169357,-0.07776200771331787,-0.15006470680236816
1696965340196525600,4.131525634765625,-0.06830807030200958,-0.06924014538526535,-0.19586972892284393
1696965340206540000,4.1415400390625,-0.06404713541269302,-0.04793548583984375,-0.1468690037727356
1696965340216554200,4.15155419921875,-0.058720968663692474,-0.07882724702358246,-0.2097177505493164
1696965340226568700,4.161568603515625,-0.05978620424866676,-0.0852186381816864,-0.15219517052173615
1696965340236583000,4.1715830078125,-0.058720968663692474,-0.08095771074295044,-0.22569625079631805
1696965340246597400,4.181597412109375,-0.061916667968034744,-0.09161003679037094,-0.11810771375894547
1696965340256611600,4.191611572265625,-0.036351077258586884,-0.1906767040491104,-0.19586972892284393
1696965340266625800,4.201625732421875,-0.0555252730846405,-0.09800143539905548,-0.19373925030231476
1696965340276640300,4.21164013671875,-0.067242830991745,-0.15126308798789978,-0.12769481539726257
1696965340286654500,4.221654541015625,-0.06298190355300903,-0.20878566801548004,-0.20439158380031586
1696965340296669000,4.2316689453125,-0.06511236727237701,-0.17789392173290253,-0.1149120107293129
1696965340306683100,4.24168310546875,-0.06511236727237701,-0.2226337045431137,-0.19800019264221191
1696965340316697600,4.251697509765625,-0.08854749798774719,-0.17363297939300537,-0.12662957608699799
1696965340326711800,4.2617119140625,-0.08215609937906265,-0.2577863931655884,-0.11278154700994492
1696965340336726300,4.271726318359375,-0.0991998240351677,-0.2769605815410614,-0.19586972892284393
1696965340346740500,4.281740478515625,-0.11624355614185333,-0.21943800151348114,-0.10106398165225983
1696965340356754700,4.291754638671875,-0.11411308497190475,-0.27376487851142883,-0.14473854005336761
1696965340366769200,4.30176904296875,-0.11411308497190475,-0.30359140038490295,-0.11810771375894547
1696965340376783400,4.311783447265625,-0.1300915777683258,-0.30465665459632874,-0.14260807633399963
1696965340386797800,4.3217978515625,-0.1396786868572235,-0.2673735022544861,-0.12876003980636597
1696965340396812000,4.33181201171875,-0.1311568170785904,-0.3078523576259613,-0.0925421193242073
1696965340406826500,4.341826416015625,-0.13541774451732635,-0.31317850947380066,-0.13834713399410248
1696965340416840700,4.3518408203125,-0.14393961429595947,-0.2897433936595917,-0.11597724258899689
1696965340426855200,4.361855224609375,-0.14393961429595947,-0.25139498710632324,-0.10958584398031235
1696965340436869400,4.371869384765625,-0.13861344754695892,-0.23967742919921875,-0.08934641629457474
1696965340446883800,4.3818837890625,-0.13222205638885498,-0.27376487851142883,-0.13408620655536652
1696965340456898000,4.39189794921875,-0.13541774451732635,-0.18854624032974243,-0.06271559745073318
1696965340466912300,4.401912353515625,-0.14287437498569489,-0.13315412402153015,-0.14260807633399963
1696965340476926700,4.4119267578125,-0.12689588963985443,-0.1171756312251091,-0.047802332788705826
1696965340486941000,4.42194091796875,-0.11517832428216934,-0.14274121820926666,-0.10212921351194382
1696965340496955400,4.431955322265625,-0.12263495475053787,-0.05006595328450203,-0.12449911236763
1696965340506969600,4.441969482421875,-0.1194392517209053,0.02343512699007988,-0.061650361865758896
1696965340516984000,4.451984130859375,-0.0981345921754837,-0.07669677585363388,-0.07549838721752167
1696965340526998300,4.461998291015625,-0.09600412845611572,-0.0213046595454216,-0.13195574283599854
1696965340537012700,4.4720126953125,-0.09174319356679916,0.02236989326775074,-0.05632419511675835
1696965340547027000,4.48202685546875,-0.09067796170711517,0.0213046595454216,-0.12343387305736542
1696965340557041200,4.492041259765625,-0.08002562820911407,0.05006595328450203,-0.08402025699615479
1696965340567055600,4.5020556640625,-0.06830807030200958,-0.01704372838139534,-0.0712374597787857
1696965340577069800,4.51206982421875,-0.07256899774074554,0.0639139786362648,-0.14793424308300018
1696965340587084300,4.522084228515625,-0.08109086751937866,0.09267527610063553,-0.011584409512579441
1696965340597098500,4.532098388671875,-0.0778951644897461,0.07989247888326645,-0.12876003980636597
1696965340607113000,4.542113037109375,-0.08215609937906265,0.08415340632200241,-0.021171506494283676
1696965340617127200,4.552127197265625,-0.08002562820911407,0.12356702983379364,-0.1042596846818924
1696965340627141600,4.5621416015625,-0.10665645450353622,0.1810896098613739,-0.008388710208237171
1696965340637155800,4.57215576171875,-0.10665645450353622,0.14061075448989868,-0.041410934180021286
1696965340647170000,4.582170166015625,-0.11624355614185333,0.1480673849582672,-0.023301972076296806
1696965340657184300,4.592184326171875,-0.1311568170785904,0.19706811010837555,0.010785484686493874
1696965340667198700,4.60219873046875,-0.14500483870506287,0.2247641682624817,0.0011983871227130294
1696965340677213000,4.612212890625,-0.14713531732559204,0.2247641682624817,0.07256899774074554
1696965340687227100,4.62222705078125,-0.16098333895206451,0.2226337045431137,0.020372580736875534
1696965340697241300,4.632241455078125,-0.16843996942043304,0.22902509570121765,0.10452599078416824
1696965340707255800,4.642255859375,-0.18122276663780212,0.2748301327228546,0.09280842542648315
1696965340717270000,4.65227001953125,-0.1833532303571701,0.23648172616958618,0.11837401986122131
1696965340727284200,4.6622841796875,-0.18654893338680267,0.20558997988700867,0.1524614691734314
1696965340737298400,4.67229833984375,-0.19826649129390717,0.2545906901359558,0.15033100545406342
1696965340747313000,4.68231298828125,-0.19720126688480377,0.23861220479011536,0.1822880059480667
1696965340757327000,4.6923271484375,-0.1950708031654358,0.17895914614200592,0.20252743363380432
1696965340767341300,4.70234130859375,-0.19826649129390717,0.1821548491716385,0.1950708031654358
1696965340777355500,4.71235546875,-0.20359265804290771,0.17363297939300537,0.23022349178791046
1696965340787370000,4.722369873046875,-0.20146219432353973,0.1715025156736374,0.20678836107254028
1696965340797385200,4.73238525390625,-0.21104928851127625,0.1278279572725296,0.2877460718154907
1696965340807399000,4.74239892578125,-0.21104928851127625,0.06497921794652939,0.19826649129390717
1696965340817412600,4.75241259765625,-0.1940055638551712,0.09800143539905548,0.28348514437675476
1696965340827426300,4.76242626953125,-0.19294032454490662,0.10439283400774002,0.2568543255329132
1696965340837440300,4.772440185546875,-0.1844184696674347,-0.007456631399691105,0.27602851390838623
1696965340847454200,4.7824541015625,-0.18654893338680267,0.0159784946590662,0.23874534666538239
1696965340857468000,4.792468017578125,-0.1822880059480667,0.0159784946590662,0.32609444856643677
1696965340867482000,4.802482177734375,-0.18548369407653809,0.0213046595454216,0.20039696991443634
1696965340877496000,4.81249609375,-0.17909230291843414,-0.007456631399691105,0.3218335211277008
1696965340887510300,4.82251025390625,-0.1822880059480667,0.0010652330238372087,0.22809302806854248
1696965340897524700,4.832524658203125,-0.17483137547969818,-0.0532616525888443,0.2909417748451233
1696965340907539200,4.842539306640625,-0.17909230291843414,0.0031956990715116262,0.20678836107254028
1696965340917553700,4.8525537109375,-0.16524426639080048,-0.07776200771331787,0.2792242169380188
1696965340927568100,4.862568115234375,-0.16098333895206451,-0.10758853703737259,0.19294032454490662
1696965340937582800,4.872582763671875,-0.15352670848369598,-0.10971900075674057,0.23874534666538239
1696965340947597600,4.88259765625,-0.15459194779396057,-0.08415340632200241,0.1950708031654358
1696965340957612300,4.8926123046875,-0.1407439112663269,-0.15658925473690033,0.22383208572864532
1696965340967627000,4.902626953125,-0.13861344754695892,-0.17469821870326996,0.13222205638885498
1696965340977641500,4.912641357421875,-0.13754820823669434,-0.11824086308479309,0.20039696991443634
1696965340987656200,4.92265625,-0.13648298382759094,-0.1491326242685318,0.10985215753316879
1696965340997670700,4.932670654296875,-0.12689588963985443,-0.1704372763633728,0.16630950570106506
1696965341007685000,4.94268505859375,-0.12583065032958984,-0.1608501821756363,0.07043853402137756
1696965341017699300,4.95269921875,-0.13328728079795837,-0.13208889961242676,0.12370018661022186
1696965341027713500,4.962713623046875,-0.1311568170785904,-0.14700216054916382,0.0555252730846405
1696965341037727700,4.972727783203125,-0.1300915777683258,-0.17789392173290253,0.060851436108350754
1696965341047742200,4.9827421875,-0.13541774451732635,-0.12569749355316162,0.018242115154862404
1696965341057756400,4.99275634765625,-0.13754820823669434,-0.1501978635787964,0.025698747485876083
1696965341067770600,5.0027705078125,-0.13861344754695892,-0.12995843589305878,0.0011983871227130294
1696965341077784800,5.012784912109375,-0.14287437498569489,-0.14593692123889923,-0.025432437658309937
1696965341087799300,5.02279931640625,-0.14713531732559204,-0.11611039936542511,-0.038215234875679016
1696965341097813500,5.0328134765625,-0.15459194779396057,-0.10332760214805603,-0.040345702320337296
1696965341107827700,5.04282763671875,-0.15459194779396057,-0.10971900075674057,-0.07443315535783768
1696965341117842000,5.052842041015625,-0.1631138026714325,-0.1065233051776886,-0.08721595257520676
1696965341127856400,5.0628564453125,-0.16630950570106506,-0.10758853703737259,-0.07762885838747025
1696965341137870600,5.07287060546875,-0.1737661361694336,-0.0426093190908432,-0.11597724258899689
1696965341147884800,5.082884765625,-0.1716356724500656,-0.09800143539905548,-0.0723026916384697
1696965341157899000,5.09289892578125,-0.18015754222869873,-0.06604444980621338,-0.15965180099010468
1696965341167913500,5.10291357421875,-0.18122276663780212,-0.04793548583984375,-0.07017222791910172
1696965341177927700,5.112927734375,-0.1844184696674347,-0.06924014538526535,-0.16071702539920807
1696965341187942000,5.12294189453125,-0.18122276663780212,-0.06071828305721283,-0.0723026916384697
1696965341197956000,5.1329560546875,-0.18548369407653809,-0.07669677585363388,-0.16071702539920807
1696965341207970600,5.142970458984375,-0.18761417269706726,-0.06924014538526535,-0.09680305421352386
1696965341217984800,5.15298486328125,-0.18548369407653809,-0.04687025398015976,-0.11704248189926147
1696965341227999000,5.1629990234375,-0.17909230291843414,-0.10439283400774002,-0.11065108329057693
1696965341238013200,5.17301318359375,-0.1844184696674347,-0.05858781561255455,-0.10639014840126038
1696965341248027400,5.18302734375,-0.1950708031654358,-0.03089175745844841,-0.12876003980636597
1696965341258041900,5.193041748046875,-0.1844184696674347,-0.02876129187643528,-0.052063263952732086
1696965341268056000,5.20305615234375,-0.18761417269706726,-0.07030537724494934,-0.10745538026094437
1696965341278070300,5.2130703125,-0.1950708031654358,-0.007456631399691105,-0.11597724258899689
1696965341288084500,5.22308447265625,-0.19294032454490662,-0.0106523297727108,-0.035019535571336746
1696965341298099200,5.23309912109375,-0.19080986082553864,-0.02023942768573761,-0.1138467788696289
1696965341308113700,5.24311376953125,-0.18654893338680267,-0.03408745676279068,-0.028628136962652206
1696965341318128000,5.253128173828125,-0.20146219432353973,-0.007456631399691105,-0.09680305421352386
1696965341328142600,5.263142578125,-0.19613602757453918,0.01917419396340847,-0.031823836266994476
1696965341338157000,5.273156982421875,-0.19294032454490662,-0.02450035884976387,-0.043541401624679565
1696965341348171300,5.283171142578125,-0.19294032454490662,-0.05219641700387001,-0.061650361865758896
1696965341358185500,5.293185546875,-0.20359265804290771,0.02450035884976387,-0.031823836266994476
1696965341368200000,5.303199951171875,-0.1950708031654358,-0.00852186419069767,-0.019041040912270546
1696965341378214100,5.313214111328125,-0.1940055638551712,-0.05539211630821228,-0.045671865344047546
1696965341388228400,5.323228271484375,-0.19720126688480377,-0.02769605815410614,-0.0030625448562204838
1696965341398242600,5.33324267578125,-0.20359265804290771,-0.02876129187643528,-0.044606633484363556
1696965341408257000,5.343257080078125,-0.19720126688480377,-0.01704372838139534,0.012915950268507004
1696965341418271200,5.353271240234375,-0.19826649129390717,-0.0852186381816864,-0.013714875094592571
1696965341428285400,5.363285400390625,-0.20785360038280487,-0.02982652559876442,-0.011584409512579441
1696965341438299600,5.373299560546875,-0.2046578973531723,-0.04900071769952774,0.012915950268507004
1696965341448314000,5.383314208984375,-0.20359265804290771,-0.0426093190908432,0.00226362026296556
1696965341458328300,5.393328369140625,-0.2057231217622757,-0.08734910935163498,0.020372580736875534
1696965341468342500,5.403342529296875,-0.20891882479190826,-0.04580501839518547,-0.016910573467612267
1696965341478356700,5.413356689453125,-0.20785360038280487,-0.02236989326775074,0.058720968663692474
1696965341488371200,5.42337109375,-0.20359265804290771,-0.1065233051776886,-0.006258244160562754
1696965341498385400,5.433385498046875,-0.20891882479190826,-0.06284874677658081,0.018242115154862404
1696965341508399600,5.443399658203125,-0.21744069457054138,0.007456631399691105,0.018242115154862404
1696965341518413800,5.453413818359375,-0.2142449915409088,-0.009587096981704235,0.036351077258586884
1696965341528428300,5.46342822265625,-0.2163754552602768,-0.08308817446231842,0.0033288532868027687
1696965341538442500,5.4734423828125,-0.22063638269901276,0.01384802907705307,0.026763979345560074
1696965341548456700,5.483456787109375,-0.2142449915409088,-0.02769605815410614,0.025698747485876083
1696965341558471000,5.493470947265625,-0.2153102308511734,-0.01704372838139534,0.012915950268507004
1696965341568485400,5.5034853515625,-0.21317975223064423,-0.04047885537147522,0.03209014609456062
1696965341578499600,5.51349951171875,-0.2163754552602768,-0.012782796286046505,0.004394086077809334
1696965341588513800,5.523513671875,-0.21104928851127625,0.01810896210372448,0.036351077258586884
1696965341598528000,5.533528076171875,-0.2046578973531723,-0.06178351491689682,0.023568280041217804
1696965341608542500,5.54354248046875,-0.20785360038280487,-0.03621792420744896,0.005459319334477186
1696965341618556700,5.553556640625,-0.20998406410217285,0.004260932095348835,0.03209014609456062
1696965341628571000,5.56357080078125,-0.2046578973531723,-0.009587096981704235,0.011850717477500439
1696965341638585000,5.573585205078125,-0.19720126688480377,-0.06497921794652939,0.041677240282297134
1696965341648599600,5.583599609375,-0.2046578973531723,-0.03302222490310669,-0.020106272771954536
1696965341658613800,5.59361376953125,-0.2057231217622757,0.01171756349503994,0.040612008422613144
1696965341668628000,5.6036279296875,-0.2057231217622757,-0.04793548583984375,0.020372580736875534
1696965341678642200,5.61364208984375,-0.19826649129390717,-0.05539211630821228,-0.0030625448562204838
1696965341688656600,5.62365673828125,-0.2046578973531723,-0.0021304660476744175,0.013981183059513569
1696965341698670800,5.6336708984375,-0.2046578973531723,0.0053261648863554,0.016111649572849274
1696965341708685000,5.64368505859375,-0.19720126688480377,-0.04793548583984375,0.016111649572849274
1696965341718699300,5.65369921875,-0.20359265804290771,-0.0213046595454216,-0.013714875094592571
1696965341728713700,5.663713623046875,-0.2046578973531723,0,0.016111649572849274
1696965341738728000,5.67372802734375,-0.20039696991443634,-0.0159784946590662,0.007589785382151604
1696965341748742100,5.6837421875,-0.20146219432353973,-0.02663082629442215,0.007589785382151604
1696965341758756400,5.69375634765625,-0.20359265804290771,-0.01704372838139534,-0.007323476951569319
1696965341768770800,5.703770751953125,-0.2046578973531723,0.012782796286046505,0.011850717477500439
1696965341778785000,5.713784912109375,-0.19933173060417175,-0.03834838792681694,0.006524552125483751
1696965341788799500,5.723799560546875,-0.20146219432353973,-0.007456631399691105,0.008655018173158169
1696965341798813700,5.733813720703125,-0.20039696991443634,-0.02556559257209301,0.022503048181533813
1696965341808828200,5.743828125,-0.20359265804290771,-0.01917419396340847,-0.016910573467612267
1696965341818842400,5.75384228515625,-0.1940055638551712,-0.02236989326775074,0.06830807030200958
1696965341828856600,5.763856689453125,-0.20039696991443634,-0.04367455467581749,-0.029693370684981346
1696965341838869500,5.773869384765625,-0.20039696991443634,-0.02023942768573761,0.04274247586727142
1696965341848884200,5.78388427734375,-0.19720126688480377,-0.03728315606713295,0.004394086077809334
1696965341858898400,5.7938984375,-0.19294032454490662,-0.02769605815410614,0.05232957378029823
1696965341868913000,5.803912841796875,-0.19826649129390717,-0.05219641700387001,-0.011584409512579441
1696965341878927000,5.813927001953125,-0.19720126688480377,-0.01917419396340847,0.04913387447595596
1696965341888941600,5.823941650390625,-0.19933173060417175,-0.02236989326775074,0.00226362026296556
1696965341898955800,5.833955810546875,-0.19294032454490662,-0.01171756349503994,0.024633513763546944
1696965341908970200,5.84397021484375,-0.19080986082553864,-0.07137060910463333,0.018242115154862404
1696965341918984400,5.853984375,-0.19933173060417175,0.0063913981430232525,-0.005193010903894901
1696965341928999000,5.8639990234375,-0.19613602757453918,-0.004260932095348835,0.034220609813928604
1696965341939013000,5.87401318359375,-0.1950708031654358,-0.04473978653550148,-0.006258244160562754
1696965341949027300,5.88402734375,-0.19933173060417175,-0.0063913981430232525,0.004394086077809334
1696965341959041800,5.894041748046875,-0.20039696991443634,0.004260932095348835,0.010785484686493874
1696965341969056000,5.904055908203125,-0.19613602757453918,-0.02343512699007988,0.00226362026296556
1696965341979070500,5.914070556640625,-0.19826649129390717,-0.0053261648863554,0.009720250964164734
1696965341989084700,5.924084716796875,-0.19720126688480377,-0.03089175745844841,0.0033288532868027687
1696965341999099100,5.93409912109375,-0.20252743363380432,-0.0031956990715116262,0.0011983871227130294
1696965342009113300,5.94411328125,-0.19613602757453918,-0.0053261648863554,0.009720250964164734
1696965342019127800,5.9541279296875,-0.19187510013580322,-0.07350108027458191,0.033155377954244614
1696965342029142000,5.96414208984375,-0.20146219432353973,-0.0213046595454216,-0.03608476743102074
1696965342039156200,5.97415625,-0.1950708031654358,0,0.05659050494432449
1696965342049170700,5.984170654296875,-0.19080986082553864,-0.09800143539905548,-0.0009320789249613881
1696965342059185000,5.994184814453125,-0.19613602757453918,-0.02876129187643528,-0.011584409512579441
1696965342069199400,6.004199462890625,-0.19933173060417175,-0.00852186419069767,0.036351077258586884
1696965342079213600,6.014213623046875,-0.19294032454490662,-0.04473978653550148,-0.009453942999243736
1696965342089228000,6.02422802734375,-0.19187510013580322,-0.04687025398015976,0.031024912372231483
1696965342099242200,6.0342421875,-0.19933173060417175,-0.012782796286046505,-0.009453942999243736
1696965342109256700,6.044256591796875,-0.19613602757453918,-0.0031956990715116262,0.027829213067889214
1696965342119271000,6.05427099609375,-0.19187510013580322,-0.0426093190908432,0.007589785382151604
1696965342129285400,6.064285400390625,-0.19294032454490662,-0.004260932095348835,0.0033288532868027687
1696965342139299600,6.074299560546875,-0.19613602757453918,-0.01917419396340847,0.021437814459204674
1696965342149313800,6.084313720703125,-0.19933173060417175,0.012782796286046505,-0.014780107885599136
1696965342159328300,6.094328369140625,-0.18761417269706726,-0.0319569893181324,0.06404713541269302
1696965342169342500,6.104342529296875,-0.1940055638551712,-0.03302222490310669,-0.044606633484363556
1696965342179357000,6.11435693359375,-0.1940055638551712,0.03621792420744896,0.05978620424866676
1696965342189371100,6.12437109375,-0.18974463641643524,0.0426093190908432,0.004394086077809334
1696965342199385600,6.134385498046875,-0.1833532303571701,-0.05219641700387001,0.022503048181533813
1696965342209399800,6.14439990234375,-0.18015754222869873,-0.01491326279938221,0.005459319334477186
1696965342219414300,6.154414306640625,-0.19080986082553864,-0.02876129187643528,-0.008388710208237171
1696965342229428500,6.164428466796875,-0.1844184696674347,-0.0532616525888443,0.033155377954244614
1696965342239442700,6.174442626953125,-0.1844184696674347,-0.08202294260263443,-0.019041040912270546
1696965342249457200,6.18445703125,-0.18974463641643524,-0.07989247888326645,-0.0009320789249613881
