time,seconds_elapsed,z,y,x
1696958308633206500,0.14720654296875,-2.3930091857910156,0.3105751574039459,-0.025276243686676025
1696958308643110000,0.15710986328125,-0.04116630554199219,0.7876900434494019,0.4936258792877197
1696958308653047600,0.167047607421875,-0.617243766784668,0.38944774866104126,-0.5989545583724976
1696958308663021300,0.177021240234375,-0.19693946838378906,1.234419345855713,-0.5133622288703918
1696958308673031000,0.187031005859375,-1.7207260131835938,-0.4477085769176483,0.0823671817779541
1696958308683075600,0.19707568359375,-0.7262125015258789,0.2869783639907837,0.39680832624435425
1696958308693152500,0.207152587890625,0.2743196487426758,0.11318670213222504,-0.9665369987487793
1696958308703257600,0.217257568359375,-3.0842418670654297,1.1193509101867676,-1.3090417385101318
1696958308713386500,0.227386474609375,2.0481462478637695,0.39499974250793457,-0.5428645610809326
1696958308723533000,0.237532958984375,-3.259537696838379,-0.1968841552734375,-0.0919874906539917
1696958308733692000,0.24769189453125,-2.6023197174072266,0.46414288878440857,-0.04013717174530029
1696958308743856000,0.257856201171875,-0.9475173950195312,0.7789030075073242,0.03686380386352539
1696958308754005500,0.268005615234375,-0.6465740203857422,0.612303614616394,0.29827064275741577
1696958308764019000,0.27801904296875,-1.5825510025024414,0.8938288688659668,-1.3042690753936768
1696958308774032100,0.2880322265625,-2.219240188598633,-0.17808526754379272,0.15990352630615234
1696958308784045600,0.298045654296875,2.1569042205810547,-0.03348472714424133,0.819939374923706
1696958308794059000,0.30805908203125,-2.6442155838012695,-0.192144513130188,-0.15294045209884644
1696958308804072200,0.318072265625,-0.08283042907714844,0.7888263463973999,-0.5151476860046387
1696958308814085600,0.328085693359375,2.1667985916137695,0.4060690402984619,0.21663784980773926
1696958308824098800,0.338098876953125,-0.43326663970947266,-0.33105528354644775,-0.3482978343963623
1696958308834112300,0.3481123046875,0.03014373779296875,-1.000886082649231,-0.06211817264556885
1696958308844125700,0.358125732421875,1.5340948104858398,-0.4427494406700134,0.15527743101119995
1696958308854139000,0.368138916015625,0.21400928497314453,0.3034951090812683,-0.8519923090934753
1696958308864152300,0.37815234375,-0.9018611907958984,0.25736114382743835,-0.33027976751327515
1696958308874165500,0.38816552734375,0.7095632553100586,-0.22680950164794922,1.143617868423462
1696958308884179000,0.398178955078125,3.3201847076416016,-0.12492266297340393,-0.1975420117378235
1696958308894192000,0.408192138671875,-2.587475299835205,-0.10793343186378479,-1.0797953605651855
1696958308904205600,0.41820556640625,1.8209524154663086,-0.11725285649299622,1.4367754459381104
1696958308914219000,0.428218994140625,2.71785831451416,0.052906155586242676,0.13418865203857422
1696958308924232200,0.438232177734375,-4.061898231506348,-0.41759413480758667,-1.1995971202850342
1696958308934245600,0.44824560546875,3.4643383026123047,0.3200155794620514,0.2330307960510254
1696958308944258800,0.4582587890625,-0.06922721862792969,0.16887488961219788,0.2524174451828003
1696958308954272300,0.468272216796875,-2.8767294883728027,0.1285940706729889,0.12480741739273071
1696958308964285700,0.47828564453125,5.216667175292969,-0.25360751152038574,-0.4051052927970886
1696958308974299000,0.488298828125,-2.975782871246338,0.0744369626045227,0.719134509563446
1696958308984312300,0.498312255859375,-1.8691387176513672,-0.5966072082519531,0.26144152879714966
1696958308994325500,0.508325439453125,-0.8070821762084961,0.6269346475601196,-1.6340701580047607
1696958309004339000,0.5183388671875,0.3031892776489258,-0.28780099749565125,-0.62237548828125
1696958309014352100,0.52835205078125,-1.0343694686889648,-0.11987683176994324,1.1348391771316528
1696958309024365600,0.538365478515625,1.8716888427734375,-0.5758695006370544,0.466550350189209
1696958309034379000,0.54837890625,-1.2073211669921875,-0.19767016172409058,-0.6234633326530457
1696958309044392200,0.55839208984375,-1.5304889678955078,-0.428955078125,-0.5998814105987549
1696958309054405600,0.568405517578125,-0.6782817840576172,0.7756084203720093,-0.1269158124923706
1696958309064418800,0.578418701171875,0.7869195938110352,0.3199490010738373,-0.40344563126564026
1696958309074432300,0.588432373046875,-0.42632484436035156,-0.3940995931625366,-1.5830442905426025
1696958309084445700,0.59844580078125,-1.3679580688476562,0.7421096563339233,-1.2740458250045776
1696958309094459000,0.608458984375,2.100661277770996,0.7579764127731323,-0.007033646106719971
1696958309104472300,0.618472412109375,-2.5382323265075684,-0.27576637268066406,-0.027312755584716797
1696958309114485500,0.628485595703125,-1.7075176239013672,-0.6353969573974609,0.8103428483009338
1696958309124499000,0.6384990234375,-0.27480411529541016,0.6812685132026672,0.41434556245803833
1696958309134512000,0.64851220703125,-0.01116943359375,0.5776218771934509,-1.086599588394165
1696958309144525600,0.658525634765625,-0.04355049133300781,0.0216599702835083,-0.04493975639343262
1696958309154539000,0.6685390625,-0.5896186828613281,-0.860602617263794,-0.12567734718322754
1696958309164552200,0.67855224609375,-1.0135021209716797,0.2993425726890564,0.7142144441604614
1696958309174565600,0.688565673828125,0.85516357421875,0.17345678806304932,0.4542776942253113
1696958309184578800,0.698578857421875,0.08228874206542969,1.3995428085327148,0.5620192885398865
1696958309194592300,0.70859228515625,0.3968801498413086,-1.9278074502944946,1.3816492557525635
1696958309204605700,0.718605712890625,-1.6244640350341797,-0.8151637315750122,0.6089220643043518
1696958309214619000,0.728618896484375,1.0749893188476562,-0.1767752468585968,0.42669886350631714
1696958309224632300,0.73863232421875,1.5073566436767578,0.9022717475891113,-0.23603415489196777
1696958309234645500,0.7486455078125,-3.6473350524902344,-1.0982168912887573,0.419988214969635
1696958309244659000,0.758658935546875,2.5526466369628906,-0.4700520634651184,0.2475641965866089
1696958309254672100,0.768672119140625,-1.129964828491211,-0.43976104259490967,0.05721241235733032
1696958309264685600,0.778685546875,-0.17938613891601562,0.14470404386520386,-0.2931825518608093
1696958309274699000,0.788698974609375,0.9142169952392578,-1.4050047397613525,-0.09443408250808716
1696958309284712200,0.798712158203125,-1.0738019943237305,0.19698244333267212,-0.9603728652000427
1696958309294725600,0.8087255859375,-2.057100296020508,-0.01320156455039978,-0.5702916383743286
1696958309304738800,0.81873876953125,1.6810188293457031,0.05425563454627991,-0.7921772003173828
1696958309314752300,0.828752197265625,-1.295945167541504,-0.4119974374771118,-0.18659895658493042
1696958309324765700,0.838765625,-2.3341145515441895,-0.26508739590644836,-0.15301662683486938
1696958309334779000,0.84877880859375,0.35365867614746094,-0.651602566242218,-0.3622283339500427
1696958309344792300,0.858792236328125,-0.8902730941772461,0.1735379695892334,-1.2224452495574951
1696958309354805500,0.868805419921875,-1.849090576171875,0.2383263111114502,0.16885051131248474
1696958309364819000,0.87881884765625,-0.6577968597412109,-1.0306326150894165,0.694501519203186
1696958309374832000,0.88883203125,0.49048328399658203,-1.0333653688430786,-0.3275616765022278
1696958309384845600,0.898845458984375,-2.0242719650268555,-0.32644200325012207,-0.7683547139167786
1696958309394859000,0.90885888671875,1.1478958129882812,0.10255178809165955,-0.4561663866043091
1696958309404872200,0.9188720703125,-2.080580711364746,-0.9265731573104858,-0.17829203605651855
1696958309414885600,0.9288857421875,0.3727560043334961,0.035441190004348755,-0.2914571464061737
1696958309424898800,0.93889892578125,-0.9531097412109375,-0.532753586769104,-1.3368635177612305
1696958309434912300,0.948912353515625,0.4174337387084961,-0.13541236519813538,0.009590119123458862
1696958309444925700,0.95892578125,0.6403493881225586,-0.8684675693511963,-0.2163754105567932
1696958309454939000,0.96893896484375,-2.5697879791259766,-0.7736757397651672,-0.7729854583740234
1696958309464952300,0.978952392578125,2.320465087890625,0.2295295000076294,0.3685489296913147
1696958309474965500,0.988965576171875,0.8314094543457031,0.18374699354171753,1.2083724737167358
1696958309484979000,0.99897900390625,-0.9692020416259766,-0.5059912204742432,1.5678396224975586
1696958309494992100,1.0089921875,2.5911779403686523,-0.39284437894821167,1.297106385231018
1696958309505005600,1.019005615234375,-0.3468198776245117,-0.2821264863014221,0.9250272512435913
1696958309515019000,1.02901904296875,-0.01180267333984375,0.15376484394073486,0.29374873638153076
1696958309525032200,1.0390322265625,1.7186689376831055,-1.867734670639038,-0.3481922149658203
1696958309535045600,1.049045654296875,-0.4183664321899414,0.7700401544570923,0.2973986566066742
1696958309545058800,1.059058837890625,1.4255857467651367,-0.6672333478927612,-0.41679781675338745
1696958309555072300,1.069072265625,-1.3112573623657227,0.2894236743450165,0.19573158025741577
1696958309565085700,1.079085693359375,2.5012826919555664,-0.4565957486629486,1.1849826574325562
1696958309575099000,1.089098876953125,-4.35032844543457,-1.0322223901748657,0.7570916414260864
1696958309585112300,1.0991123046875,2.950399398803711,-0.7436792850494385,1.682112693786621
1696958309595125800,1.109125732421875,-1.5762176513671875,0.08025571703910828,1.0096206665039062
1696958309605139200,1.11913916015625,-2.63454532623291,0.5171595811843872,-0.3657285273075104
1696958309615152400,1.12915234375,1.2386503219604492,0.10169339179992676,-0.6512092351913452
1696958309625165800,1.139165771484375,-1.0227890014648438,-1.1483056545257568,-1.317893385887146
1696958309635179300,1.14917919921875,-6.211418151855469,-0.43573662638664246,-0.369193434715271
1696958309645192700,1.159192626953125,1.7634029388427734,0.14107859134674072,-0.8969271779060364
1696958309655206100,1.1692060546875,0.3946828842163086,0.8339343070983887,-0.39091381430625916
1696958309665219300,1.17921923828125,-0.8434314727783203,-0.7081170678138733,0.15713444352149963
1696958309675232800,1.189232666015625,-0.7458086013793945,-0.3955153822898865,-0.3061554729938507
1696958309685246200,1.19924609375,-1.7556333541870117,-0.3163991868495941,-0.9513341784477234
1696958309695259600,1.209259765625,0.6583871841430664,1.1749131679534912,-0.4079301953315735
1696958309705273000,1.219273193359375,-0.19772052764892578,-1.1160242557525635,-2.2305784225463867
1696958309715286300,1.229286376953125,-3.4636483192443848,0.8442050218582153,-0.15387026965618134
1696958309725299700,1.2392998046875,5.073752403259277,-0.36123836040496826,0.7569980621337891
1696958309735313200,1.249313232421875,-4.697999477386475,-0.41059359908103943,0.9925956726074219
1696958309745326600,1.25932666015625,-0.8251962661743164,1.0678504705429077,0.2793475389480591
1696958309755339800,1.26933984375,2.1179895401000977,-0.8551262617111206,1.348694086074829
1696958309765353200,1.279353271484375,-2.9076409339904785,-0.20989811420440674,0.18166792392730713
1696958309775366700,1.28936669921875,1.4681510925292969,-0.6554772257804871,-0.5887048840522766
1696958309785380000,1.299380126953125,-3.728321075439453,0.005975067615509033,-0.4419683814048767
1696958309795393500,1.3093935546875,-1.1942596435546875,1.756912350654602,-1.054379940032959
1696958309805406700,1.31940673828125,-0.7001256942749023,-0.7120199203491211,0.4008963704109192
1696958309815420200,1.329420166015625,-0.25263309478759766,0.010454714298248291,1.1062617301940918
1696958309825433600,1.33943359375,1.8976507186889648,-0.4686216711997986,1.837540626525879
1696958309835447000,1.349447021484375,0.15209293365478516,0.13332638144493103,0.06357648968696594
1696958309845460500,1.35946044921875,-2.0030431747436523,-0.0565396249294281,0.2582782506942749
1696958309855473700,1.3694736328125,0.9453754425048828,0.5127055644989014,0.4640519917011261
1696958309865487000,1.379487060546875,-2.628263473510742,-1.7806469202041626,0.08625805377960205
1696958309875500500,1.38950048828125,0.7479534149169922,-0.7649115324020386,0.032382041215896606
1696958309885514000,1.399513916015625,0.46654224395751953,0.9953657388687134,0.4038368761539459
1696958309895527400,1.40952734375,0.2677011489868164,0.9903563857078552,-0.8384559750556946
1696958309905540600,1.41954052734375,-1.7699613571166992,-0.592002809047699,-0.6568450331687927
1696958309915554000,1.429553955078125,-2.71297550201416,-1.0518500804901123,-0.5567712187767029
1696958309925567500,1.4395673828125,-2.198741912841797,0.8876814842224121,-0.08301079273223877
1696958309935581000,1.449580810546875,2.2119855880737305,0.18773584067821503,0.784601628780365
1696958309945594000,1.459593994140625,-0.8910551071166992,-0.31498953700065613,-0.18706190586090088
1696958309955607600,1.469607666015625,-2.231276035308838,-0.6804220080375671,-1.7822532653808594
1696958309965621000,1.47962109375,0.010904312133789062,0.9080096483230591,-1.2653658390045166
1696958309975634400,1.489634521484375,0.2823801040649414,-0.5703529119491577,0.922118067741394
1696958309985647900,1.49964794921875,0.008994102478027344,-0.6700218915939331,0.14400199055671692
1696958309995661000,1.5096611328125,-1.7516975402832031,-0.36412715911865234,-1.262574315071106
1696958310005674500,1.519674560546875,2.671419143676758,2.1243932247161865,0.48994553089141846
1696958310015688000,1.52968798828125,0.854609489440918,-1.0024312734603882,1.1427342891693115
1696958310025701400,1.539701416015625,-3.0772037506103516,-2.411592483520508,0.3002355098724365
1696958310035714800,1.54971484375,1.9683971405029297,0.4783059358596802,-1.4736526012420654
1696958310045728000,1.55972802734375,0.5661907196044922,1.9673190116882324,-0.5644245147705078
1696958310055741400,1.569741455078125,0.8384599685668945,-0.7151049375534058,0.7893409729003906
1696958310065755000,1.5797548828125,-0.28550243377685547,-1.0478969812393188,2.254115581512451
1696958310075768300,1.589768310546875,1.8817329406738281,-0.3802582621574402,0.590206503868103
1696958310085781500,1.599781494140625,-0.9293661117553711,1.3188679218292236,0.2087622582912445
1696958310095795000,1.609794921875,2.4419078826904297,-0.2906416654586792,1.1745831966400146
1696958310105808400,1.619808349609375,-0.2682056427001953,-0.9280257225036621,0.4259413778781891
1696958310115821800,1.62982177734375,-1.5661382675170898,1.0161941051483154,-0.3043387532234192
1696958310125835300,1.639835205078125,1.3237676620483398,0.17842507362365723,-0.5027792453765869
1696958310135848400,1.649848388671875,-0.912388801574707,0.20050875842571259,1.2433398962020874
1696958310145862000,1.65986181640625,-0.6879158020019531,0.07020197808742523,0.2641282081604004
1696958310155875300,1.669875244140625,-3.3833460807800293,0.3763854205608368,-0.009943932294845581
1696958310165888800,1.679888671875,0.7562284469604492,-0.27387332916259766,0.11939990520477295
1696958310175902200,1.689902099609375,-0.757817268371582,-0.65828537940979,0.14885732531547546
1696958310185915400,1.699915283203125,-3.5434956550598145,0.7494862675666809,-0.8174211978912354
1696958310195928800,1.7099287109375,0.28748512268066406,0.026067733764648438,-0.8212102651596069
1696958310205942300,1.7199423828125,-2.290274143218994,-0.3418373167514801,-0.8418481945991516
1696958310215955700,1.729955810546875,-0.6427326202392578,0.43189895153045654,0.17752134799957275
1696958310225969000,1.739968994140625,-0.5529346466064453,0.27381446957588196,0.23629972338676453
1696958310235982300,1.749982421875,-0.07316112518310547,0.574211597442627,0.5395307540893555
1696958310245995800,1.759995849609375,0.2940788269042969,-0.015736311674118042,-0.7052457332611084
1696958310256009200,1.77000927734375,-1.2362003326416016,0.4340803623199463,0.31555822491645813
1696958310266022700,1.780022705078125,1.4862375259399414,0.504721999168396,1.0764493942260742
1696958310276035800,1.790035888671875,0.6107349395751953,0.3403719663619995,0.1332794725894928
1696958310286049300,1.80004931640625,-2.3841094970703125,0.2578851580619812,-1.000413417816162
1696958310296062700,1.810062744140625,1.9312353134155273,0.02468942105770111,-0.23788048326969147
1696958310306076200,1.820076171875,-1.1851797103881836,0.715337872505188,0.5569136142730713
1696958310316089600,1.830089599609375,0.817744255065918,0.19748060405254364,0.8057600259780884
1696958310326102800,1.840102783203125,1.1181631088256836,-0.7177174091339111,0.7080762982368469
1696958310336116200,1.8501162109375,0.5119657516479492,0.469548761844635,0.9585025906562805
1696958310346129700,1.860129638671875,1.986067771911621,0.27451291680336,0.5330410003662109
1696958310356143000,1.87014306640625,-1.2645740509033203,0.1874256730079651,0.6692301034927368
1696958310366156300,1.88015625,1.858382225036621,-0.29983967542648315,0.6035887598991394
1696958310376169700,1.890169677734375,-1.9396286010742188,0.3178720474243164,0.1457088589668274
1696958310386183200,1.90018310546875,0.34871959686279297,0.4376565217971802,0.6350057721138
1696958310396196600,1.910196533203125,-0.010362625122070312,0.24717770516872406,1.4529781341552734
1696958310406210000,1.9202099609375,2.4578628540039062,-0.3602088987827301,0.17575639486312866
1696958310416223200,1.93022314453125,-1.8773198127746582,0.6573717594146729,-0.16957974433898926
1696958310426236700,1.940236572265625,1.168501853942871,0.15389344096183777,1.2790143489837646
1696958310436250000,1.95025,0.3377876281738281,-0.12768390774726868,1.222513198852539
1696958310446263600,1.960263671875,-0.7554378509521484,0.702968955039978,0.56948322057724
1696958310456277000,1.970277099609375,1.1548528671264648,0.6797050833702087,0.7623002529144287
1696958310466290200,1.980290283203125,2.4833335876464844,0.124937042593956,1.0353684425354004
1696958310476303600,1.9903037109375,0.4924755096435547,0.5558239817619324,0.07822328805923462
1696958310486317000,2.000317138671875,-1.550069808959961,-0.4795756936073303,0.09388262033462524
1696958310496330500,2.01033056640625,0.8840665817260742,0.7273784875869751,0.29699385166168213
1696958310506344000,2.020343994140625,1.2085819244384766,0.8643383979797363,0.17598247528076172
1696958310516357000,2.030357177734375,-0.5275774002075195,-0.12837772071361542,0.5473383069038391
1696958310526370600,2.04037060546875,2.1776952743530273,-0.17645692825317383,0.6873330473899841
1696958310536384000,2.050384033203125,-0.11621952056884766,0.7088947892189026,-0.26902633905410767
1696958310546397400,2.0603974609375,-2.9136734008789062,0.7141534090042114,-0.7173702716827393
1696958310556410600,2.07041064453125,0.6048898696899414,0.1855403035879135,-0.7034543752670288
1696958310566424000,2.080424072265625,0.07345771789550781,0.37270617485046387,-0.5606687068939209
1696958310576437500,2.0904375,-2.1144251823425293,0.6649560928344727,-0.3074532151222229
1696958310586451000,2.100450927734375,2.01544189453125,0.21371646225452423,0.4324583411216736
1696958310596464400,2.11046435546875,-0.7827262878417969,0.35990652441978455,0.6511615514755249
1696958310606477600,2.1204775390625,-1.2362737655639648,0.6898068189620972,-0.024588048458099365
1696958310616491000,2.130490966796875,-0.2856922149658203,0.605048656463623,0.9357858300209045
1696958310626504400,2.14050439453125,2.476536750793457,1.0886355638504028,0.8150413632392883
1696958310636518000,2.150517822265625,-0.0715932846069336,0.30490824580192566,0.21742987632751465
1696958310646531300,2.16053125,-0.9100427627563477,1.0733579397201538,0.33496081829071045
1696958310656544500,2.17054443359375,1.1017179489135742,-0.026890933513641357,0.5157941579818726
1696958310666558000,2.180557861328125,-0.991755485534668,0.5004031658172607,-0.7084183692932129
1696958310676571400,2.1905712890625,-1.449239730834961,-0.10355213284492493,-0.6300895810127258
1696958310686584800,2.200584716796875,1.8104686737060547,0.6616199612617493,1.541254997253418
1696958310696598000,2.210597900390625,2.4934730529785156,-0.2496071755886078,0.4362580180168152
1696958310706611500,2.220611572265625,-1.2893943786621094,1.2544093132019043,0.9248232245445251
1696958310716625000,2.230625,3.5567712783813477,-0.2451144903898239,0.6950691938400269
1696958310726638300,2.240638427734375,-0.8512678146362305,0.2576698064804077,1.2272040843963623
1696958310736651800,2.25065185546875,1.8995847702026367,0.3211073577404022,0.2882975935935974
1696958310746665000,2.2606650390625,-1.7859258651733398,1.0467243194580078,0.05928349494934082
1696958310756678400,2.270678466796875,1.4987916946411133,0.2456110417842865,0.8294430375099182
1696958310766691800,2.28069189453125,1.3345775604248047,0.054511189460754395,-0.046217262744903564
1696958310776705300,2.290705322265625,-2.2146525382995605,0.2894774079322815,0.3539932370185852
1696958310786718700,2.30071875,1.5822477340698242,0.06689360737800598,0.5445705056190491
1696958310796732000,2.31073193359375,-1.6154298782348633,1.074164628982544,0.33767908811569214
1696958310806745300,2.320745361328125,0.1375131607055664,0.9080556631088257,-0.022938549518585205
1696958310816758800,2.3307587890625,-0.669036865234375,0.316503643989563,0.5121196508407593
1696958310826772200,2.340772216796875,-0.10327720642089844,0.2471911609172821,-0.09007185697555542
1696958310836785400,2.350785400390625,-1.3810129165649414,0.7138157486915588,-0.4761806130409241
1696958310846798800,2.360798828125,-0.0772867202758789,0.4311164915561676,-0.2880294919013977
1696958310856812300,2.370812255859375,-0.21015357971191406,0.5289256572723389,0.049579501152038574
1696958310866825700,2.38082568359375,-1.625624656677246,-0.0067892372608184814,0.3959422707557678
1696958310876839200,2.390839111328125,0.22264575958251953,1.0034490823745728,0.0764150619506836
1696958310886852400,2.400852294921875,-0.0786590576171875,0.2922605276107788,0.2885487675666809
1696958310896865800,2.41086572265625,-0.9033060073852539,0.10816678404808044,0.8130508661270142
1696958310906879200,2.420879150390625,-0.3844766616821289,0.6048107743263245,0.4402428865432739
1696958310916892700,2.430892578125,0.7142353057861328,0.7306475639343262,-0.7800620794296265
1696958310926906000,2.440906005859375,-0.018304824829101562,0.2917666733264923,-0.5048230886459351
1696958310936919600,2.45091943359375,-2.1411166191101074,0.2498999834060669,-0.5828354358673096
1696958310946933000,2.46093310546875,0.30556392669677734,-0.10258322954177856,-1.1220908164978027
1696958310956946400,2.470946533203125,-1.808608055114746,0.5030906200408936,-0.6545780301094055
1696958310966959900,2.4809599609375,1.1671104431152344,0.26600027084350586,1.1507285833358765
1696958310976973000,2.49097314453125,-0.1449289321899414,-0.017858505249023438,1.5511022806167603
1696958310986986500,2.500986572265625,1.8400821685791016,0.6103530526161194,0.34215474128723145
1696958310997000000,2.511,-0.7631912231445312,1.2172268629074097,-1.283799648284912
1696958311007013400,2.521013427734375,-0.8123254776000977,0.7461347579956055,0.26019859313964844
1696958311017026800,2.53102685546875,2.5307178497314453,0.0723961889743805,0.03365069627761841
1696958311027040300,2.541040283203125,-2.98109769821167,0.052772969007492065,-0.5402001142501831
1696958311037053700,2.5510537109375,2.045745849609375,0.5004041194915771,-0.029717564582824707
1696958311047067100,2.561067138671875,-0.2099294662475586,-0.034780800342559814,0.4874759316444397
1696958311057080600,2.57108056640625,0.8930110931396484,0.7650008201599121,0.08315372467041016
1696958311067094000,2.581093994140625,-0.22257041931152344,-0.040506452322006226,0.11914151906967163
1696958311077107500,2.591107421875,1.1429853439331055,-0.014827847480773926,0.4125930070877075
1696958311087121000,2.601120849609375,0.38426780700683594,0.25859159231185913,-0.28063303232192993
1696958311097134300,2.61113427734375,-1.0632734298706055,0.5412250757217407,-0.4924597442150116
1696958311107147800,2.621147705078125,2.791780471801758,0.5141969919204712,0.26831185817718506
1696958311117161200,2.6311611328125,-3.112614154815674,-0.5338683128356934,0.2638521194458008
1696958311127174700,2.641174560546875,0.38733577728271484,0.11758887767791748,-0.6173731684684753
1696958311137188000,2.65118798828125,0.6675176620483398,0.9587427377700806,-1.0966978073120117
1696958311147201500,2.661201416015625,-2.2362747192382812,0.4591173231601715,-1.247448444366455
1696958311157215000,2.671215087890625,-0.05163383483886719,-0.25415146350860596,-0.8457419872283936
1696958311167228400,2.681228515625,-0.7523250579833984,0.45372071862220764,-0.47777059674263
1696958311177241900,2.691241943359375,-1.7420616149902344,0.4258285462856293,-0.6320112347602844
1696958311187255300,2.70125537109375,1.5483369827270508,0.5242816209793091,-0.6549165844917297
1696958311197268700,2.711268798828125,-1.3589277267456055,0.323167622089386,-1.4735370874404907
1696958311207282200,2.7212822265625,-0.685211181640625,1.202141523361206,-0.7683948874473572
1696958311217295600,2.731295654296875,-0.5724754333496094,0.6049932241439819,-0.8182992935180664
1696958311227309000,2.74130908203125,-0.5268020629882812,0.9617929458618164,0.4933167099952698
1696958311237322500,2.751322509765625,-0.014028549194335938,0.2090582251548767,0.43760544061660767
1696958311247336000,2.7613359375,-0.4293384552001953,1.2449979782104492,0.579917311668396
1696958311257349400,2.771349365234375,1.59112548828125,0.3812219798564911,0.21325790882110596
1696958311267362800,2.78136279296875,-1.1884984970092773,0.46945351362228394,-0.33411550521850586
1696958311277376300,2.791376220703125,0.9301729202270508,0.8894824385643005,-0.22464841604232788
1696958311287389700,2.8013896484375,-0.9017677307128906,0.874626636505127,-0.012942612171173096
1696958311297403100,2.811403076171875,-1.586258888244629,0.39207521080970764,-0.18577885627746582
1696958311307416600,2.82141650390625,1.1353521347045898,0.6873860359191895,-0.03784853219985962
1696958311317430000,2.831429931640625,-1.25567626953125,0.3208189606666565,-0.7180954217910767
1696958311327443500,2.841443359375,-0.005726814270019531,1.0051658153533936,-1.4593698978424072
1696958311337457000,2.851456787109375,-0.6262111663818359,0.5706067681312561,-1.4593284130096436
1696958311347470300,2.86147021484375,-0.6907033920288086,1.2066619396209717,-0.35500937700271606
1696958311357483800,2.87148388671875,-0.6358156204223633,0.22867316007614136,-0.38603559136390686
1696958311367497200,2.881497314453125,-1.6502399444580078,0.8463587760925293,-0.05487501621246338
1696958311377510700,2.8915107421875,2.4943408966064453,0.6504812836647034,-0.8727751970291138
1696958311387524000,2.901524169921875,-0.6794118881225586,1.0671617984771729,-1.0875027179718018
1696958311397537500,2.91153759765625,-0.1425466537475586,0.6664289236068726,-0.9732729196548462
1696958311407551000,2.921551025390625,-0.5098285675048828,0.6789214611053467,-1.0822842121124268
1696958311417564400,2.931564453125,0.9768886566162109,1.3460988998413086,-0.04546499252319336
1696958311427577900,2.941577880859375,-0.5352306365966797,0.09109354019165039,-0.46996599435806274
1696958311437591000,2.951591064453125,0.7363948822021484,1.1631410121917725,-0.729705810546875
1696958311447604500,2.9616044921875,0.6003313064575195,0.026560068130493164,-1.2732057571411133
1696958311457618000,2.971617919921875,1.2857818603515625,0.4856853783130646,-1.3981232643127441
1696958311467631400,2.98163134765625,-1.3588733673095703,1.8244290351867676,-1.2885632514953613
1696958311477644800,2.991644775390625,2.3607730865478516,0.03946593403816223,0.3033205270767212
1696958311487658000,3.001657958984375,0.017887115478515625,1.3110289573669434,0.20977795124053955
1696958311497671400,3.01167138671875,0.2805614471435547,-0.4273350238800049,-0.2841675281524658
1696958311507684900,3.021684814453125,1.650050163269043,1.4652328491210938,-0.3992156386375427
1696958311517698300,3.0316982421875,-0.7666921615600586,-0.07555356621742249,-0.8137506246566772
1696958311527711700,3.041711669921875,-0.35349369049072266,1.1791706085205078,-0.6558089256286621
1696958311537725000,3.051724853515625,1.2902145385742188,1.0516661405563354,-0.8703832626342773
1696958311547738400,3.06173828125,-2.242490291595459,-0.18878775835037231,-0.022276103496551514
1696958311557751800,3.071751708984375,1.9334726333618164,1.0550870895385742,0.4114640951156616
1696958311567765200,3.08176513671875,-0.3935871124267578,1.0022592544555664,-0.9749362468719482
1696958311577778400,3.0917783203125,-1.5094823837280273,1.2075525522232056,-1.2218282222747803
1696958311587792000,3.1017919921875,-0.7072153091430664,0.436564564704895,-2.0914385318756104
1696958311597805300,3.111805419921875,-1.841094970703125,0.8961154818534851,-1.8681070804595947
1696958311607818800,3.12181884765625,1.5318822860717773,1.2552120685577393,-1.155815839767456
1696958311617832200,3.131832275390625,-2.120737075805664,0.03209054470062256,0.4218626022338867
1696958311627845400,3.141845458984375,2.083676338195801,0.8179377317428589,-0.18281537294387817
1696958311637858800,3.15185888671875,-0.34866905212402344,0.9786408543586731,-1.4598259925842285
1696958311647872300,3.161872314453125,1.5151920318603516,1.0264339447021484,-1.314631700515747
1696958311657885700,3.1718857421875,-0.3899383544921875,0.8727081418037415,-0.307777464389801
1696958311667899100,3.181899169921875,-0.18337249755859375,0.011301994323730469,-0.07791018486022949
1696958311677912300,3.191912353515625,0.9682407379150391,1.6598691940307617,0.8220678567886353
1696958311687925800,3.20192578125,2.0347423553466797,-0.23566457629203796,0.10946619510650635
1696958311697939200,3.211939208984375,-1.3625097274780273,1.1057896614074707,-0.25244683027267456
1696958311707952600,3.22195263671875,1.6596698760986328,0.9898055791854858,-1.4549400806427002
1696958311717965800,3.2319658203125,-2.0849599838256836,0.10034912824630737,-1.7022439241409302
1696958311727979300,3.241979248046875,-0.24942684173583984,0.8501891493797302,-1.3453586101531982
1696958311737992700,3.25199267578125,-0.6305961608886719,0.6115742325782776,-0.7252265214920044
1696958311748006100,3.262006103515625,0.20249652862548828,0.1483830213546753,0.01352834701538086
1696958311758019600,3.27201953125,-1.6800594329833984,0.13971513509750366,-0.4003596901893616
1696958311768032800,3.28203271484375,0.5794916152954102,1.1748034954071045,-0.5707131028175354
1696958311778046200,3.292046142578125,-0.12447834014892578,2.050609588623047,-1.986443281173706
1696958311788059600,3.3020595703125,-2.4929466247558594,1.1255000829696655,-0.8347201347351074
1696958311798073000,3.312072998046875,3.8716554641723633,0.9198582768440247,-0.6598895788192749
1696958311808086500,3.32208642578125,-2.263139247894287,1.282554030418396,-0.7453936338424683
1696958311818099700,3.332099609375,2.118453025817871,-0.6551936864852905,-0.09224998950958252
1696958311828113200,3.342113037109375,-0.26146411895751953,0.5218999981880188,0.3651103973388672
1696958311838126600,3.352126708984375,-1.1400766372680664,1.609761357307434,-0.8211531043052673
1696958311848140000,3.36214013671875,0.17205810546875,1.7653703689575195,-0.8201227784156799
1696958311858153200,3.3721533203125,-0.3731727600097656,1.2029279470443726,-0.696690559387207
1696958311868166700,3.382166748046875,1.390213966369629,0.32418251037597656,-0.22498315572738647
1696958311878180000,3.39218017578125,-0.8921804428100586,0.002836465835571289,0.011123120784759521
1696958311888193500,3.402193603515625,-0.6272077560424805,1.802649736404419,-0.032604336738586426
1696958311898207000,3.41220703125,1.1655864715576172,0.25618499517440796,-1.4901572465896606
1696958311908220200,3.42222021484375,-0.7436161041259766,1.254601001739502,-0.7103627920150757
1696958311918233600,3.432233642578125,-0.8565235137939453,0.7539083957672119,-0.06946122646331787
1696958311928247000,3.4422470703125,0.7985286712646484,1.5338858366012573,-0.4164069592952728
1696958311938260500,3.452260498046875,-1.6688413619995117,1.3007428646087646,-0.398281455039978
1696958311948274000,3.46227392578125,-0.18819236755371094,0.02407914400100708,0.18852820992469788
1696958311958287400,3.472287353515625,0.7289495468139648,0.00567394495010376,-1.5449557304382324
1696958311968300800,3.48230078125,-0.9307184219360352,1.9674993753433228,-1.7977545261383057
1696958311978314200,3.492314208984375,-0.13519573211669922,0.4743930697441101,-0.46985673904418945
1696958311988327700,3.50232763671875,1.479696273803711,0.3009227514266968,-0.3747003674507141
1696958311998341000,3.512341064453125,-0.5788059234619141,1.6447312831878662,-1.0135678052902222
1696958312008354600,3.5223544921875,1.1616268157958984,1.0749425888061523,-0.14851558208465576
1696958312018368000,3.532367919921875,1.1966667175292969,0.5860990881919861,0.5072985887527466
1696958312028381400,3.54238134765625,-0.7323207855224609,0.5276563763618469,-0.763137698173523
1696958312038395000,3.552394775390625,-0.12837696075439453,0.49523723125457764,-0.7510331869125366
1696958312048408300,3.562408203125,1.816324234008789,1.3583488464355469,-0.30406033992767334
1696958312058421800,3.572421875,-0.11889934539794922,1.4008944034576416,-1.1343461275100708
1696958312068435200,3.582435302734375,-2.2493419647216797,-0.09093469381332397,-1.1381254196166992
1696958312078448600,3.59244873046875,1.2400484085083008,1.640107274055481,0.09599289298057556
1696958312088462000,3.602462158203125,0.11870574951171875,0.11856567859649658,-0.7764551639556885
1696958312098475500,3.6124755859375,-0.7559947967529297,0.9295927286148071,-1.7311697006225586
1696958312108489000,3.622489013671875,-0.24239158630371094,1.6273523569107056,-1.080174207687378
1696958312118502400,3.63250244140625,-2.0474777221679688,0.8712313771247864,-0.08911117911338806
1696958312128515800,3.642515869140625,0.843684196472168,0.1981373429298401,0.2934224009513855
1696958312138529300,3.652529296875,-0.835423469543457,1.5632373094558716,-0.2997664213180542
1696958312148542700,3.662542724609375,0.12677001953125,1.3679590225219727,-1.2047079801559448
1696958312158556200,3.67255615234375,-0.7381057739257812,0.6251276135444641,-0.5421262383460999
1696958312168569600,3.682569580078125,-0.8795957565307617,-0.1829434633255005,-0.3561886250972748
1696958312178583000,3.6925830078125,-0.2227926254272461,0.9246446490287781,-0.7164818644523621
1696958312188596500,3.702596435546875,-0.15539169311523438,1.4621367454528809,-1.1374804973602295
1696958312198610000,3.71260986328125,0.17954254150390625,1.1598728895187378,-0.2625907063484192
1696958312208623400,3.722623291015625,-0.8053398132324219,0.2826029062271118,-0.3636007010936737
1696958312218636800,3.73263671875,0.20487499237060547,0.6498684287071228,-1.1004198789596558
1696958312228650200,3.742650146484375,0.4433269500732422,2.2750160694122314,-0.565487802028656
1696958312238663700,3.75266357421875,1.192030906677246,-0.0025786161422729492,-0.05211299657821655
1696958312248677000,3.762677001953125,-1.0376338958740234,1.0588750839233398,0.37354663014411926
1696958312258690600,3.772690673828125,2.37142276763916,0.834813117980957,0.13040894269943237
1696958312268704000,3.7827041015625,-2.6374478340148926,1.1475915908813477,-0.0357416570186615
1696958312278717400,3.792717529296875,1.1244630813598633,1.4196088314056396,-0.6657208204269409
1696958312288731000,3.80273095703125,-0.058750152587890625,0.8470911383628845,-1.6376562118530273
1696958312298744300,3.812744384765625,-3.7763290405273438,-0.14493560791015625,-0.8973441123962402
1696958312308757800,3.8227578125,1.4846115112304688,1.440593957901001,-0.2518285810947418
1696958312318771200,3.832771240234375,-0.3828458786010742,1.0718588829040527,-0.39520761370658875
1696958312328784600,3.84278466796875,-0.325103759765625,0.1477944254875183,-2.085024356842041
1696958312338797800,3.8527978515625,-1.5377874374389648,1.5032086372375488,-1.2738009691238403
1696958312348811300,3.862811279296875,0.338958740234375,0.6886391043663025,-1.224979043006897
1696958312358824700,3.87282470703125,-1.4824113845825195,-0.04993849992752075,-1.0168108940124512
1696958312368838100,3.882838134765625,0.1650381088256836,1.3361759185791016,-0.5273200273513794
1696958312378851600,3.8928515625,0.9387302398681641,1.0031867027282715,-0.5698943138122559
1696958312388864800,3.90286474609375,1.170365333557129,0.4820353388786316,-0.7390381097793579
1696958312398878200,3.912878173828125,-0.42873477935791016,1.2349581718444824,-1.011150598526001
1696958312408891600,3.9228916015625,0.5852689743041992,-0.02622389793395996,-0.18529953062534332
1696958312418905000,3.932905029296875,0.6077661514282227,1.1815812587738037,0.703233003616333
1696958312428918300,3.942918212890625,0.3383474349975586,0.42328429222106934,-0.47516077756881714
1696958312438931700,3.952931640625,0.5046806335449219,0.19882160425186157,-0.40366220474243164
1696958312448945200,3.962945068359375,1.8988533020019531,1.4049851894378662,-0.2804931402206421
1696958312458958600,3.97295849609375,-0.6913490295410156,0.10050809383392334,-0.790916919708252
1696958312468972000,3.982971923828125,0.3997688293457031,0.49394458532333374,-0.7821642160415649
1696958312478985200,3.992985107421875,0.23169231414794922,0.7368481159210205,-0.4076460599899292
1696958312488998700,4.00299853515625,-0.07485771179199219,0.22634023427963257,-0.0799025297164917
1696958312499012000,4.01301220703125,1.9755420684814453,0.858685314655304,0.46892303228378296
1696958312509025500,4.023025634765625,-1.9336705207824707,-0.011239707469940186,-0.1878836750984192
1696958312519039000,4.0330390625,1.6358718872070312,0.6941474676132202,-1.4625084400177002
1696958312529052200,4.04305224609375,-2.5159740447998047,1.1781971454620361,-1.6833736896514893
1696958312539065600,4.053065673828125,0.2953329086303711,-0.5489128828048706,0.15287646651268005
1696958312549079000,4.0630791015625,0.9066867828369141,0.027593016624450684,-0.5844008326530457
1696958312559092500,4.073092529296875,-4.041700839996338,0.3234466314315796,-0.36184126138687134
1696958312569105700,4.083105712890625,3.958676338195801,1.5296931266784668,-0.44346147775650024
1696958312579119000,4.093119140625,-1.4842767715454102,-0.15208840370178223,-1.3444924354553223
1696958312589132500,4.103132568359375,-0.40560436248779297,0.47993022203445435,-1.026155948638916
1696958312599146000,4.11314599609375,1.163498878479004,0.24154329299926758,0.11040806770324707
1696958312609159400,4.123159423828125,-2.1225380897521973,0.43236005306243896,0.32319924235343933
1696958312619172600,4.133172607421875,1.242330551147461,1.0225303173065186,0.2332974076271057
1696958312629186000,4.14318603515625,-0.3997793197631836,0.1857481598854065,-0.4017009437084198
1696958312639199500,4.153199462890625,-1.1348276138305664,1.1357877254486084,-0.9165774583816528
