time,seconds_elapsed,z,y,x
1696961677885552400,0.164552490234375,-0.050199106335639954,-0.007456631399691105,0.031024912372231483
1696961677895566300,0.17456640625,-0.058720968663692474,-0.02023942768573761,0.006524552125483751
1696961677905582600,0.18458251953125,-0.05659050494432449,-0.007456631399691105,0.0011983871227130294
1696961677915601000,0.194600830078125,-0.05659050494432449,-0.01810896210372448,0.008655018173158169
1696961677925621000,0.20462109375,-0.050199106335639954,-0.0319569893181324,-0.010519175790250301
1696961677935642600,0.214642578125,-0.0555252730846405,-0.00852186419069767,0.027829213067889214
1696961677945665500,0.22466552734375,-0.053394805639982224,0.007456631399691105,-0.033954303711652756
1696961677955688700,0.234688720703125,-0.051264338195323944,-0.03728315606713295,0.026763979345560074
1696961677965712400,0.24471240234375,-0.048068638890981674,-0.009587096981704235,0.0001331541279796511
1696961677975732200,0.254732177734375,-0.058720968663692474,0.04580501839518547,-0.027562905102968216
1696961677985745700,0.26474560546875,-0.054460037499666214,-0.05219641700387001,0.020372580736875534
1696961677995759000,0.274759033203125,-0.050199106335639954,-0.02556559257209301,-0.0030625448562204838
1696961678005772500,0.2847724609375,-0.06298190355300903,0.05219641700387001,-0.028628136962652206
1696961678015786000,0.294785888671875,-0.060851436108350754,-0.02663082629442215,0.015046416781842709
1696961678025799400,0.30479931640625,-0.048068638890981674,-0.07030537724494934,-0.007323476951569319
1696961678035812600,0.3148125,-0.057655736804008484,0.04580501839518547,-0.03288906812667847
1696961678045826000,0.324825927734375,-0.07150376588106155,0.04793548583984375,0.034220609813928604
1696961678055839500,0.334839599609375,-0.060851436108350754,-0.05539211630821228,-0.045671865344047546
1696961678065853000,0.34485302734375,-0.06404713541269302,-0.0021304660476744175,0.0011983871227130294
1696961678075866400,0.354866455078125,-0.06511236727237701,0.02982652559876442,-0.001997311832383275
1696961678085879600,0.364879638671875,-0.041677240282297134,-0.04367455467581749,-0.03608476743102074
1696961678095893000,0.37489306640625,-0.053394805639982224,0.03302222490310669,0.005459319334477186
1696961678105906400,0.384906494140625,-0.054460037499666214,0.03515268862247467,-0.020106272771954536
1696961678115920000,0.394919921875,-0.040612008422613144,-0.03834838792681694,-0.008388710208237171
1696961678125933000,0.40493310546875,-0.040612008422613144,0.01491326279938221,-0.011584409512579441
1696961678135946500,0.414946533203125,-0.05978620424866676,0.06924014538526535,-0.001997311832383275
1696961678145960000,0.4249599609375,-0.0555252730846405,0.02663082629442215,-0.009453942999243736
1696961678155973400,0.434973388671875,-0.04913387447595596,-0.0031956990715116262,-0.0030625448562204838
1696961678165986800,0.44498681640625,-0.05232957378029823,0.02769605815410614,0.0001331541279796511
1696961678176000000,0.455,-0.048068638890981674,0.04367455467581749,0.015046416781842709
1696961678186013400,0.465013427734375,-0.04593817517161369,-0.00852186419069767,-0.025432437658309937
1696961678196027000,0.47502685546875,-0.051264338195323944,0.01704372838139534,0.028894444927573204
1696961678206040300,0.485040283203125,-0.044872939586639404,0.03834838792681694,0.004394086077809334
1696961678216053800,0.4950537109375,-0.03954677656292915,0.0010652330238372087,-0.009453942999243736
1696961678226067000,0.50506689453125,-0.043807707726955414,0.02663082629442215,0.033155377954244614
1696961678236080400,0.515080322265625,-0.037416309118270874,0.03089175745844841,0.0001331541279796511
1696961678246093800,0.52509375,-0.043807707726955414,0.0426093190908432,0.004394086077809334
1696961678256107300,0.535107177734375,-0.03209014609456062,0.004260932095348835,0.03209014609456062
1696961678266120400,0.545120361328125,-0.03954677656292915,0.06071828305721283,-0.015845341607928276
1696961678276134000,0.5551337890625,-0.03848154470324516,0.0319569893181324,0.04593817517161369
1696961678286147300,0.565147216796875,-0.029959678649902344,-0.009587096981704235,-0.031823836266994476
1696961678296160800,0.575160888671875,-0.04274247586727142,0.0159784946590662,0.04274247586727142
1696961678306174200,0.58517431640625,-0.03848154470324516,0.0852186381816864,-0.011584409512579441
1696961678316187400,0.5951875,-0.03209014609456062,-0.01917419396340847,-0.0009320789249613881
1696961678326200800,0.605200927734375,-0.036351077258586884,0.01171756349503994,0.006524552125483751
1696961678336214300,0.61521435546875,-0.03209014609456062,0.05219641700387001,-0.006258244160562754
1696961678346227700,0.625227783203125,-0.025698747485876083,-0.02663082629442215,-0.011584409512579441
1696961678356241200,0.6352412109375,-0.027829213067889214,0.02023942768573761,-0.010519175790250301
1696961678366254300,0.64525439453125,-0.023568280041217804,0.02663082629442215,0.0001331541279796511
1696961678376267800,0.655267822265625,-0.018242115154862404,-0.05432688444852829,-0.013714875094592571
1696961678386281200,0.66528125,-0.018242115154862404,0.03515268862247467,-0.016910573467612267
1696961678396294700,0.675294677734375,-0.020372580736875534,0.02556559257209301,0.007589785382151604
1696961678406307800,0.685307861328125,-0.011850717477500439,-0.02343512699007988,-0.025432437658309937
1696961678416321300,0.6953212890625,-0.016111649572849274,0.02556559257209301,0.0033288532868027687
1696961678426334700,0.705334716796875,-0.012915950268507004,0.0021304660476744175,-0.011584409512579441
1696961678436348200,0.71534814453125,-0.015046416781842709,0.03834838792681694,-0.014780107885599136
1696961678446361600,0.725361572265625,-0.011850717477500439,0,0.017176883295178413
1696961678456375000,0.735375,-0.011850717477500439,0.0063913981430232525,-0.041410934180021286
1696961678466388500,0.745388427734375,-0.010785484686493874,0.02023942768573761,0.051264338195323944
1696961678476402000,0.75540185546875,-0.011850717477500439,-0.004260932095348835,-0.058454662561416626
1696961678486415400,0.765415283203125,-0.008655018173158169,0.02023942768573761,0.037416309118270874
1696961678496428800,0.7754287109375,-0.009720250964164734,-0.0021304660476744175,0.004394086077809334
1696961678506442200,0.785442138671875,-0.011850717477500439,0.02023942768573761,-0.026497671380639076
1696961678516455700,0.79545556640625,-0.008655018173158169,0.03834838792681694,0.024633513763546944
1696961678526469000,0.80546923828125,-0.00226362026296556,0.0031956990715116262,0.0001331541279796511
1696961678536482600,0.815482666015625,-0.004394086077809334,-0.02023942768573761,-0.009453942999243736
1696961678546496000,0.82549609375,-0.00226362026296556,0.0053261648863554,0.0033288532868027687
1696961678556509400,0.835509521484375,0.0030625448562204838,0.0031956990715116262,0.004394086077809334
1696961678566523000,0.84552294921875,-0.00226362026296556,-0.02876129187643528,-0.008388710208237171
1696961678576536300,0.855536376953125,0.0009320789249613881,-0.0063913981430232525,0.024633513763546944
1696961678586549800,0.8655498046875,-0.0001331541279796511,0.03408745676279068,-0.030758604407310486
1696961678596563200,0.875563232421875,0.0030625448562204838,-0.01917419396340847,0.0011983871227130294
1696961678606576600,0.88557666015625,0.004127778112888336,-0.01491326279938221,0.03209014609456062
1696961678616590000,0.895590087890625,-0.0011983871227130294,0.02236989326775074,-0.050998032093048096
1696961678626603500,0.905603515625,0.006258244160562754,0,0.04274247586727142
1696961678636617000,0.915616943359375,0.001997311832383275,0.01810896210372448,-0.0030625448562204838
1696961678646630400,0.92563037109375,0.0030625448562204838,0.06817491352558136,-0.027562905102968216
1696961678656643800,0.935643798828125,0.009453942999243736,-0.01917419396340847,0.050199106335639954
1696961678666657300,0.9456572265625,0.005193010903894901,0.02663082629442215,-0.06378082931041718
1696961678676670700,0.955670654296875,0.008388710208237171,0.01917419396340847,0.06830807030200958
1696961678686684200,0.96568408203125,0.007323476951569319,0.012782796286046505,-0.055258963257074356
1696961678696697600,0.975697509765625,0.009453942999243736,0.05113118514418602,0.036351077258586884
1696961678706711000,0.9857109375,0.011584409512579441,-0.03941362351179123,-0.020106272771954536
1696961678716724500,0.995724365234375,0.007323476951569319,0.02450035884976387,0.0033288532868027687
1696961678726738000,1.005738037109375,0.012649642303586006,0.01491326279938221,-0.005193010903894901
1696961678736751400,1.01575146484375,0.009453942999243736,-0.0159784946590662,-0.016910573467612267
1696961678746764800,1.025764892578125,0.012649642303586006,0.0106523297727108,0.027829213067889214
1696961678756778200,1.0357783203125,0.011584409512579441,0.0106523297727108,-0.050998032093048096
1696961678766791700,1.045791748046875,0.014780107885599136,0.009587096981704235,0.047003407031297684
1696961678776805000,1.05580517578125,0.016910573467612267,-0.004260932095348835,-0.03928046673536301
1696961678786818600,1.065818603515625,0.015845341607928276,0.02450035884976387,0.008655018173158169
1696961678796832000,1.07583203125,0.020106272771954536,0.0021304660476744175,0.0011983871227130294
1696961678806845400,1.085845458984375,0.023301972076296806,0.00852186419069767,-0.026497671380639076
1696961678816859000,1.09585888671875,0.024367205798625946,-0.0213046595454216,0.013981183059513569
1696961678826872300,1.105872314453125,0.023301972076296806,-0.009587096981704235,-0.026497671380639076
1696961678836885800,1.1158857421875,0.021171506494283676,0.05113118514418602,0.018242115154862404
1696961678846899200,1.125899169921875,0.025432437658309937,-0.02876129187643528,-0.010519175790250301
1696961678856912600,1.13591259765625,0.019041040912270546,0.02023942768573761,-0.004127778112888336
1696961678866926000,1.145926025390625,0.020106272771954536,0.06284874677658081,0.028894444927573204
1696961678876939500,1.155939453125,0.020106272771954536,-0.02343512699007988,-0.030758604407310486
1696961678886953000,1.165952880859375,0.020106272771954536,0.03728315606713295,0.0001331541279796511
1696961678896966400,1.17596630859375,0.023301972076296806,0.0319569893181324,0.041677240282297134
1696961678906979800,1.185979736328125,0.023301972076296806,-0.01917419396340847,-0.05632419511675835
1696961678916993300,1.1959931640625,0.023301972076296806,0.03941362351179123,0.058720968663692474
1696961678927006700,1.2060068359375,0.028628136962652206,-0.01917419396340847,-0.035019535571336746
1696961678937020200,1.216020263671875,0.027562905102968216,-0.01810896210372448,0.048068638890981674
1696961678947033600,1.22603369140625,0.024367205798625946,0.03089175745844841,-0.009453942999243736
1696961678957047000,1.236047119140625,0.025432437658309937,0.01384802907705307,0.028894444927573204
1696961678967060500,1.246060546875,0.022236740216612816,0.01491326279938221,0.024633513763546944
1696961678977074000,1.256073974609375,0.021171506494283676,0.03089175745844841,-0.0009320789249613881
1696961678987087400,1.26608740234375,0.021171506494283676,0.05858781561255455,0.03528584539890289
1696961678997100800,1.276100830078125,0.020106272771954536,0.0106523297727108,0.0033288532868027687
1696961679007114200,1.2861142578125,0.020106272771954536,0.05645735189318657,0.021437814459204674
1696961679017127700,1.296127685546875,0.022236740216612816,0.06178351491689682,0.029959678649902344
1696961679027141000,1.30614111328125,0.021171506494283676,0.01917419396340847,0.008655018173158169
1696961679037154600,1.316154541015625,0.023301972076296806,0.0010652330238372087,0.012915950268507004
1696961679047168000,1.32616796875,0.024367205798625946,0.07243584841489792,0.053394805639982224
1696961679057181400,1.336181396484375,0.026497671380639076,-0.0010652330238372087,-0.027562905102968216
1696961679067195000,1.34619482421875,0.029693370684981346,-0.01491326279938221,0.040612008422613144
1696961679077208300,1.356208251953125,0.025432437658309937,-0.0021304660476744175,0.018242115154862404
1696961679087221800,1.3662216796875,0.025432437658309937,0.05539211630821228,-0.013714875094592571
1696961679097235200,1.376235107421875,0.027562905102968216,-0.0159784946590662,0.03528584539890289
1696961679107248600,1.38624853515625,0.023301972076296806,-0.007456631399691105,-0.042476166039705276
1696961679117262000,1.396261962890625,0.024367205798625946,0.04793548583984375,0.0555252730846405
1696961679127275500,1.406275634765625,0.025432437658309937,0.0319569893181324,-0.05312849581241608
1696961679137289000,1.4162890625,0.030758604407310486,-0.0053261648863554,0.053394805639982224
1696961679147302400,1.426302490234375,0.030758604407310486,-0.03089175745844841,-0.035019535571336746
1696961679157315800,1.43631591796875,0.03288906812667847,0.05006595328450203,0.033155377954244614
1696961679167329300,1.446329345703125,0.038215234875679016,-0.02450035884976387,0.0033288532868027687
1696961679177342700,1.4563427734375,0.03608476743102074,-0.02556559257209301,-0.023301972076296806
1696961679187356200,1.466356201171875,0.044606633484363556,-0.0159784946590662,0.06298190355300903
1696961679197369600,1.47636962890625,0.037150003015995026,0,-0.058454662561416626
1696961679207383000,1.486383056640625,0.045671865344047546,-0.0053261648863554,0.06511236727237701
1696961679217396200,1.496396240234375,0.041410934180021286,-0.0532616525888443,-0.040345702320337296
1696961679227409700,1.50640966796875,0.03928046673536301,0.02769605815410614,0.005459319334477186
1696961679237423000,1.516423095703125,0.044606633484363556,0.009587096981704235,0.025698747485876083
1696961679247436500,1.5264365234375,0.041410934180021286,-0.02023942768573761,-0.052063263952732086
1696961679257450000,1.536449951171875,0.044606633484363556,0.02343512699007988,0.026763979345560074
1696961679267463400,1.54646337890625,0.04993279650807381,0.01810896210372448,-0.014780107885599136
1696961679277476900,1.556476806640625,0.048867564648389816,-0.0319569893181324,0.0001331541279796511
1696961679287490300,1.566490234375,0.047802332788705826,0.05965305119752884,0.004394086077809334
1696961679297503700,1.576503662109375,0.05312849581241608,-0.0010652330238372087,0.013981183059513569
1696961679307517200,1.58651708984375,0.048867564648389816,0.0213046595454216,-0.015845341607928276
1696961679317530600,1.596530517578125,0.05312849581241608,0.05645735189318657,0.027829213067889214
1696961679327544000,1.6065439453125,0.057389430701732635,-0.04367455467581749,-0.03608476743102074
1696961679337557500,1.6165576171875,0.04993279650807381,0.02982652559876442,0.020372580736875534
1696961679347571000,1.626571044921875,0.058454662561416626,0.03728315606713295,0.0033288532868027687
1696961679357584400,1.63658447265625,0.058454662561416626,0.01384802907705307,-0.030758604407310486
1696961679367598000,1.64659814453125,0.05632419511675835,0.05965305119752884,0.04593817517161369
1696961679377611500,1.656611572265625,0.061650361865758896,0.02343512699007988,-0.013714875094592571
1696961679387625000,1.666625,0.06378082931041718,0.004260932095348835,-0.012649642303586006
1696961679397638400,1.676638427734375,0.058454662561416626,0.07137060910463333,0.027829213067889214
1696961679407651800,1.68665185546875,0.06378082931041718,0.01384802907705307,-0.001997311832383275
1696961679417665500,1.69666552734375,0.06378082931041718,0.05006595328450203,-0.006258244160562754
1696961679427679000,1.706678955078125,0.06804175674915314,0.012782796286046505,0.022503048181533813
1696961679437692400,1.7166923828125,0.06484606117010117,-0.0053261648863554,-0.043541401624679565
1696961679447705900,1.726705810546875,0.07336792349815369,0.0426093190908432,0.058720968663692474
1696961679457719300,1.73671923828125,0.06910699605941772,0.03408745676279068,-0.08615072071552277
1696961679467732700,1.746732666015625,0.07656362652778625,0.0426093190908432,0.066177599132061
1696961679477746400,1.756746337890625,0.07975932210683823,0.02450035884976387,-0.052063263952732086
1696961679487760000,1.766759765625,0.08402025699615479,0.03302222490310669,0.00226362026296556
1696961679497773300,1.776773193359375,0.08615072071552277,-0.01171756349503994,0.009720250964164734
1696961679507786800,1.786786865234375,0.08721595257520676,0.04687025398015976,-0.043541401624679565
1696961679517800200,1.79680029296875,0.0925421193242073,0.01171756349503994,0.051264338195323944
1696961679527814000,1.80681396484375,0.09041165560483932,0.0106523297727108,-0.06271559745073318
1696961679537827300,1.816827392578125,0.0925421193242073,0.03408745676279068,0.05978620424866676
1696961679547840800,1.8268408203125,0.0936073511838913,0.012782796286046505,-0.06591129302978516
1696961679557854200,1.836854248046875,0.09573781490325928,0.02343512699007988,0.026763979345560074
1696961679567867600,1.84686767578125,0.09467258304357529,0.01704372838139534,-0.007323476951569319
1696961679577881300,1.85688134765625,0.0925421193242073,0.0532616525888443,-0.038215234875679016
1696961679587894800,1.866894775390625,0.09999874979257584,0.0426093190908432,0.054460037499666214
1696961679597908200,1.876908203125,0.10212921351194382,-0.0021304660476744175,-0.030758604407310486
1696961679607921700,1.886921630859375,0.09786828607320786,0.04687025398015976,0.021437814459204674
1696961679617935000,1.89693505859375,0.09786828607320786,0.05539211630821228,-0.0030625448562204838
1696961679627948800,1.90694873046875,0.1042596846818924,0.02343512699007988,0.03209014609456062
1696961679637962200,1.916962158203125,0.10106398165225983,0.04580501839518547,-0.017975807189941406
1696961679647975700,1.9269755859375,0.1042596846818924,0.0106523297727108,0.021437814459204674
1696961679657989000,1.936989013671875,0.10106398165225983,0.05645735189318657,0.018242115154862404
1696961679668002600,1.94700244140625,0.10532491654157639,0.0213046595454216,0.0033288532868027687
1696961679678016300,1.957016357421875,0.10745538026094437,0.009587096981704235,0.00226362026296556
1696961679688029700,1.96702978515625,0.11065108329057693,0.06710968166589737,0.048068638890981674
1696961679698043100,1.977043212890625,0.11065108329057693,0.009587096981704235,-0.008388710208237171
1696961679708056600,1.987056640625,0.11597724258899689,-0.02556559257209301,0.005459319334477186
1696961679718070000,1.997070068359375,0.1149120107293129,-0.009587096981704235,0.03848154470324516
1696961679728083700,2.007083740234375,0.11597724258899689,0.01704372838139534,-0.008388710208237171
1696961679738097200,2.01709716796875,0.11597724258899689,-0.009587096981704235,0.009720250964164734
1696961679748110600,2.027110595703125,0.11597724258899689,0.0426093190908432,0.040612008422613144
1696961679758124000,2.0371240234375,0.11597724258899689,0.01171756349503994,-0.027562905102968216
1696961679768137500,2.047137451171875,0.11597724258899689,0.0319569893181324,0.009720250964164734
1696961679778151000,2.05715087890625,0.11810771375894547,0.06178351491689682,0.011850717477500439
1696961679788164400,2.067164306640625,0.12130340933799744,0.07030537724494934,-0.030758604407310486
1696961679798177800,2.077177734375,0.12662957608699799,-0.0010652330238372087,0.008655018173158169
1696961679808191200,2.087191162109375,0.13195574283599854,0.02236989326775074,-0.010519175790250301
1696961679818204700,2.09720458984375,0.13195574283599854,0.07776200771331787,-0.022236740216612816
1696961679828218000,2.107218017578125,0.13834713399410248,-0.02769605815410614,0.007589785382151604
1696961679838231600,2.1172314453125,0.13408620655536652,0.05219641700387001,-0.007323476951569319
1696961679848245000,2.127244873046875,0.13408620655536652,0.09267527610063553,-0.005193010903894901
1696961679858258400,2.137258544921875,0.14260807633399963,0.02663082629442215,-0.013714875094592571
1696961679868271900,2.14727197265625,0.14899946749210358,-0.02023942768573761,0.0033288532868027687
1696961679878285300,2.157285400390625,0.13941237330436707,0.05752258375287056,-0.041410934180021286
1696961679888298800,2.167298828125,0.14899946749210358,0.06710968166589737,0.028894444927573204
1696961679898312200,2.177312255859375,0.15219517052173615,0.0159784946590662,-0.006258244160562754
1696961679908325600,2.18732568359375,0.15006470680236816,0.0426093190908432,-0.010519175790250301
1696961679918339000,2.197339111328125,0.15112993121147156,0.06497921794652939,0.021437814459204674
1696961679928352500,2.2073525390625,0.15326039493083954,0.04473978653550148,-0.013714875094592571
1696961679938366000,2.217365966796875,0.16071702539920807,0.02450035884976387,0.024633513763546944
1696961679948379400,2.22737939453125,0.1564560979604721,0.04367455467581749,-0.040345702320337296
1696961679958392800,2.237392822265625,0.1564560979604721,0.11291470378637314,0.07256899774074554
1696961679968406300,2.24740625,0.1575213372707367,0.04473978653550148,-0.07762885838747025
1696961679978419700,2.257419677734375,0.1681736707687378,0.03408745676279068,0.060851436108350754
1696961679988433200,2.26743310546875,0.1692388951778412,0.04473978653550148,-0.042476166039705276
1696961679998446600,2.277446533203125,0.17349982261657715,0.0319569893181324,0.009720250964164734
1696961680008460000,2.2874599609375,0.17563030123710632,0.0213046595454216,-0.006258244160562754
1696961680018473500,2.297473388671875,0.1777607649564743,0.04154408723115921,0.009720250964164734
1696961680028487000,2.30748681640625,0.1788259893655777,0.0106523297727108,-0.04993279650807381
1696961680038500400,2.317500244140625,0.18521739542484283,0.012782796286046505,0.041677240282297134
1696961680048513800,2.327513671875,0.18308693170547485,0,-0.06271559745073318
1696961680058527200,2.33752734375,0.18415215611457825,0.05858781561255455,0.008655018173158169
1696961680068540700,2.347540771484375,0.18734785914421082,-0.012782796286046505,-0.023301972076296806
1696961680078554000,2.35755419921875,0.18521739542484283,0.06284874677658081,-0.038215234875679016
1696961680088567600,2.367567626953125,0.19160878658294678,0.06284874677658081,0.024633513763546944
1696961680098581000,2.3775810546875,0.19267402589321136,-0.03089175745844841,-0.06484606117010117
1696961680108594400,2.387594482421875,0.1884130984544754,0.06497921794652939,0.026763979345560074
1696961680118608000,2.39760791015625,0.1894783228635788,0.10119713842868805,-0.03288906812667847
1696961680128621300,2.407621337890625,0.19373925030231476,-0.01917419396340847,0.0033288532868027687
1696961680138634800,2.417634765625,0.19054356217384338,0.03089175745844841,-0.004127778112888336
1696961680148648200,2.427648193359375,0.19160878658294678,0.03728315606713295,0.007589785382151604
1696961680158661600,2.43766162109375,0.1894783228635788,0.01917419396340847,-0.020106272771954536
1696961680168675000,2.447675048828125,0.1894783228635788,0.02236989326775074,0.036351077258586884
1696961680178688500,2.4576884765625,0.18734785914421082,0.0745663121342659,-0.033954303711652756
1696961680188702200,2.4677021484375,0.19054356217384338,0.03834838792681694,0.05978620424866676
1696961680198715600,2.477715576171875,0.19054356217384338,-0.03941362351179123,-0.028628136962652206
1696961680208729000,2.48772900390625,0.18521739542484283,0.03941362351179123,0.022503048181533813
1696961680218742500,2.497742431640625,0.18308693170547485,0.02343512699007988,0.0011983871227130294
1696961680228756000,2.507755859375,0.18095645308494568,0.01704372838139534,0.019307348877191544
1696961680238769400,2.517769287109375,0.17989122867584229,0.01171756349503994,-0.004127778112888336
1696961680248783000,2.527783203125,0.1777607649564743,0.0159784946590662,0.010785484686493874
1696961680258796500,2.537796630859375,0.17669552564620972,0.01491326279938221,0.017176883295178413
1696961680268810000,2.54781005859375,0.17030413448810577,0.0532616525888443,-0.031823836266994476
1696961680278823400,2.557823486328125,0.17563030123710632,-0.0031956990715116262,0.050199106335639954
1696961680288836900,2.5678369140625,0.17669552564620972,-0.04900071769952774,-0.038215234875679016
1696961680298850600,2.5778505859375,0.1681736707687378,0.03941362351179123,0.011850717477500439
1696961680308864000,2.587864013671875,0.1671084314584732,-0.0063913981430232525,-0.0009320789249613881
1696961680318877400,2.59787744140625,0.16497796773910522,-0.01491326279938221,-0.011584409512579441
1696961680328891000,2.607890869140625,0.16391272842884064,-0.007456631399691105,0.009720250964164734
1696961680338904300,2.617904296875,0.16178226470947266,-0.01384802907705307,-0.007323476951569319
1696961680348918000,2.62791796875,0.1585865616798401,-0.04687025398015976,-0.025432437658309937
1696961680358931500,2.637931396484375,0.15432563424110413,0.02769605815410614,0.006524552125483751
1696961680368945000,2.64794482421875,0.15326039493083954,0.0426093190908432,-0.022236740216612816
1696961680378958300,2.657958251953125,0.15432563424110413,-0.03515268862247467,-0.001997311832383275
1696961680388971800,2.6679716796875,0.1468690037727356,0.0021304660476744175,-0.03288906812667847
1696961680398985500,2.6779853515625,0.14473854005336761,0.07989247888326645,0.015046416781842709
1696961680408999000,2.6879990234375,0.14367330074310303,-0.0319569893181324,-0.03928046673536301
1696961680419012400,2.698012451171875,0.14047759771347046,-0.0106523297727108,0.0011983871227130294
1696961680429025800,2.70802587890625,0.13834713399410248,0.05219641700387001,0.007589785382151604
1696961680439039200,2.718039306640625,0.1362166702747345,-0.04047885537147522,-0.047802332788705826
1696961680449053000,2.728052978515625,0.13089050352573395,-0.02023942768573761,0.022503048181533813
1696961680459066400,2.73806640625,0.13302096724510193,0.01810896210372448,-0.016910573467612267
1696961680469079800,2.748079833984375,0.1362166702747345,-0.08947957307100296,-0.015845341607928276
1696961680479093200,2.75809326171875,0.12343387305736542,-0.05539211630821228,0.006524552125483751
1696961680489106700,2.768106689453125,0.11810771375894547,0.02556559257209301,0.006524552125483751
1696961680499120400,2.778120361328125,0.1138467788696289,-0.0319569893181324,-0.045671865344047546
1696961680509133800,2.7881337890625,0.10745538026094437,0.012782796286046505,0.050199106335639954
1696961680519147300,2.798147216796875,0.1031944528222084,0.01491326279938221,-0.013714875094592571
1696961680529160700,2.80816064453125,0.10106398165225983,-0.01810896210372448,-0.010519175790250301
1696961680539174100,2.818174072265625,0.09467258304357529,0.02023942768573761,0.03209014609456062
1696961680549187600,2.8281875,0.0925421193242073,0.05645735189318657,-0.016910573467612267
1696961680559201300,2.838201171875,0.0925421193242073,-0.04900071769952774,0.010785484686493874
1696961680569214700,2.848214599609375,0.09041165560483932,-0.0426093190908432,0.00226362026296556
1696961680579228200,2.858228271484375,0.08615072071552277,0.02556559257209301,0.025698747485876083
1696961680589241600,2.86824169921875,0.08402025699615479,-0.02876129187643528,-0.011584409512579441
1696961680599255000,2.878255126953125,0.08082455396652222,-0.05113118514418602,0.028894444927573204
1696961680609268700,2.888268798828125,0.07656362652778625,0.0319569893181324,0.020372580736875534
1696961680619282200,2.8982822265625,0.07443315535783768,-0.05113118514418602,-0.007323476951569319
1696961680629295600,2.908295654296875,0.06804175674915314,-0.02556559257209301,0.021437814459204674
1696961680639309000,2.91830908203125,0.06910699605941772,0.03728315606713295,0.009720250964164734
1696961680649322500,2.928322509765625,0.06910699605941772,-0.0213046595454216,-0.0009320789249613881
1696961680659336200,2.938336181640625,0.06697652488946915,-0.04580501839518547,0.033155377954244614
1696961680669349600,2.948349609375,0.060585130006074905,-0.012782796286046505,-0.017975807189941406
1696961680679363000,2.958363037109375,0.061650361865758896,0.0031956990715116262,0.033155377954244614
1696961680689376500,2.96837646484375,0.059519894421100616,-0.04687025398015976,-0.001997311832383275
1696961680699390000,2.978389892578125,0.054193731397390366,-0.0053261648863554,0.019307348877191544
1696961680709403600,2.988403564453125,0.057389430701732635,-0.06178351491689682,0.012915950268507004
1696961680719417000,2.9984169921875,0.048867564648389816,-0.0213046595454216,-0.012649642303586006
1696961680729430500,3.008430419921875,0.050998032093048096,0,0.058720968663692474
1696961680739444000,3.01844384765625,0.047802332788705826,-0.06710968166589737,-0.041410934180021286
1696961680749457400,3.02845751953125,0.047802332788705826,-0.05113118514418602,0.07256899774074554
1696961680759471000,3.03847119140625,0.03608476743102074,-0.0031956990715116262,-0.025432437658309937
1696961680769484500,3.048484619140625,0.033954303711652756,0.01810896210372448,0.05978620424866676
1696961680779498000,3.058498046875,0.030758604407310486,-0.0319569893181324,-0.012649642303586006
1696961680789511400,3.068511474609375,0.024367205798625946,0.05006595328450203,0.057655736804008484
1696961680799524900,3.07852490234375,0.022236740216612816,0.0063913981430232525,0.011850717477500439
1696961680809538600,3.08853857421875,0.021171506494283676,0.02023942768573761,0.008655018173158169
1696961680819552000,3.098552001953125,0.017975807189941406,0.04047885537147522,0.040612008422613144
1696961680829565400,3.1085654296875,0.019041040912270546,-0.05752258375287056,-0.023301972076296806
1696961680839579000,3.118578857421875,0.016910573467612267,0.0213046595454216,0.034220609813928604
1696961680849592300,3.12859228515625,0.017975807189941406,0.0031956990715116262,0.00226362026296556
1696961680859605800,3.138605712890625,0.014780107885599136,-0.08095771074295044,-0.031823836266994476
1696961680869619500,3.148619384765625,0.009453942999243736,0.00852186419069767,0.06404713541269302
1696961680879633000,3.1586328125,0.011584409512579441,-0.0031956990715116262,-0.05632419511675835
1696961680889646300,3.168646240234375,0.011584409512579441,-0.06497921794652939,0.026763979345560074
1696961680899659800,3.17865966796875,0.0030625448562204838,0.01171756349503994,-0.016910573467612267
1696961680909673200,3.188673095703125,-0.0001331541279796511,0.02663082629442215,-0.011584409512579441
1696961680919687000,3.19868701171875,0.004127778112888336,-0.05965305119752884,-0.005193010903894901
1696961680929700400,3.208700439453125,-0.004394086077809334,0.03302222490310669,-0.016910573467612267
1696961680939713800,3.2187138671875,-0.005459319334477186,-0.009587096981704235,0.009720250964164734
1696961680949727200,3.228727294921875,-0.004394086077809334,-0.03941362351179123,-0.042476166039705276
1696961680959740700,3.23874072265625,-0.006524552125483751,0.01384802907705307,0.03848154470324516
1696961680969754400,3.24875439453125,-0.013981183059513569,-0.01491326279938221,-0.044606633484363556
1696961680979767800,3.258767822265625,-0.016111649572849274,0.01810896210372448,0.009720250964164734
1696961680989781200,3.26878125,-0.011850717477500439,-0.01491326279938221,-0.014780107885599136
1696961680999794700,3.278794677734375,-0.013981183059513569,-0.03515268862247467,0.006524552125483751
1696961681009808100,3.28880810546875,-0.017176883295178413,-0.03941362351179123,-0.017975807189941406
1696961681019821800,3.29882177734375,-0.022503048181533813,0.009587096981704235,-0.0009320789249613881
1696961681029835300,3.308835205078125,-0.025698747485876083,-0.0213046595454216,-0.008388710208237171
1696961681039848700,3.3188486328125,-0.028894444927573204,-0.0031956990715116262,-0.020106272771954536
1696961681049862100,3.328862060546875,-0.026763979345560074,-0.004260932095348835,0.03209014609456062
1696961681059875600,3.33887548828125,-0.028894444927573204,-0.03089175745844841,-0.06591129302978516
1696961681069889300,3.34888916015625,-0.028894444927573204,0.02769605815410614,0.036351077258586884
1696961681079902700,3.35890283203125,-0.029959678649902344,-0.07243584841489792,-0.05632419511675835
1696961681089916200,3.368916259765625,-0.03209014609456062,0.01810896210372448,0.013981183059513569
1696961681099929600,3.3789296875,-0.029959678649902344,-0.0106523297727108,-0.026497671380639076
1696961681109943000,3.388943115234375,-0.033155377954244614,-0.01810896210372448,-0.041410934180021286
1696961681119956700,3.398956787109375,-0.034220609813928604,-0.02450035884976387,0.033155377954244614
1696961681129970200,3.40897021484375,-0.037416309118270874,0.009587096981704235,-0.08508548885583878
1696961681139983600,3.418983642578125,-0.028894444927573204,-0.007456631399691105,0.04274247586727142
1696961681149997000,3.4289970703125,-0.03954677656292915,0,-0.0723026916384697
1696961681160010500,3.439010498046875,-0.03209014609456062,-0.0021304660476744175,0.016111649572849274
1696961681170024000,3.44902392578125,-0.034220609813928604,-0.01384802907705307,-0.052063263952732086
1696961681180037600,3.45903759765625,-0.034220609813928604,0.03408745676279068,0.027829213067889214
1696961681190051000,3.469051025390625,-0.029959678649902344,-0.06497921794652939,-0.04993279650807381
1696961681200064500,3.479064453125,-0.033155377954244614,-0.02236989326775074,0.0001331541279796511
1696961681210078000,3.489077880859375,-0.034220609813928604,0.0010652330238372087,0.009720250964164734
1696961681220091400,3.49909130859375,-0.031024912372231483,-0.04367455467581749,-0.047802332788705826
1696961681230105000,3.50910498046875,-0.033155377954244614,-0.004260932095348835,0.019307348877191544
1696961681240118500,3.519118408203125,-0.037416309118270874,-0.02876129187643528,-0.024367205798625946
1696961681250132000,3.529132080078125,-0.033155377954244614,-0.03941362351179123,-0.025432437658309937
1696961681260145400,3.5391455078125,-0.03848154470324516,0.02236989326775074,0.020372580736875534
1696961681270158800,3.549158935546875,-0.04274247586727142,-0.0213046595454216,-0.016910573467612267
1696961681280172500,3.559172607421875,-0.043807707726955414,0.02663082629442215,-0.013714875094592571
1696961681290186000,3.56918603515625,-0.044872939586639404,0.03408745676279068,0.026763979345560074
1696961681300199400,3.579199462890625,-0.041677240282297134,-0.02982652559876442,-0.038215234875679016
1696961681310212900,3.589212890625,-0.04274247586727142,0.0106523297727108,0.015046416781842709
1696961681320226300,3.599226318359375,-0.041677240282297134,-0.004260932095348835,-0.022236740216612816
1696961681330240000,3.609239990234375,-0.036351077258586884,-0.06284874677658081,-0.025432437658309937
1696961681340253400,3.61925341796875,-0.04274247586727142,-0.012782796286046505,0.010785484686493874
1696961681350267000,3.629266845703125,-0.040612008422613144,-0.01384802907705307,-0.05312849581241608
1696961681360280300,3.6392802734375,-0.041677240282297134,-0.02876129187643528,0.026763979345560074
1696961681370293800,3.649293701171875,-0.048068638890981674,-0.0159784946590662,-0.04993279650807381
1696961681380307200,3.65930712890625,-0.03954677656292915,0.007456631399691105,0.021437814459204674
1696961681390320600,3.669320556640625,-0.043807707726955414,-0.04367455467581749,-0.061650361865758896
1696961681400334000,3.679333984375,-0.047003407031297684,-0.01917419396340847,0.0011983871227130294
1696961681410347500,3.689347412109375,-0.051264338195323944,0.0010652330238372087,-0.050998032093048096
1696961681420361000,3.69936083984375,-0.048068638890981674,0.03621792420744896,-0.012649642303586006
1696961681430374400,3.70937451171875,-0.051264338195323944,-0.02343512699007988,-0.038215234875679016
1696961681440387800,3.719387939453125,-0.05232957378029823,-0.02023942768573761,-0.029693370684981346
1696961681450401300,3.7294013671875,-0.051264338195323944,0.009587096981704235,-0.017975807189941406
1696961681460414700,3.739414794921875,-0.04913387447595596,-0.02236989326775074,-0.021171506494283676
1696961681470428200,3.74942822265625,-0.0555252730846405,-0.02236989326775074,-0.03288906812667847
1696961681480441600,3.759441650390625,-0.058720968663692474,-0.0063913981430232525,-0.010519175790250301
1696961681490455000,3.769455078125,-0.05659050494432449,0.004260932095348835,-0.026497671380639076
1696961681500468500,3.779468505859375,-0.058720968663692474,-0.03941362351179123,0.00226362026296556
1696961681510482000,3.78948193359375,-0.06298190355300903,-0.04473978653550148,-0.026497671380639076
1696961681520495400,3.799495361328125,-0.06830807030200958,-0.004260932095348835,-0.0030625448562204838
1696961681530508800,3.8095087890625,-0.067242830991745,-0.00852186419069767,0.004394086077809334
1696961681540522200,3.819522216796875,-0.06511236727237701,-0.07243584841489792,-0.023301972076296806
1696961681550535700,3.82953564453125,-0.06937330216169357,-0.05219641700387001,-0.017975807189941406
1696961681560549000,3.839549072265625,-0.07043853402137756,-0.0159784946590662,0.026763979345560074
1696961681570562600,3.8495625,-0.07256899774074554,-0.05006595328450203,-0.040345702320337296
1696961681580576000,3.859575927734375,-0.07469946891069412,-0.04367455467581749,0.023568280041217804
1696961681590589400,3.86958935546875,-0.08215609937906265,-0.0159784946590662,-0.022236740216612816
1696961681600603000,3.879602783203125,-0.08109086751937866,0.0063913981430232525,-0.025432437658309937
1696961681610616300,3.8896162109375,-0.08109086751937866,-0.04367455467581749,0.029959678649902344
1696961681620629800,3.899629638671875,-0.08002562820911407,-0.03834838792681694,-0.06378082931041718
1696961681630643200,3.909643310546875,-0.08428656309843063,-0.0021304660476744175,0.015046416781842709
1696961681640656600,3.91965673828125,-0.08322133123874664,-0.06071828305721283,-0.03928046673536301
1696961681650670000,3.929670166015625,-0.09174319356679916,-0.009587096981704235,-0.022236740216612816
1696961681660683500,3.93968359375,-0.0874822586774826,-0.03302222490310669,-0.020106272771954536
1696961681670697000,3.949697021484375,-0.09174319356679916,-0.03302222490310669,-0.03928046673536301
1696961681680710400,3.95971044921875,-0.09493889659643173,-0.0319569893181324,-0.017975807189941406
1696961681690723800,3.969723876953125,-0.09600412845611572,-0.02663082629442215,-0.024367205798625946
1696961681700737300,3.9797373046875,-0.09493889659643173,-0.02982652559876442,-0.012649642303586006
1696961681710750700,3.989750732421875,-0.09387365728616714,-0.01704372838139534,-0.026497671380639076
1696961681720764200,3.99976416015625,-0.09600412845611572,-0.08628387749195099,0.017176883295178413
1696961681730777900,4.00977783203125,-0.09706936031579971,-0.0426093190908432,-0.07017222791910172
1696961681740791300,4.019791259765625,-0.10452599078416824,-0.02023942768573761,0.06298190355300903
1696961681750804700,4.0298046875,-0.10133028775453568,-0.06071828305721283,-0.05632419511675835
1696961681760818200,4.039818115234375,-0.11091738939285278,-0.0021304660476744175,0.017176883295178413
1696961681770831600,4.04983154296875,-0.10559122264385223,-0.04367455467581749,0.016111649572849274
1696961681780845300,4.05984521484375,-0.11198262125253677,-0.0021304660476744175,-0.058454662561416626
1696961681790858800,4.069858642578125,-0.10559122264385223,-0.02982652559876442,0.06298190355300903
1696961681800872200,4.0798720703125,-0.11198262125253677,-0.02023942768573761,-0.061650361865758896
1696961681810885600,4.0898857421875,-0.11198262125253677,-0.01491326279938221,0.054460037499666214
1696961681820899000,4.099899169921875,-0.11304785311222076,-0.02769605815410614,-0.06910699605941772
1696961681830912800,4.109912841796875,-0.11198262125253677,0.02023942768573761,0.061916667968034744
1696961681840926200,4.11992626953125,-0.10985215753316879,-0.05006595328450203,-0.055258963257074356
1696961681850939600,4.129939697265625,-0.11198262125253677,0,0.019307348877191544
1696961681860953000,4.139953125,-0.10772168636322021,-0.06071828305721283,-0.011584409512579441
1696961681870966500,4.149966552734375,-0.11198262125253677,0.02450035884976387,-0.026497671380639076
1696961681880980200,4.159980224609375,-0.10346075892448425,-0.0852186381816864,0.051264338195323944
1696961681890993700,4.16999365234375,-0.11730878800153732,-0.03089175745844841,-0.09893351793289185
1696961681901007000,4.180007080078125,-0.1087869256734848,0.0031956990715116262,0.10452599078416824
1696961681911020500,4.1900205078125,-0.11730878800153732,-0.03302222490310669,-0.09893351793289185
1696961681921034000,4.200033935546875,-0.11304785311222076,-0.03515268862247467,0.07150376588106155
1696961681931047400,4.21004736328125,-0.11730878800153732,-0.0010652330238372087,-0.043541401624679565
1696961681941061000,4.22006103515625,-0.10665645450353622,-0.03302222490310669,0.048068638890981674
1696961681951074600,4.230074462890625,-0.11304785311222076,-0.05006595328450203,-0.022236740216612816
1696961681961088000,4.240087890625,-0.10559122264385223,-0.05645735189318657,0.07150376588106155
1696961681971101400,4.250101318359375,-0.11304785311222076,-0.06497921794652939,-0.037150003015995026
1696961681981115000,4.260114990234375,-0.11624355614185333,-0.01491326279938221,0.067242830991745
1696961681991128600,4.270128662109375,-0.1194392517209053,0.0106523297727108,0.005459319334477186
1696961682001142000,4.28014208984375,-0.1194392517209053,0.0031956990715116262,0.007589785382151604
1696961682011155500,4.290155517578125,-0.11517832428216934,-0.01384802907705307,0.05232957378029823
1696961682021169000,4.3001689453125,-0.1205044835805893,-0.004260932095348835,-0.015845341607928276
1696961682031182300,4.310182373046875,-0.11198262125253677,0,0.050199106335639954
1696961682041196000,4.320196044921875,-0.11624355614185333,-0.03515268862247467,0.010785484686493874
1696961682051209500,4.33020947265625,-0.11624355614185333,-0.0426093190908432,0.006524552125483751
1696961682061223000,4.340222900390625,-0.11517832428216934,0.012782796286046505,0.008655018173158169
1696961682071236400,4.350236328125,-0.11091738939285278,-0.06071828305721283,0.041677240282297134
1696961682081249800,4.360249755859375,-0.11198262125253677,-0.07030537724494934,-0.060585130006074905
1696961682091263500,4.370263427734375,-0.11304785311222076,-0.01171756349503994,0.0981345921754837
1696961682101277000,4.38027685546875,-0.10985215753316879,-0.007456631399691105,-0.06271559745073318
1696961682111290400,4.390290283203125,-0.11198262125253677,-0.07243584841489792,0.054460037499666214
1696961682121303800,4.4003037109375,-0.1194392517209053,-0.04367455467581749,0.013981183059513569
1696961682131317200,4.410317138671875,-0.11730878800153732,0.05219641700387001,-0.022236740216612816
1696961682141331000,4.4203310546875,-0.1205044835805893,0.01491326279938221,0.06511236727237701
1696961682151344400,4.430344482421875,-0.11517832428216934,-0.07137060910463333,-0.035019535571336746
1696961682161357800,4.44035791015625,-0.1205044835805893,0.0159784946590662,0.037416309118270874
1696961682171371300,4.450371337890625,-0.11304785311222076,0.04900071769952774,0.031024912372231483
1696961682181384700,4.460384765625,-0.10772168636322021,-0.0852186381816864,0.0001331541279796511
1696961682191398400,4.4703984375,-0.1194392517209053,-0.0213046595454216,0.03528584539890289
1696961682201411800,4.480411865234375,-0.11304785311222076,-0.0053261648863554,0.018242115154862404
1696961682211425300,4.49042529296875,-0.11624355614185333,0.00852186419069767,-0.0009320789249613881
1696961682221438700,4.500438720703125,-0.12156971544027328,0.0010652330238372087,0.053394805639982224
1696961682231452200,4.5104521484375,-0.1205044835805893,0.01171756349503994,-0.014780107885599136
1696961682241465600,4.520465576171875,-0.11624355614185333,0.05752258375287056,0.031024912372231483
1696961682251479300,4.530479248046875,-0.11091738939285278,-0.01810896210372448,0.028894444927573204
1696961682261492700,4.54049267578125,-0.10985215753316879,-0.05965305119752884,0.0001331541279796511
1696961682271506200,4.550506103515625,-0.10985215753316879,0.01704372838139534,0.008655018173158169
1696961682281519600,4.56051953125,-0.10985215753316879,-0.0063913981430232525,0.028894444927573204
1696961682291533000,4.570532958984375,-0.11198262125253677,0.01491326279938221,-0.033954303711652756
1696961682301546800,4.580546630859375,-0.10665645450353622,0.05858781561255455,0.07363422960042953
1696961682311560200,4.590560302734375,-0.10346075892448425,-0.03089175745844841,-0.06804175674915314
1696961682321573600,4.60057373046875,-0.09600412845611572,-0.0010652330238372087,0.03209014609456062
1696961682331587000,4.610587158203125,-0.09600412845611572,0.02343512699007988,0.018242115154862404
1696961682341600500,4.6206005859375,-0.09706936031579971,0.02023942768573761,-0.012649642303586006
1696961682351614200,4.6306142578125,-0.09493889659643173,0.02023942768573761,0.0011983871227130294
1696961682361627600,4.640627685546875,-0.09280842542648315,0.07243584841489792,0.020372580736875534
1696961682371641000,4.65064111328125,-0.09174319356679916,0.02769605815410614,-0.031823836266994476
1696961682381654500,4.660654541015625,-0.09067796170711517,0.04900071769952774,0.00226362026296556
1696961682391668000,4.67066796875,-0.07896039634943008,0.0532616525888443,0.04913387447595596
1696961682401681700,4.680681640625,-0.06937330216169357,-0.04154408723115921,-0.05312849581241608
1696961682411695000,4.690695068359375,-0.06937330216169357,-0.0010652330238372087,0.050199106335639954
1696961682421708500,4.70070849609375,-0.06830807030200958,-0.012782796286046505,0.012915950268507004
1696961682431722000,4.710721923828125,-0.06511236727237701,0.0159784946590662,-0.052063263952732086
1696961682441735400,4.7207353515625,-0.060851436108350754,0.02343512699007988,0.09280842542648315
1696961682451749000,4.7307490234375,-0.06511236727237701,-0.01384802907705307,-0.07443315535783768
1696961682461762600,4.740762451171875,-0.05978620424866676,0.07030537724494934,0.07043853402137756
1696961682471776000,4.75077587890625,-0.04913387447595596,0.02450035884976387,-0.025432437658309937
1696961682481789400,4.76078955078125,-0.04593817517161369,-0.04900071769952774,0.017176883295178413
1696961682491803000,4.770802978515625,-0.043807707726955414,0.03728315606713295,0.026763979345560074
1696961682501816600,4.780816650390625,-0.04274247586727142,0.04473978653550148,-0.035019535571336746
1696961682511830000,4.790830078125,-0.037416309118270874,-0.009587096981704235,0.050199106335639954
1696961682521843500,4.800843505859375,-0.037416309118270874,0.02982652559876442,-0.0009320789249613881
1696961682531857000,4.81085693359375,-0.029959678649902344,0.08415340632200241,-0.027562905102968216
1696961682541870300,4.820870361328125,-0.017176883295178413,0,0.057655736804008484
1696961682551883800,4.8308837890625,-0.022503048181533813,-0.04900071769952774,-0.06697652488946915
1696961682561897500,4.8408974609375,-0.017176883295178413,0.08415340632200241,0.058720968663692474
1696961682571911000,4.850910888671875,-0.013981183059513569,0.04154408723115921,-0.024367205798625946
1696961682581924400,4.86092431640625,-0.011850717477500439,-0.02450035884976387,0.007589785382151604
1696961682591937800,4.870937744140625,-0.008655018173158169,0.07669677585363388,-0.020106272771954536
1696961682601951200,4.880951171875,-0.0033288532868027687,0.03941362351179123,0.022503048181533813
1696961682611965000,4.89096484375,-0.00226362026296556,0.03089175745844841,-0.043541401624679565
1696961682621978400,4.900978271484375,0.008388710208237171,0.0159784946590662,0.04913387447595596
1696961682631991800,4.91099169921875,0.006258244160562754,0.0426093190908432,-0.03928046673536301
1696961682642005200,4.921005126953125,0.007323476951569319,0.04687025398015976,0.021437814459204674
1696961682652018700,4.931018798828125,0.013714875094592571,0.01171756349503994,-0.014780107885599136
1696961682662032400,4.941032470703125,0.013714875094592571,0.04580501839518547,0.0011983871227130294
1696961682672045800,4.9510458984375,0.014780107885599136,0.07882724702358246,0.031024912372231483
1696961682682059300,4.961059326171875,0.016910573467612267,0.07030537724494934,-0.013714875094592571
1696961682692072700,4.97107275390625,0.025432437658309937,0.07776200771331787,0.021437814459204674
1696961682702086100,4.981086181640625,0.027562905102968216,0.02982652559876442,0.005459319334477186
1696961682712099600,4.991099609375,0.03288906812667847,0.07030537724494934,-0.033954303711652756
1696961682722113000,5.001113037109375,0.037150003015995026,0.03515268862247467,0.066177599132061
1696961682732126500,5.01112646484375,0.03288906812667847,0.07243584841489792,-0.09893351793289185
1696961682742140000,5.021139892578125,0.048867564648389816,0.05858781561255455,0.11517832428216934
1696961682752153300,5.0311533203125,0.047802332788705826,0.03515268862247467,-0.09041165560483932
1696961682762166800,5.041166748046875,0.05312849581241608,0.05752258375287056,0.057655736804008484
1696961682772180200,5.05118017578125,0.059519894421100616,0.0159784946590662,-0.047802332788705826
1696961682782193700,5.061193603515625,0.06271559745073318,0.05219641700387001,0.026763979345560074
1696961682792207000,5.07120703125,0.059519894421100616,0.01171756349503994,-0.021171506494283676
1696961682802220500,5.081220458984375,0.059519894421100616,0.11930610239505768,0.020372580736875534
1696961682812234000,5.09123388671875,0.07017222791910172,0.12356702983379364,0.013981183059513569
1696961682822247400,5.101247314453125,0.07762885838747025,-0.02982652559876442,-0.025432437658309937
1696961682832260900,5.1112607421875,0.07549838721752167,0.07137060910463333,0.031024912372231483
1696961682842274300,5.1212744140625,0.08188978582620621,0.06604444980621338,-0.009453942999243736
1696961682852287700,5.131287841796875,0.08402025699615479,0.07030537724494934,0.016111649572849274
1696961682862301200,5.14130126953125,0.08402025699615479,0.0426093190908432,0.018242115154862404
1696961682872314600,5.151314697265625,0.0925421193242073,0.06817491352558136,-0.012649642303586006
1696961682882328000,5.161328125,0.09893351793289185,0.04154408723115921,0.061916667968034744
1696961682892341500,5.171341552734375,0.09573781490325928,0.06604444980621338,-0.012649642303586006
1696961682902355000,5.18135498046875,0.10212921351194382,0.07030537724494934,0.033155377954244614
1696961682912368400,5.191368408203125,0.10958584398031235,0.0213046595454216,0.034220609813928604
1696961682922381800,5.2013818359375,0.10958584398031235,0.06178351491689682,0.00226362026296556
1696961682932395300,5.211395263671875,0.11704248189926147,0.05858781561255455,0.021437814459204674
1696961682942408700,5.22140869140625,0.11917294561862946,0.01810896210372448,0.03954677656292915
1696961682952422100,5.231422119140625,0.11810771375894547,0.10545806586742401,0.011850717477500439
1696961682962435600,5.241435546875,0.1255643367767334,0.06924014538526535,0.037416309118270874
1696961682972449000,5.251448974609375,0.13089050352573395,0.0319569893181324,0.009720250964164734
1696961682982462500,5.26146240234375,0.12876003980636597,0.06924014538526535,0.043807707726955414
1696961682992476000,5.271475830078125,0.12982527911663055,0.10758853703737259,-0.005193010903894901
1696961683002489300,5.2814892578125,0.1362166702747345,0.05113118514418602,0.06937330216169357
1696961683012502800,5.291502685546875,0.12876003980636597,0.06071828305721283,-0.012649642303586006
1696961683022516200,5.30151611328125,0.1351514458656311,0.11504516750574112,0.03848154470324516
1696961683032529700,5.31152978515625,0.14793424308300018,0.08947957307100296,0.03954677656292915
1696961683042543400,5.32154345703125,0.1468690037727356,-0.03941362351179123,-0.028628136962652206
1696961683052556800,5.331556884765625,0.14154283702373505,0.03941362351179123,0.09387365728616714
1696961683062570200,5.3415703125,0.14367330074310303,0.10439283400774002,-0.027562905102968216
1696961683072583700,5.351583740234375,0.15219517052173615,0.0159784946590662,0.03954677656292915
1696961683082597000,5.36159716796875,0.14260807633399963,0.012782796286046505,0.03848154470324516
1696961683092610800,5.37161083984375,0.14367330074310303,0.06924014538526535,-0.031823836266994476
1696961683102624300,5.381624267578125,0.16071702539920807,0.03941362351179123,0.08641702681779861
1696961683112637700,5.3916376953125,0.15432563424110413,-0.09480573982000351,-0.050998032093048096
1696961683122651100,5.401651123046875,0.1468690037727356,0.03089175745844841,0.057655736804008484
1696961683132664600,5.41166455078125,0.145803764462471,0.09161003679037094,0.013981183059513569
1696961683142678300,5.42167822265625,0.15006470680236816,0.004260932095348835,-0.025432437658309937
1696961683152691700,5.431691650390625,0.15326039493083954,-0.0532616525888443,0.060851436108350754
1696961683162705200,5.441705078125,0.14260807633399963,0.1065233051776886,-0.050998032093048096
1696961683172718600,5.451718505859375,0.1553908735513687,0.05432688444852829,0.050199106335639954
1696961683182732000,5.46173193359375,0.1553908735513687,-0.10119713842868805,-0.059519894421100616
1696961683192745700,5.471745849609375,0.14473854005336761,0.0213046595454216,0.036351077258586884
1696961683202759200,5.48175927734375,0.14154283702373505,0.12250179797410965,-0.042476166039705276
1696961683212772600,5.491772705078125,0.145803764462471,0.012782796286046505,0.008655018173158169
1696961683222786000,5.5017861328125,0.14154283702373505,-0.0159784946590662,-0.048867564648389816
1696961683232799500,5.511799560546875,0.13941237330436707,0.12143656611442566,0.010785484686493874
1696961683242813200,5.521813232421875,0.15219517052173615,0.0532616525888443,-0.022236740216612816
1696961683252826600,5.53182666015625,0.15006470680236816,-0.11824086308479309,-0.060585130006074905
1696961683262840000,5.541840087890625,0.1362166702747345,0.0106523297727108,0.022503048181533813
1696961683272853500,5.551853515625,0.13728190958499908,0.17789392173290253,-0.040345702320337296
1696961683282867000,5.561866943359375,0.1468690037727356,-0.04473978653550148,-0.012649642303586006
1696961683292880600,5.571880615234375,0.12982527911663055,-0.007456631399691105,-0.004127778112888336
1696961683302894000,5.58189404296875,0.1351514458656311,0.1384802907705307,0.0001331541279796511
1696961683312907500,5.591907470703125,0.14899946749210358,-0.04367455467581749,-0.04673709720373154
1696961683322921000,5.6019208984375,0.14260807633399963,-0.12250179797410965,0.004394086077809334
1696961683332934400,5.611934326171875,0.13089050352573395,0.08841434121131897,0.005459319334477186
1696961683342947800,5.62194775390625,0.13195574283599854,0.07350108027458191,-0.052063263952732086
1696961683352961500,5.63196142578125,0.13834713399410248,-0.05219641700387001,0.024633513763546944
1696961683362975000,5.64197509765625,0.13408620655536652,0.01171756349503994,-0.03288906812667847
1696961683372988400,5.651988525390625,0.1351514458656311,0.09480573982000351,-0.020106272771954536
1696961683383001900,5.662001953125,0.14260807633399963,-0.07776200771331787,0.006524552125483751
1696961683393015300,5.672015380859375,0.13089050352573395,-0.06497921794652939,-0.06591129302978516
1696961683403029000,5.682029052734375,0.12769481539726257,0.10013190656900406,0.033155377954244614
1696961683413042400,5.69204248046875,0.12662957608699799,0.03728315606713295,-0.06910699605941772
1696961683423056000,5.702055908203125,0.12769481539726257,-0.03834838792681694,0.012915950268507004
1696961683433069300,5.7120693359375,0.12130340933799744,0.05965305119752884,-0.044606633484363556
1696961683443082800,5.722082763671875,0.12982527911663055,0.06817491352558136,-0.014780107885599136
1696961683453096400,5.732096435546875,0.13302096724510193,-0.08628387749195099,-0.012649642303586006
1696961683463110000,5.74210986328125,0.1149120107293129,-0.01171756349503994,-0.061650361865758896
1696961683473123300,5.752123291015625,0.11917294561862946,0.16298064589500427,0.05978620424866676
1696961683483136800,5.76213671875,0.11917294561862946,-0.06817491352558136,-0.12236864119768143
1696961683493150200,5.772150146484375,0.11917294561862946,0.01704372838139534,0.09706936031579971
1696961683503164000,5.782163818359375,0.08721595257520676,0.10865376889705658,-0.054193731397390366
1696961683513177300,5.79217724609375,0.12769481539726257,-0.02663082629442215,-0.014780107885599136
1696961683523190800,5.802190673828125,0.12023817747831345,-0.1171756312251091,0.021437814459204674
1696961683533204200,5.812204345703125,0.11597724258899689,0.02769605815410614,-0.038215234875679016
1696961683543217700,5.8222177734375,0.11278154700994492,0.05645735189318657,0.007589785382151604
1696961683553231400,5.8322314453125,0.11171631515026093,-0.06710968166589737,-0.025432437658309937
1696961683563244800,5.842244873046875,0.10852061212062836,0.02236989326775074,0.011850717477500439
1696961683573258200,5.85225830078125,0.1138467788696289,0.07243584841489792,-0.0009320789249613881
1696961683583271700,5.862271728515625,0.11597724258899689,-0.06178351491689682,-0.05312849581241608
1696961683593285000,5.87228515625,0.11278154700994492,-0.09161003679037094,0.041677240282297134
1696961683603298800,5.882298828125,0.09680305421352386,0.07563154399394989,-0.08828118443489075
1696961683613312300,5.892312255859375,0.1031944528222084,0.04580501839518547,0.0555252730846405
1696961683623325700,5.90232568359375,0.1031944528222084,-0.09800143539905548,-0.08188978582620621
1696961683633339100,5.912339111328125,0.09680305421352386,0.05965305119752884,0.017176883295178413
1696961683643352600,5.9223525390625,0.09999874979257584,0.04580501839518547,-0.03288906812667847
1696961683653366000,5.932365966796875,0.10745538026094437,-0.1278279572725296,-0.019041040912270546
1696961683663379700,5.942379638671875,0.08934641629457474,-0.03515268862247467,-0.028628136962652206
1696961683673393200,5.95239306640625,0.09041165560483932,0.07669677585363388,0.008655018173158169
1696961683683406600,5.962406494140625,0.08615072071552277,-0.03089175745844841,-0.048867564648389816
1696961683693420000,5.972419921875,0.08721595257520676,-0.01171756349503994,0.048068638890981674
1696961683703433500,5.98243359375,0.08402025699615479,0.04687025398015976,-0.043541401624679565
1696961683713447200,5.992447265625,0.09573781490325928,-0.0852186381816864,0.0011983871227130294
1696961683723460600,6.002460693359375,0.08721595257520676,-0.1384802907705307,-0.009453942999243736
1696961683733474000,6.01247412109375,0.07656362652778625,-0.004260932095348835,0.012915950268507004
1696961683743487500,6.022487548828125,0.07336792349815369,0.05219641700387001,-0.014780107885599136
1696961683753501000,6.0325009765625,0.0723026916384697,-0.04580501839518547,0.028894444927573204
1696961683763514600,6.0425146484375,0.06804175674915314,0.004260932095348835,-0.041410934180021286
1696961683773528000,6.052528076171875,0.07656362652778625,0.05965305119752884,0.07256899774074554
1696961683783541500,6.06254150390625,0.07443315535783768,-0.15339355170726776,-0.09041165560483932
1696961683793555000,6.072554931640625,0.060585130006074905,-0.06817491352558136,0.06404713541269302
1696961683803568400,6.082568359375,0.050998032093048096,0.1480673849582672,-0.006258244160562754
1696961683813582000,6.09258203125,0.059519894421100616,-0.03408745676279068,-0.013714875094592571
1696961683823595500,6.102595458984375,0.052063263952732086,-0.0639139786362648,0.040612008422613144
1696961683833609000,6.11260888671875,0.04993279650807381,0.05965305119752884,-0.03288906812667847
1696961683843622400,6.122622314453125,0.05312849581241608,-0.0106523297727108,0.036351077258586884
1696961683853635800,6.1326357421875,0.055258963257074356,-0.13208889961242676,-0.006258244160562754
1696961683863649500,6.1426494140625,0.03928046673536301,0.08202294260263443,0.010785484686493874
1696961683873663000,6.1526630859375,0.040345702320337296,0.0021304660476744175,0.03528584539890289
1696961683883676400,6.162676513671875,0.03288906812667847,-0.04580501839518547,-0.015845341607928276
1696961683893689900,6.17268994140625,0.030758604407310486,0.07989247888326645,0.066177599132061
1696961683903703300,6.182703369140625,0.043541401624679565,-0.05113118514418602,-0.012649642303586006
1696961683913717000,6.192717041015625,0.038215234875679016,-0.14593692123889923,0.048068638890981674
1696961683923730400,6.20273046875,0.024367205798625946,0.00852186419069767,0.005459319334477186
1696961683933743900,6.212743896484375,0.025432437658309937,0.03089175745844841,0.031024912372231483
1696961683943757300,6.22275732421875,0.024367205798625946,-0.09800143539905548,0.037416309118270874
1696961683953770800,6.232770751953125,0.008388710208237171,0.01704372838139534,-0.013714875094592571
1696961683963784200,6.2427841796875,0.019041040912270546,0.06178351491689682,0.0768299326300621
1696961683973798000,6.2527978515625,0.024367205798625946,-0.09693620353937149,-0.019041040912270546
1696961683983811300,6.262811279296875,0.013714875094592571,-0.0958709716796875,0.03848154470324516
1696961683993824800,6.27282470703125,0.004127778112888336,0.02982652559876442,0.015046416781842709
1696961684003838200,6.282838134765625,0.001997311832383275,0.0063913981430232525,0.005459319334477186
1696961684013851600,6.2928515625,0.0030625448562204838,-0.07563154399394989,0.04913387447595596
1696961684023865300,6.302865234375,-0.004394086077809334,-0.0010652330238372087,-0.021171506494283676
1696961684033878800,6.312878662109375,-0.00226362026296556,0.05965305119752884,0.054460037499666214
1696961684043892200,6.322892333984375,0.001997311832383275,-0.13421936333179474,0.006524552125483751
1696961684053905700,6.33290576171875,-0.006524552125483751,-0.03834838792681694,-0.010519175790250301
1696961684063919000,6.342919189453125,-0.008655018173158169,-0.004260932095348835,0.067242830991745
1696961684073932800,6.352932861328125,-0.018242115154862404,-0.05858781561255455,-0.06591129302978516
1696961684083946200,6.3629462890625,-0.025698747485876083,0.0745663121342659,0.09387365728616714
1696961684093959700,6.372959716796875,-0.012915950268507004,0.0021304660476744175,-0.041410934180021286
1696961684103973000,6.38297314453125,-0.010785484686493874,-0.14593692123889923,0.019307348877191544
1696961684113986600,6.392986572265625,-0.019307348877191544,-0.07350108027458191,0.012915950268507004
1696961684124000300,6.403000244140625,-0.022503048181533813,-0.0106523297727108,-0.017975807189941406
1696961684134013700,6.413013671875,-0.029959678649902344,-0.04047885537147522,0.021437814459204674
1696961684144027100,6.423027099609375,-0.03528584539890289,-0.0159784946590662,-0.007323476951569319
1696961684154040600,6.43304052734375,-0.036351077258586884,0.04900071769952774,-0.014780107885599136
1696961684164054000,6.443053955078125,-0.025698747485876083,-0.07669677585363388,0.034220609813928604
1696961684174067700,6.453067626953125,-0.031024912372231483,-0.09800143539905548,-0.057389430701732635
1696961684184081200,6.4630810546875,-0.040612008422613144,-0.02023942768573761,0.03209014609456062
1696961684194094600,6.473094482421875,-0.044872939586639404,-0.01171756349503994,-0.03608476743102074
1696961684204108000,6.48310791015625,-0.050199106335639954,-0.01171756349503994,-0.011584409512579441
1696961684214121500,6.49312158203125,-0.0555252730846405,0.05539211630821228,-0.0030625448562204838
1696961684224135000,6.503135009765625,-0.04593817517161369,-0.0426093190908432,-0.012649642303586006
1696961684234148400,6.5131484375,-0.04593817517161369,-0.10119713842868805,-0.027562905102968216
1696961684244161800,6.523161865234375,-0.051264338195323944,-0.02343512699007988,0.020372580736875534
1696961684254175200,6.53317529296875,-0.05232957378029823,-0.04687025398015976,-0.023301972076296806
1696961684264188700,6.543188720703125,-0.061916667968034744,-0.05858781561255455,0.005459319334477186
1696961684274202000,6.5532021484375,-0.07150376588106155,0.06817491352558136,-0.029693370684981346
1696961684284215600,6.563215576171875,-0.048068638890981674,-0.0639139786362648,0.048068638890981674
1696961684294229000,6.57322900390625,-0.047003407031297684,-0.19706811010837555,-0.08615072071552277
1696961684304242400,6.583242431640625,-0.06511236727237701,-0.08947957307100296,0.05232957378029823
1696961684314256000,6.593255859375,-0.066177599132061,-0.02556559257209301,-0.037150003015995026
1696961684324269300,6.603269287109375,-0.06511236727237701,-0.012782796286046505,0.013981183059513569
1696961684334282800,6.61328271484375,-0.0768299326300621,-0.0532616525888443,-0.022236740216612816
1696961684344296200,6.623296142578125,-0.08002562820911407,0.0319569893181324,-0.0030625448562204838
1696961684354309600,6.6333095703125,-0.067242830991745,-0.04793548583984375,0.017176883295178413
1696961684364323000,6.643322998046875,-0.07576470077037811,-0.07669677585363388,-0.04993279650807381
1696961684374336500,6.65333642578125,-0.08002562820911407,-0.0063913981430232525,0.048068638890981674
1696961684384350000,6.663349853515625,-0.07896039634943008,-0.03408745676279068,-0.04993279650807381
1696961684394363400,6.67336328125,-0.09387365728616714,0.03834838792681694,0.0033288532868027687
1696961684404376800,6.683376953125,-0.08854749798774719,0.0532616525888443,0.012915950268507004
1696961684414390300,6.693390380859375,-0.07896039634943008,-0.10013190656900406,-0.026497671380639076
1696961684424403700,6.70340380859375,-0.08535179495811462,-0.0639139786362648,-0.021171506494283676
1696961684434417200,6.713417236328125,-0.09387365728616714,0.0319569893181324,0.017176883295178413
1696961684444430600,6.7234306640625,-0.08215609937906265,-0.03728315606713295,-0.024367205798625946
1696961684454444000,6.733444091796875,-0.0991998240351677,-0.04687025398015976,-0.009453942999243736
1696961684464457500,6.74345751953125,-0.0981345921754837,0.02769605815410614,0.009720250964164734
1696961684474471000,6.753470947265625,-0.08961272984743118,-0.03515268862247467,-0.03928046673536301
1696961684484484400,6.763484375,-0.08854749798774719,-0.1171756312251091,0.017176883295178413
1696961684494497800,6.773497802734375,-0.09600412845611572,-0.07669677585363388,-0.06697652488946915
1696961684504511200,6.78351123046875,-0.09600412845611572,0,0.033155377954244614
1696961684514525000,6.79352490234375,-0.10239552706480026,-0.0063913981430232525,-0.052063263952732086
1696961684524538400,6.803538330078125,-0.09493889659643173,-0.08308817446231842,-0.0009320789249613881
1696961684534551800,6.8135517578125,-0.10452599078416824,-0.04367455467581749,-0.041410934180021286
1696961684544565200,6.823565185546875,-0.09706936031579971,-0.01384802907705307,-0.010519175790250301
1696961684554578700,6.83357861328125,-0.10133028775453568,-0.05006595328450203,-0.035019535571336746
1696961684564592400,6.84359228515625,-0.10239552706480026,-0.05645735189318657,-0.028628136962652206
1696961684574605800,6.853605712890625,-0.10772168636322021,-0.0063913981430232525,-0.025432437658309937
1696961684584619300,6.863619384765625,-0.10985215753316879,0.01171756349503994,-0.020106272771954536
1696961684594632700,6.8736328125,-0.10772168636322021,-0.009587096981704235,-0.015845341607928276
1696961684604646100,6.883646240234375,-0.10452599078416824,-0.05113118514418602,-0.028628136962652206
1696961684614659800,6.893659912109375,-0.10665645450353622,-0.02023942768573761,-0.03608476743102074
1696961684624673300,6.90367333984375,-0.10559122264385223,-0.012782796286046505,-0.0030625448562204838
1696961684634686700,6.913686767578125,-0.1087869256734848,-0.0213046595454216,-0.044606633484363556
1696961684644700200,6.9237001953125,-0.10559122264385223,-0.06071828305721283,-0.008388710208237171
1696961684654713900,6.9337138671875,-0.10665645450353622,-0.0063913981430232525,-0.029693370684981346
1696961684664727300,6.943727294921875,-0.10133028775453568,-0.08095771074295044,-0.027562905102968216
1696961684674740700,6.95374072265625,-0.10665645450353622,-0.04687025398015976,-0.021171506494283676
1696961684684754400,6.96375439453125,-0.10133028775453568,-0.04687025398015976,-0.012649642303586006
1696961684694767900,6.973767822265625,-0.10452599078416824,-0.01384802907705307,-0.042476166039705276
1696961684704781600,6.983781494140625,-0.10452599078416824,-0.06071828305721283,0.00226362026296556
1696961684714795000,6.993794921875,-0.10452599078416824,-0.03408745676279068,-0.058454662561416626
1696961684724808400,7.003808349609375,-0.10559122264385223,0,0.024633513763546944
1696961684734822100,7.013822265625,-0.10346075892448425,-0.04900071769952774,-0.06484606117010117
1696961684744835600,7.023835693359375,-0.10559122264385223,-0.03941362351179123,0.006524552125483751
1696961684754849300,7.033849365234375,-0.10452599078416824,-0.03302222490310669,-0.050998032093048096
1696961684764862700,7.04386279296875,-0.10772168636322021,-0.0063913981430232525,-0.007323476951569319
1696961684774876200,7.053876220703125,-0.1087869256734848,-0.02023942768573761,-0.005193010903894901
1696961684784889900,7.063889892578125,-0.10559122264385223,-0.01704372838139534,-0.050998032093048096
1696961684794903300,7.0739033203125,-0.1087869256734848,-0.02343512699007988,0.023568280041217804
1696961684804917000,7.0839169921875,-0.1087869256734848,0.007456631399691105,-0.06378082931041718
1696961684814930400,7.093930419921875,-0.11091738939285278,0.01491326279938221,0.027829213067889214
1696961684824943900,7.10394384765625,-0.10346075892448425,-0.06497921794652939,-0.054193731397390366
1696961684834957600,7.11395751953125,-0.10346075892448425,-0.01704372838139534,0.019307348877191544
1696961684844971000,7.123970947265625,-0.10452599078416824,-0.04580501839518547,-0.019041040912270546
1696961684854984700,7.133984619140625,-0.10346075892448425,-0.07030537724494934,-0.042476166039705276
1696961684864998100,7.143998046875,-0.10452599078416824,-0.02769605815410614,0.060851436108350754
1696961684875011600,7.154011474609375,-0.10452599078416824,-0.03408745676279068,-0.09893351793289185
1696961684885025300,7.164025390625,-0.10133028775453568,-0.03515268862247467,0.08961272984743118
1696961684895038700,7.174038818359375,-0.0991998240351677,-0.09693620353937149,-0.0723026916384697
1696961684905052200,7.18405224609375,-0.10665645450353622,0.02450035884976387,0.019307348877191544
1696961684915065900,7.19406591796875,-0.10559122264385223,-0.03089175745844841,0.033155377954244614
1696961684925079300,7.204079345703125,-0.10452599078416824,-0.03515268862247467,-0.06484606117010117
1696961684935093000,7.214093017578125,-0.11091738939285278,-0.0106523297727108,0.08428656309843063
1696961684945106400,7.2241064453125,-0.10772168636322021,0.0213046595454216,-0.047802332788705826
1696961684955119900,7.234119873046875,-0.10985215753316879,0.0021304660476744175,0.058720968663692474
1696961684965133300,7.24413330078125,-0.11304785311222076,0.0213046595454216,-0.030758604407310486
1696961684975146800,7.254146728515625,-0.10985215753316879,-0.0031956990715116262,0.04913387447595596
1696961684985160400,7.264160400390625,-0.10559122264385223,-0.02236989326775074,-0.001997311832383275
1696961684995174000,7.274173828125,-0.11091738939285278,0.02023942768573761,0.028894444927573204
1696961685005187300,7.284187255859375,-0.10452599078416824,-0.05219641700387001,-0.0030625448562204838
1696961685015200800,7.29420068359375,-0.10452599078416824,-0.03728315606713295,0.031024912372231483
1696961685025214200,7.304214111328125,-0.10133028775453568,-0.06924014538526535,0.006524552125483751
1696961685035228000,7.314227783203125,-0.10133028775453568,-0.06497921794652939,0.00226362026296556
1696961685045241300,7.324241455078125,-0.10559122264385223,-0.03302222490310669,0.040612008422613144
1696961685055254800,7.3342548828125,-0.1087869256734848,0.004260932095348835,0.008655018173158169
1696961685065268200,7.344268310546875,-0.10559122264385223,-0.02769605815410614,0.012915950268507004
1696961685075281700,7.35428173828125,-0.10239552706480026,-0.0319569893181324,0.023568280041217804
1696961685085295400,7.36429541015625,-0.10665645450353622,-0.02769605815410614,0.017176883295178413
1696961685095308800,7.374308837890625,-0.11198262125253677,-0.009587096981704235,-0.007323476951569319
1696961685105322200,7.384322265625,-0.10985215753316879,0.004260932095348835,0.03848154470324516
1696961685115335700,7.394335693359375,-0.11411308497190475,0.03302222490310669,-0.011584409512579441
1696961685125349000,7.40434912109375,-0.10772168636322021,-0.03515268862247467,0.043807707726955414
1696961685135362800,7.41436279296875,-0.11304785311222076,0.0319569893181324,-0.013714875094592571
1696961685145376300,7.424376220703125,-0.10452599078416824,-0.02663082629442215,0.060851436108350754
1696961685155389700,7.4343896484375,-0.11091738939285278,-0.04154408723115921,-0.05632419511675835
1696961685165403100,7.444403076171875,-0.11624355614185333,0.03941362351179123,0.09706936031579971
1696961685175416600,7.45441650390625,-0.11730878800153732,0.05858781561255455,-0.08615072071552277
1696961685185430300,7.46443017578125,-0.11198262125253677,0.03089175745844841,0.08854749798774719
1696961685195443700,7.474443603515625,-0.11091738939285278,0.01171756349503994,-0.030758604407310486
1696961685205457400,7.48445751953125,-0.0991998240351677,-0.09693620353937149,0.024633513763546944
1696961685215470800,7.494470947265625,-0.10772168636322021,-0.04154408723115921,0.0033288532868027687
1696961685225484500,7.504484619140625,-0.11411308497190475,0.02769605815410614,0.005459319334477186
1696961685235498000,7.514498046875,-0.11198262125253677,0.05432688444852829,0.020372580736875534
1696961685245511400,7.524511474609375,-0.10772168636322021,-0.0021304660476744175,0.005459319334477186
1696961685255525000,7.534525146484375,-0.10133028775453568,-0.01491326279938221,0.017176883295178413
1696961685265538600,7.54453857421875,-0.09387365728616714,-0.1171756312251091,0.026763979345560074
1696961685275552000,7.554552001953125,-0.10665645450353622,-0.0426093190908432,-0.038215234875679016
1696961685285565400,7.5645654296875,-0.11411308497190475,0.09054480493068695,0.058720968663692474
1696961685295579000,7.574578857421875,-0.10665645450353622,0.06497921794652939,-0.019041040912270546
1696961685305592300,7.58459228515625,-0.10452599078416824,-0.03941362351179123,0.040612008422613144
1696961685315606000,7.59460595703125,-0.10133028775453568,0.004260932095348835,-0.008388710208237171
1696961685325619500,7.604619384765625,-0.09280842542648315,-0.04154408723115921,0.053394805639982224
1696961685335633000,7.6146328125,-0.09706936031579971,-0.02982652559876442,-0.03288906812667847
1696961685345646300,7.624646240234375,-0.1087869256734848,0.0106523297727108,0.08641702681779861
1696961685355659800,7.63465966796875,-0.0991998240351677,0.07030537724494934,-0.044606633484363556
1696961685365673500,7.644673583984375,-0.10133028775453568,0.01810896210372448,0.04593817517161369
1696961685375687000,7.65468701171875,-0.09067796170711517,-0.012782796286046505,0.026763979345560074
1696961685385700400,7.664700439453125,-0.08215609937906265,-0.08415340632200241,0.005459319334477186
1696961685395713800,7.6747138671875,-0.08641702681779861,-0.06817491352558136,0.00226362026296556
1696961685405727200,7.684727294921875,-0.09493889659643173,0.02343512699007988,0.04274247586727142
1696961685415741000,7.694740966796875,-0.08961272984743118,0.08308817446231842,-0.013714875094592571
1696961685425754400,7.70475439453125,-0.08535179495811462,0.02663082629442215,0.016111649572849274
1696961685435767800,7.714767822265625,-0.08109086751937866,0.01171756349503994,0.005459319334477186
1696961685445781200,7.72478125,-0.06830807030200958,-0.05645735189318657,0.024633513763546944
1696961685455794700,7.734794677734375,-0.07256899774074554,-0.04367455467581749,-0.033954303711652756
1696961685465808400,7.744808349609375,-0.08109086751937866,0.08841434121131897,0.004394086077809334
1696961685475821800,7.75482177734375,-0.07043853402137756,0.05965305119752884,0.021437814459204674
1696961685485835300,7.764835205078125,-0.07576470077037811,0.04047885537147522,-0.06804175674915314
1696961685495848700,7.7748486328125,-0.06404713541269302,0.04900071769952774,0.043807707726955414
1696961685505862100,7.784862060546875,-0.0555252730846405,-0.06071828305721283,-0.052063263952732086
1696961685515875800,7.794875732421875,-0.06404713541269302,0.06178351491689682,-0.012649642303586006
1696961685525889300,7.80488916015625,-0.05978620424866676,0.06497921794652939,-0.009453942999243736
1696961685535902700,7.81490283203125,-0.054460037499666214,0.03728315606713295,-0.012649642303586006
1696961685545916200,7.824916259765625,-0.057655736804008484,0.08734910935163498,-0.042476166039705276
1696961685555929600,7.8349296875,-0.036351077258586884,-0.04154408723115921,0.021437814459204674
1696961685565943300,7.844943359375,-0.029959678649902344,-0.06178351491689682,-0.043541401624679565
1696961685575956700,7.854956787109375,-0.037416309118270874,0.0053261648863554,-0.029693370684981346
1696961685585970200,7.86497021484375,-0.033155377954244614,0.0213046595454216,-0.020106272771954536
1696961685595983600,7.874983642578125,-0.029959678649902344,0.03089175745844841,0.00226362026296556
1696961685605997000,7.8849970703125,-0.033155377954244614,0.08308817446231842,-0.054193731397390366
1696961685616010500,7.895010498046875,-0.016111649572849274,0.009587096981704235,0.047003407031297684
1696961685626024200,7.905024169921875,-0.016111649572849274,-0.0639139786362648,-0.09893351793289185
1696961685636037600,7.91503759765625,-0.019307348877191544,0.07563154399394989,0.04913387447595596
1696961685646051000,7.925051025390625,-0.010785484686493874,0.06817491352558136,-0.061650361865758896
1696961685656064500,7.935064453125,-0.009720250964164734,0.03408745676279068,-0.011584409512579441
1696961685666078000,7.945077880859375,-0.009720250964164734,0.07989247888326645,-0.010519175790250301
1696961685676091600,7.955091552734375,0.006258244160562754,0.007456631399691105,0.0033288532868027687
1696961685686105000,7.96510498046875,0.006258244160562754,-0.0031956990715116262,-0.06378082931041718
1696961685696118500,7.975118408203125,0.007323476951569319,0.03302222490310669,0.061916667968034744
1696961685706132000,7.985132080078125,0.007323476951569319,0.08095771074295044,-0.08828118443489075
1696961685716145400,7.9951455078125,0.012649642303586006,0.10119713842868805,0.08215609937906265
1696961685726159000,8.0051591796875,0.016910573467612267,0.01917419396340847,-0.08828118443489075
1696961685736172500,8.015172607421874,0.027562905102968216,0,0.07150376588106155
1696961685746186000,8.02518603515625,0.027562905102968216,0.03408745676279068,-0.07869409024715424
1696961685756199400,8.035199462890626,0.031823836266994476,0.04154408723115921,0.051264338195323944
1696961685766212900,8.045212890625,0.03288906812667847,0.01810896210372448,-0.009453942999243736
1696961685776226600,8.0552265625,0.03608476743102074,0.08308817446231842,-0.021171506494283676
1696961685786240000,8.065239990234375,0.045671865344047546,0.0426093190908432,0.016111649572849274
1696961685796253400,8.07525341796875,0.048867564648389816,0.004260932095348835,-0.001997311832383275
1696961685806267000,8.085266845703124,0.04993279650807381,0.03834838792681694,-0.015845341607928276
1696961685816280300,8.0952802734375,0.054193731397390366,0.06604444980621338,0.015046416781842709
1696961685826294000,8.1052939453125,0.060585130006074905,0.03089175745844841,-0.020106272771954536
1696961685836307500,8.115307373046875,0.057389430701732635,0.05113118514418602,0.023568280041217804
1696961685846321000,8.12532080078125,0.06484606117010117,0.07776200771331787,-0.017975807189941406
1696961685856334300,8.135334228515624,0.06378082931041718,0.03834838792681694,0.00226362026296556
1696961685866347800,8.14534765625,0.07017222791910172,0.08734910935163498,-0.010519175790250301
1696961685876361500,8.155361572265624,0.0712374597787857,0.03621792420744896,0.016111649572849274
1696961685886375000,8.165375,0.07336792349815369,0.09374050796031952,-0.043541401624679565
1696961685896388400,8.175388427734376,0.07656362652778625,0.09161003679037094,0.054460037499666214
1696961685906401800,8.18540185546875,0.08934641629457474,0.012782796286046505,-0.052063263952732086
1696961685916415200,8.195415283203126,0.08615072071552277,-0.02876129187643528,0.020372580736875534
1696961685926428700,8.2054287109375,0.08721595257520676,0.09906667470932007,-0.012649642303586006
1696961685936442400,8.2154423828125,0.09999874979257584,0.06924014538526535,0.031024912372231483
1696961685946455800,8.225455810546874,0.09680305421352386,-0.03621792420744896,-0.043541401624679565
1696961685956469200,8.23546923828125,0.09467258304357529,0.06284874677658081,0.037416309118270874
1696961685966482700,8.245482666015626,0.10532491654157639,0.08202294260263443,-0.021171506494283676
1696961685976496000,8.25549609375,0.10106398165225983,0.03089175745844841,-0.004127778112888336
1696961685986509800,8.265509765625,0.10106398165225983,0.07030537724494934,0.00226362026296556
1696961685996523300,8.275523193359374,0.10958584398031235,0.11611039936542511,0.009720250964164734
1696961686006536700,8.28553662109375,0.1149120107293129,-0.012782796286046505,-0.023301972076296806
1696961686016550100,8.295550048828124,0.10745538026094437,0.012782796286046505,0.005459319334477186
1696961686026563600,8.3055634765625,0.1149120107293129,0.10545806586742401,0.011850717477500439
1696961686036577300,8.315577392578126,0.11171631515026093,0.03089175745844841,-0.05632419511675835
1696961686046590700,8.3255908203125,0.1138467788696289,0.07563154399394989,0.057655736804008484
1696961686056604200,8.335604248046875,0.11278154700994492,0.07243584841489792,-0.031823836266994476
1696961686066617600,8.34561767578125,0.12023817747831345,0.03941362351179123,0.007589785382151604
1696961686076631000,8.355631103515625,0.12449911236763,-0.03089175745844841,0.004394086077809334
1696961686086644700,8.365644775390624,0.12023817747831345,0.03515268862247467,-0.011584409512579441
1696961686096658200,8.375658203125,0.1138467788696289,0.07137060910463333,-0.001997311832383275
1696961686106671600,8.385671630859376,0.11597724258899689,0.07350108027458191,0.026763979345560074
1696961686116685000,8.39568505859375,0.12876003980636597,-0.012782796286046505,0.004394086077809334
1696961686126698500,8.405698486328125,0.12236864119768143,-0.02769605815410614,-0.016910573467612267
1696961686136712200,8.415712158203124,0.12662957608699799,0.01810896210372448,0.03209014609456062
1696961686146725600,8.4257255859375,0.11704248189926147,0.06071828305721283,-0.013714875094592571
1696961686156739000,8.435739013671874,0.11810771375894547,0.0852186381816864,0.015046416781842709
1696961686166752500,8.44575244140625,0.1255643367767334,0.0063913981430232525,0.010785484686493874
1696961686176766000,8.455765869140626,0.12343387305736542,0.02876129187643528,0.009720250964164734
1696961686186779600,8.465779541015625,0.12236864119768143,0.03089175745844841,0.050199106335639954
1696961686196793000,8.47579296875,0.11917294561862946,0.0106523297727108,-0.035019535571336746
1696961686206806500,8.485806640625,0.11597724258899689,0.09693620353937149,0.06937330216169357
1696961686216820000,8.495820068359375,0.11065108329057693,0.10971900075674057,0.016111649572849274
1696961686226833400,8.50583349609375,0.1138467788696289,0.05113118514418602,0.009720250964164734
1696961686236847000,8.51584716796875,0.11917294561862946,0.06071828305721283,0.09493889659643173
1696961686246860500,8.525860595703126,0.12343387305736542,-0.01704372838139534,-0.043541401624679565
1696961686256874000,8.5358740234375,0.11597724258899689,0.007456631399691105,0.07043853402137756
1696961686266887400,8.545887451171875,0.11597724258899689,0.06710968166589737,0.050199106335639954
1696961686276900900,8.55590087890625,0.11810771375894547,0.03728315606713295,0.017176883295178413
1696961686286914300,8.565914306640625,0.12130340933799744,-0.02236989326775074,0.06298190355300903
1696961686296928000,8.575927978515624,0.12982527911663055,-0.03302222490310669,0.041677240282297134
1696961686306941400,8.58594140625,0.11810771375894547,-0.05219641700387001,-0.028628136962652206
1696961686316955000,8.595954833984376,0.12236864119768143,0.0213046595454216,0.0991998240351677
1696961686326968300,8.60596826171875,0.1149120107293129,0.03941362351179123,-0.025432437658309937
1696961686336981800,8.615981689453125,0.1138467788696289,0.04687025398015976,0.033155377954244614
1696961686346995500,8.625995361328124,0.12236864119768143,0.0106523297727108,0.036351077258586884
1696961686357009000,8.6360087890625,0.1255643367767334,-0.0532616525888443,0.007589785382151604
1696961686367022300,8.646022216796876,0.11704248189926147,0.0053261648863554,-0.0009320789249613881
1696961686377035800,8.656035888671875,0.11810771375894547,0.02236989326775074,-0.001997311832383275
1696961686387049200,8.66604931640625,0.10745538026094437,0.06924014538526535,0.023568280041217804
1696961686397063000,8.67606298828125,0.11278154700994492,0.09480573982000351,-0.007323476951569319
1696961686407076400,8.686076416015625,0.11917294561862946,-0.06497921794652939,0.011850717477500439
1696961686417089800,8.69608984375,0.12130340933799744,-0.08415340632200241,-0.037150003015995026
1696961686427103200,8.706103271484375,0.10852061212062836,0.0852186381816864,0.010785484686493874
1696961686437116700,8.71611669921875,0.1149120107293129,0.012782796286046505,-0.033954303711652756
1696961686447130400,8.72613037109375,0.11597724258899689,0.0063913981430232525,-0.007323476951569319
1696961686457143800,8.736143798828126,0.11065108329057693,0.007456631399691105,-0.022236740216612816
1696961686467157200,8.7461572265625,0.11597724258899689,-0.05858781561255455,-0.043541401624679565
1696961686477170700,8.756170654296875,0.11065108329057693,-0.004260932095348835,-0.007323476951569319
1696961686487184100,8.76618408203125,0.10745538026094437,0.03515268862247467,-0.06591129302978516
1696961686497197800,8.77619775390625,0.10212921351194382,0.06604444980621338,0.021437814459204674
1696961686507211300,8.786211181640626,0.09893351793289185,0.01810896210372448,-0.06804175674915314
1696961686517224700,8.796224609375,0.10852061212062836,-0.0213046595454216,0.0033288532868027687
1696961686527238100,8.806238037109376,0.10958584398031235,-0.05965305119752884,-0.043541401624679565
1696961686537251600,8.81625146484375,0.09041165560483932,0.01917419396340847,-0.052063263952732086
1696961686547265300,8.826265380859375,0.09041165560483932,0.03728315606713295,0.031024912372231483
1696961686557278700,8.83627880859375,0.08721595257520676,0.05858781561255455,-0.028628136962652206
1696961686567292200,8.846292236328125,0.08934641629457474,0.0159784946590662,0.009720250964164734
1696961686577305600,8.8563056640625,0.0936073511838913,-0.10332760214805603,-0.006258244160562754
1696961686587319000,8.866319091796875,0.09041165560483932,-0.0063913981430232525,-0.009453942999243736
1696961686597332500,8.87633251953125,0.07549838721752167,0.0021304660476744175,-0.021171506494283676
1696961686607346200,8.88634619140625,0.07762885838747025,0.05006595328450203,0.04593817517161369
1696961686617359600,8.896359619140625,0.07656362652778625,0.007456631399691105,0.028894444927573204
1696961686627373000,8.906373046875,0.07549838721752167,-0.02343512699007988,-0.008388710208237171
1696961686637386500,8.916386474609375,0.08188978582620621,-0.06924014538526535,0.060851436108350754
1696961686647400000,8.92639990234375,0.06804175674915314,-0.02023942768573761,-0.025432437658309937
1696961686657413600,8.93641357421875,0.060585130006074905,0.05432688444852829,0.03528584539890289
1696961686667427000,8.946427001953126,0.06271559745073318,0.03089175745844841,0.03209014609456062
1696961686677440500,8.9564404296875,0.061650361865758896,0.02450035884976387,0.008655018173158169
1696961686687454000,8.966453857421875,0.0712374597787857,-0.0532616525888443,0.10559122264385223
1696961686697467400,8.97646728515625,0.060585130006074905,-0.07882724702358246,-0.0712374597787857
1696961686707481000,8.986481201171875,0.052063263952732086,0.04367455467581749,0.09387365728616714
1696961686717494500,8.99649462890625,0.05632419511675835,0.03728315606713295,0.023568280041217804
1696961686727508000,9.006508056640625,0.048867564648389816,0.02876129187643528,-0.025432437658309937
1696961686737521400,9.016521484375,0.052063263952732086,0.03941362351179123,0.09600412845611572
1696961686747534800,9.026534912109375,0.060585130006074905,-0.12995843589305878,-0.033954303711652756
1696961686757548500,9.036548583984375,0.052063263952732086,0.0063913981430232525,0.008655018173158169
1696961686767562000,9.04656201171875,0.058454662561416626,-0.01384802907705307,0.04593817517161369
1696961686777575400,9.056575439453125,0.05632419511675835,-0.08841434121131897,-0.06591129302978516
1696961686787588900,9.0665888671875,0.05312849581241608,0.02236989326775074,0.09067796170711517
1696961686797602300,9.076602294921875,0.057389430701732635,-0.09480573982000351,-0.020106272771954536
1696961686807616000,9.086615966796876,0.045671865344047546,-0.0958709716796875,-0.019041040912270546
1696961686817629400,9.09662939453125,0.041410934180021286,0.0426093190908432,0.03954677656292915
1696961686827643000,9.106642822265625,0.042476166039705276,0.05752258375287056,-0.043541401624679565
1696961686837656300,9.11665625,0.044606633484363556,-0.02663082629442215,0.06298190355300903
1696961686847669800,9.126669677734375,0.033954303711652756,-0.06604444980621338,-0.052063263952732086
1696961686857683500,9.136683349609376,0.03928046673536301,0.02876129187643528,0.08109086751937866
1696961686867697000,9.14669677734375,0.033954303711652756,0.03834838792681694,-0.06378082931041718
1696961686877710300,9.15671044921875,0.026497671380639076,0.06071828305721283,0.08002562820911407
1696961686887723800,9.166723876953125,0.026497671380639076,0.0031956990715116262,-0.023301972076296806
1696961686897737200,9.1767373046875,0.031823836266994476,0.05113118514418602,-0.026497671380639076
1696961686907750700,9.186750732421874,0.047802332788705826,-0.02663082629442215,0.10346075892448425
1696961686917764400,9.196764404296875,0.037150003015995026,-0.14167599380016327,-0.1351514458656311
1696961686927777800,9.20677783203125,0.029693370684981346,0.0639139786362648,0.07576470077037811
1696961686937791200,9.216791259765625,0.031823836266994476,0.03408745676279068,-0.037150003015995026
1696961686947804700,9.2268046875,0.033954303711652756,0.02343512699007988,0.00226362026296556
1696961686957818000,9.236818115234374,0.03608476743102074,-0.10226237028837204,0.04913387447595596
1696961686967831800,9.246831787109375,0.028628136962652206,-0.03089175745844841,-0.08828118443489075
1696961686977845200,9.25684521484375,0.028628136962652206,0.05858781561255455,0.09493889659643173
1696961686987858700,9.266858642578125,0.024367205798625946,-0.03834838792681694,-0.09893351793289185
1696961686997872000,9.2768720703125,0.025432437658309937,0.02982652559876442,0.04593817517161369
1696961687007885600,9.286885498046875,0.025432437658309937,0.05006595328450203,0.00226362026296556
1696961687017899300,9.296899169921875,0.029693370684981346,-0.09480573982000351,-0.015845341607928276
1696961687027912700,9.30691259765625,0.017975807189941406,-0.007456631399691105,0.0001331541279796511
1696961687037926100,9.316926025390625,0.019041040912270546,0.0852186381816864,-0.011584409512579441
1696961687047939600,9.326939697265624,0.014780107885599136,0.07563154399394989,0.040612008422613144
1696961687057953000,9.336953125,0.017975807189941406,0.0159784946590662,-0.038215234875679016
1696961687067966700,9.346966796875,0.021171506494283676,-0.06924014538526535,0.00226362026296556
1696961687077980200,9.356980224609375,0.031823836266994476,-0.03408745676279068,0.03528584539890289
1696961687087993600,9.36699365234375,0.012649642303586006,0.02450035884976387,-0.10212921351194382
1696961687098007000,9.377007080078124,0.021171506494283676,0.04793548583984375,0.10346075892448425
1696961687108020500,9.3870205078125,0.020106272771954536,-0.00852186419069767,-0.06591129302978516
1696961687118034200,9.3970341796875,0.024367205798625946,-0.05219641700387001,0.008655018173158169
1696961687128047600,9.407047607421875,0.029693370684981346,-0.06497921794652939,0.020372580736875534
1696961687138061000,9.41706103515625,0.019041040912270546,-0.03089175745844841,-0.031823836266994476
1696961687148074500,9.427074462890625,0.013714875094592571,-0.01917419396340847,0.010785484686493874
1696961687158088000,9.437087890625,0.016910573467612267,0.07350108027458191,-0.007323476951569319
1696961687168101600,9.4471015625,0.021171506494283676,-0.03834838792681694,0.05659050494432449
1696961687178115000,9.457114990234375,0.013714875094592571,-0.09480573982000351,-0.040345702320337296
1696961687188128500,9.46712841796875,0.009453942999243736,0.05113118514418602,0.06830807030200958
1696961687198142000,9.477141845703125,0.005193010903894901,0.07350108027458191,-0.03928046673536301
1696961687208155400,9.4871552734375,0.007323476951569319,0.02876129187643528,0.08002562820911407
1696961687218168800,9.4971689453125,0.004127778112888336,0.06284874677658081,-0.027562905102968216
1696961687228182500,9.5071826171875,0.011584409512579441,-0.02556559257209301,0.031024912372231483
1696961687238196000,9.517196044921874,0.013714875094592571,-0.04367455467581749,0.03848154470324516
1696961687248209400,9.52720947265625,0.006258244160562754,0.009587096981704235,-0.022236740216612816
1696961687258222800,9.537222900390624,0.012649642303586006,0.02023942768573761,0.025698747485876083
1696961687268236300,9.547236328125,0.010519175790250301,0.02556559257209301,0.037416309118270874
1696961687278250000,9.55725,0.012649642303586006,-0.05539211630821228,0.004394086077809334
1696961687288263400,9.567263427734375,0.011584409512579441,-0.03621792420744896,0.028894444927573204
1696961687298276900,9.57727685546875,0.007323476951569319,0.0031956990715116262,0.006524552125483751
1696961687308290300,9.587290283203124,0.006258244160562754,-0.009587096981704235,0.006524552125483751
1696961687318303700,9.5973037109375,0.007323476951569319,0.0010652330238372087,0.028894444927573204
1696961687328317400,9.6073173828125,-0.0001331541279796511,0.03089175745844841,-0.0030625448562204838
1696961687338331000,9.617330810546875,0.005193010903894901,-0.03941362351179123,0.036351077258586884
1696961687348344300,9.62734423828125,0.001997311832383275,0.04793548583984375,0.0001331541279796511
1696961687358357800,9.637357666015625,-0.0001331541279796511,0.02236989326775074,0.03954677656292915
1696961687368371200,9.64737109375,-0.00226362026296556,0.0010652330238372087,-0.045671865344047546
1696961687378385000,9.657385009765624,0.0030625448562204838,0.07350108027458191,0.11411308497190475
1696961687388398300,9.6673984375,0.001997311832383275,-0.04367455467581749,-0.1031944528222084
1696961687398411800,9.677411865234374,0.005193010903894901,-0.05219641700387001,0.10559122264385223
1696961687408425200,9.68742529296875,-0.0011983871227130294,0.009587096981704235,-0.09147688746452332
1696961687418438700,9.697438720703126,0.008388710208237171,0.05645735189318657,0.06298190355300903
1696961687428452400,9.707452392578125,0.010519175790250301,-0.06710968166589737,-0.028628136962652206
1696961687438465800,9.7174658203125,0.0030625448562204838,-0.0852186381816864,-0.019041040912270546
1696961687448479200,9.727479248046874,0.0030625448562204838,0.04793548583984375,0.013981183059513569
1696961687458492700,9.73749267578125,0.009453942999243736,-0.02556559257209301,-0.009453942999243736
1696961687468506000,9.747506103515626,0.004127778112888336,-0.10119713842868805,-0.021171506494283676
1696961687478519800,9.757519775390625,0.005193010903894901,0.02663082629442215,0.018242115154862404
1696961687488533200,9.767533203125,0.006258244160562754,-0.07137060910463333,0.010785484686493874
1696961687498546700,9.777546630859375,-0.0011983871227130294,-0.07137060910463333,-0.015845341607928276
1696961687508560100,9.78756005859375,-0.005459319334477186,0.05219641700387001,0.024633513763546944
1696961687518573600,9.797573486328124,-0.0033288532868027687,-0.0319569893181324,-0.024367205798625946
1696961687528587000,9.8075869140625,-0.004394086077809334,0.02450035884976387,0.021437814459204674
1696961687538600700,9.8176005859375,-0.0011983871227130294,-0.05539211630821228,0.0001331541279796511
1696961687548614100,9.8276142578125,-0.005459319334477186,-0.03089175745844841,-0.016910573467612267
1696961687558627600,9.837627685546876,-0.012915950268507004,0.01917419396340847,0.044872939586639404
1696961687568641000,9.84764111328125,-0.011850717477500439,0.04900071769952774,-0.059519894421100616
1696961687578654500,9.857654541015625,-0.0033288532868027687,0.03515268862247467,0.10026505589485168
1696961687588668200,9.867668212890624,-0.011850717477500439,-0.08841434121131897,-0.10212921351194382
1696961687598681600,9.877681640625,-0.011850717477500439,-0.007456631399691105,0.09067796170711517
1696961687608695000,9.887695068359376,-0.016111649572849274,0.01704372838139534,-0.03928046673536301
1696961687618708500,9.89770849609375,-0.015046416781842709,-0.02982652559876442,-0.024367205798625946
1696961687628722000,9.907721923828126,-0.015046416781842709,-0.0213046595454216,0.04913387447595596
1696961687638735600,9.917735595703125,-0.019307348877191544,-0.0213046595454216,-0.04993279650807381
1696961687648749000,9.9277490234375,-0.011850717477500439,-0.03621792420744896,0.07150376588106155
1696961687658762500,9.937762451171874,-0.020372580736875534,-0.06604444980621338,-0.1149120107293129
1696961687668776000,9.94777587890625,-0.028894444927573204,0.08095771074295044,0.09387365728616714
1696961687678789400,9.957789306640626,-0.028894444927573204,-0.00852186419069767,-0.057389430701732635
1696961687688802800,9.967802734375,-0.022503048181533813,-0.09374050796031952,-0.019041040912270546
1696961687698816300,9.977816162109375,-0.018242115154862404,-0.08415340632200241,0.013981183059513569
1696961687708829700,9.98782958984375,-0.029959678649902344,-0.0021304660476744175,-0.06271559745073318
1696961687718843100,9.997843017578125,-0.031024912372231483,-0.02236989326775074,-0.017975807189941406
1696961687728856600,10.007856689453124,-0.033155377954244614,0.04367455467581749,-0.050998032093048096
1696961687738870000,10.0178701171875,-0.018242115154862404,-0.05645735189318657,0.009720250964164734
1696961687748883500,10.027883544921876,-0.009720250964164734,-0.2247641682624817,-0.0829550251364708
1696961687758896600,10.037896728515625,-0.048068638890981674,0.03728315606713295,-0.012649642303586006
1696961687768910000,10.04791015625,-0.03954677656292915,0.09906667470932007,-0.03608476743102074
1696961687778923500,10.057923583984374,-0.03528584539890289,-0.03302222490310669,-0.04993279650807381
1696961687788937000,10.06793701171875,-0.041677240282297134,-0.10013190656900406,0.016111649572849274
1696961687798950400,10.077950439453126,-0.043807707726955414,-0.0021304660476744175,-0.06591129302978516
1696961687808963800,10.0879638671875,-0.044872939586639404,0.03728315606713295,0.006524552125483751
1696961687818977300,10.097977294921876,-0.048068638890981674,-0.02769605815410614,-0.057389430701732635
1696961687828990700,10.10799072265625,-0.050199106335639954,0.05113118514418602,0.033155377954244614
1696961687839004200,10.118004150390625,-0.050199106335639954,0.01491326279938221,-0.04673709720373154
1696961687849017600,10.128017578125,-0.043807707726955414,-0.10758853703737259,-0.007323476951569319
1696961687859031000,10.138031005859375,-0.03528584539890289,-0.12356702983379364,0.012915950268507004
1696961687869044500,10.14804443359375,-0.06511236727237701,0.05752258375287056,-0.06591129302978516
1696961687879058000,10.158057861328125,-0.06298190355300903,0.1065233051776886,0.07469946891069412
1696961687889071400,10.1680712890625,-0.05232957378029823,0.0010652330238372087,-0.055258963257074356
1696961687899084800,10.178084716796874,-0.047003407031297684,-0.15552401542663574,0.04913387447595596
1696961687909098200,10.18809814453125,-0.058720968663692474,-0.09161003679037094,-0.047802332788705826
1696961687919111700,10.198111572265624,-0.07043853402137756,0.10758853703737259,0.040612008422613144
1696961687929125000,10.208125,-0.06298190355300903,0.03941362351179123,-0.021171506494283676
1696961687939138600,10.218138671875,-0.05978620424866676,-0.05965305119752884,0.06298190355300903
1696961687949152000,10.228152099609375,-0.06404713541269302,-0.10226237028837204,-0.017975807189941406
1696961687959165400,10.23816552734375,-0.066177599132061,-0.06497921794652939,0.060851436108350754
1696961687969179000,10.248178955078124,-0.067242830991745,0.0106523297727108,0.006524552125483751
1696961687979192300,10.2581923828125,-0.0768299326300621,0.0426093190908432,0.03528584539890289
1696961687989206000,10.2682060546875,-0.07043853402137756,-0.009587096981704235,0.0033288532868027687
1696961687999219500,10.278219482421875,-0.06937330216169357,-0.0159784946590662,0.028894444927573204
1696961688009233000,10.28823291015625,-0.061916667968034744,-0.11291470378637314,0.029959678649902344
1696961688019246300,10.298246337890625,-0.07363422960042953,-0.04047885537147522,-0.042476166039705276
1696961688029259800,10.308259765625,-0.07150376588106155,0.05219641700387001,0.06404713541269302
1696961688039273500,10.3182734375,-0.066177599132061,0.01491326279938221,-0.028628136962652206
1696961688049287000,10.328286865234375,-0.06298190355300903,-0.0852186381816864,0.021437814459204674
1696961688059300400,10.33830029296875,-0.06937330216169357,-0.11078423261642456,-0.022236740216612816
1696961688069313800,10.348313720703125,-0.07043853402137756,0.01917419396340847,0.016111649572849274
1696961688079327200,10.3583271484375,-0.0768299326300621,0.03089175745844841,-0.048867564648389816
1696961688089341000,10.3683408203125,-0.06937330216169357,0.06924014538526535,0.04593817517161369
1696961688099354400,10.378354248046875,-0.07150376588106155,-0.05645735189318657,-0.022236740216612816
1696961688109367800,10.388367919921874,-0.0768299326300621,-0.03302222490310669,-0.009453942999243736
1696961688119381200,10.39838134765625,-0.07469946891069412,0.10865376889705658,0.04913387447595596
1696961688129394700,10.408394775390626,-0.0768299326300621,0.0319569893181324,-0.09786828607320786
1696961688139408400,10.418408447265625,-0.07043853402137756,0.06497921794652939,0.060851436108350754
1696961688149421800,10.428421875,-0.061916667968034744,0.01491326279938221,-0.006258244160562754
1696961688159435300,10.438435302734375,-0.058720968663692474,-0.14700216054916382,-0.06378082931041718
1696961688169448700,10.44844873046875,-0.061916667968034744,0.00852186419069767,0.015046416781842709
1696961688179462100,10.458462158203124,-0.067242830991745,0.06924014538526535,-0.060585130006074905
1696961688189475800,10.468475830078125,-0.0555252730846405,0.03941362351179123,-0.047802332788705826
1696961688199489300,10.4784892578125,-0.05232957378029823,0.01810896210372448,0.0778951644897461
1696961688209502700,10.488502685546875,-0.05232957378029823,-0.12143656611442566,-0.13195574283599854
1696961688219516200,10.49851611328125,-0.054460037499666214,0.007456631399691105,0.034220609813928604
1696961688229529600,10.508529541015625,-0.04274247586727142,-0.0426093190908432,-0.021171506494283676
1696961688239543300,10.518543212890625,-0.054460037499666214,0.03302222490310669,-0.06378082931041718
1696961688249556700,10.528556640625,-0.057655736804008484,-0.009587096981704235,0.07043853402137756
1696961688259570200,10.538570068359375,-0.041677240282297134,-0.10971900075674057,-0.045671865344047546
1696961688269583600,10.54858349609375,-0.054460037499666214,0.01491326279938221,0.017176883295178413
1696961688279597000,10.55859716796875,-0.0555252730846405,0.05539211630821228,-0.03608476743102074
1696961688289610500,10.568610595703126,-0.051264338195323944,0.06710968166589737,0.040612008422613144
1696961688299624200,10.578624267578125,-0.051264338195323944,0.02663082629442215,-0.022236740216612816
1696961688309637600,10.5886376953125,-0.04274247586727142,-0.0745663121342659,0.036351077258586884
1696961688319651000,10.598651123046874,-0.048068638890981674,0.03515268862247467,-0.023301972076296806
1696961688329664500,10.60866455078125,-0.04593817517161369,0.08308817446231842,0.041677240282297134
1696961688339678000,10.618677978515626,-0.03528584539890289,-0.0053261648863554,-0.020106272771954536
1696961688349691600,10.628691650390625,-0.034220609813928604,-0.05539211630821228,0.007589785382151604
1696961688359705000,10.638705078125,-0.029959678649902344,-0.06817491352558136,0.025698747485876083
1696961688369718500,10.648718505859375,-0.03209014609456062,-0.05965305119752884,-0.009453942999243736
1696961688379732000,10.65873193359375,-0.037416309118270874,0.05645735189318657,0.034220609813928604
1696961688389745400,10.668745361328124,-0.03209014609456062,-0.00852186419069767,0.016111649572849274
1696961688399759000,10.678759033203125,-0.03528584539890289,-0.04687025398015976,0.047003407031297684
1696961688409772500,10.6887724609375,-0.03528584539890289,-0.02023942768573761,0.03528584539890289
1696961688419786000,10.698785888671875,-0.033155377954244614,-0.0319569893181324,0.026763979345560074
1696961688429799400,10.70879931640625,-0.03954677656292915,0.02663082629442215,0.016111649572849274
1696961688439812900,10.718812744140624,-0.044872939586639404,0.08841434121131897,0.041677240282297134
1696961688449826600,10.72882666015625,-0.029959678649902344,0.009587096981704235,0.016111649572849274
1696961688459840000,10.738840087890624,-0.021437814459204674,-0.12569749355316162,0.044872939586639404
1696961688469853400,10.748853515625,-0.03848154470324516,-0.0031956990715116262,-0.035019535571336746
1696961688479867000,10.758866943359376,-0.036351077258586884,0.06817491352558136,0.08322133123874664
1696961688489880300,10.76888037109375,-0.037416309118270874,0.05645735189318657,-0.06271559745073318
1696961688499894000,10.77889404296875,-0.031024912372231483,0.05006595328450203,0.07576470077037811
1696961688509907500,10.788907470703125,-0.029959678649902344,-0.09161003679037094,-0.05312849581241608
1696961688519921000,10.7989208984375,-0.031024912372231483,0.02876129187643528,0.06404713541269302
1696961688529934300,10.808934326171874,-0.029959678649902344,-0.009587096981704235,-0.009453942999243736
1696961688539947800,10.81894775390625,-0.034220609813928604,-0.0010652330238372087,-0.014780107885599136
1696961688549961500,10.82896142578125,-0.03528584539890289,0.0159784946590662,0.07043853402137756
1696961688559975000,10.838974853515625,-0.028894444927573204,-0.04793548583984375,-0.031823836266994476
1696961688569988400,10.84898828125,-0.023568280041217804,-0.10758853703737259,0.037416309118270874
1696961688580001800,10.859001708984374,-0.040612008422613144,0.03941362351179123,-0.004127778112888336
1696961688590015200,10.86901513671875,-0.028894444927573204,0.04154408723115921,0.031024912372231483
1696961688600028700,10.879028564453124,-0.031024912372231483,-0.07989247888326645,0.023568280041217804
1696961688610042400,10.88904248046875,-0.03848154470324516,0.01704372838139534,-0.0030625448562204838
1696961688620055800,10.899055908203126,-0.025698747485876083,0.007456631399691105,0.047003407031297684
1696961688630069200,10.9090693359375,-0.033155377954244614,-0.01704372838139534,-0.0712374597787857
1696961688640082700,10.919082763671875,-0.036351077258586884,0.06071828305721283,0.08854749798774719
1696961688650096000,10.92909619140625,-0.029959678649902344,-0.02343512699007988,-0.055258963257074356
1696961688660109800,10.93910986328125,-0.03528584539890289,0.0021304660476744175,0.009720250964164734
1696961688670123300,10.949123291015624,-0.027829213067889214,0.0213046595454216,0.04913387447595596
1696961688680136700,10.95913671875,-0.028894444927573204,-0.02343512699007988,-0.047802332788705826
1696961688690150100,10.969150146484376,-0.034220609813928604,0.00852186419069767,0.0555252730846405
1696961688700163600,10.97916357421875,-0.03848154470324516,0.012782796286046505,-0.017975807189941406
1696961688710177300,10.98917724609375,-0.036351077258586884,0.0532616525888443,0.004394086077809334
1696961688720190700,10.999190673828124,-0.03528584539890289,-0.004260932095348835,0.010785484686493874
1696961688730204200,11.0092041015625,-0.037416309118270874,0.05006595328450203,-0.010519175790250301
1696961688740217600,11.019217529296874,-0.033155377954244614,0.02982652559876442,-0.005193010903894901
1696961688750231000,11.02923095703125,-0.028894444927573204,-0.02023942768573761,0.009720250964164734
1696961688760244700,11.03924462890625,-0.03528584539890289,0.004260932095348835,-0.04673709720373154
1696961688770258200,11.049258056640625,-0.026763979345560074,-0.0053261648863554,0.017176883295178413
1696961688780271600,11.059271728515625,-0.023568280041217804,-0.004260932095348835,-0.03288906812667847
1696961688790285000,11.06928515625,-0.029959678649902344,0.0053261648863554,-0.0009320789249613881
1696961688800298500,11.079298583984375,-0.03528584539890289,0.01810896210372448,-0.052063263952732086
1696961688810312000,11.08931201171875,-0.022503048181533813,0.01384802907705307,-0.021171506494283676
1696961688820325400,11.099325439453125,-0.018242115154862404,-0.0106523297727108,-0.011584409512579441
1696961688830338800,11.1093388671875,-0.025698747485876083,-0.01491326279938221,-0.029693370684981346
1696961688840352300,11.119352294921875,-0.037416309118270874,0.0159784946590662,-0.03928046673536301
1696961688850365700,11.12936572265625,-0.027829213067889214,0.1278279572725296,0.0033288532868027687
1696961688860379100,11.139379150390624,-0.021437814459204674,-0.01917419396340847,-0.020106272771954536
1696961688870392600,11.149392578125,-0.026763979345560074,-0.01491326279938221,-0.06804175674915314
1696961688880406000,11.159406005859376,-0.020372580736875534,0.05113118514418602,0.024633513763546944
1696961688890419500,11.16941943359375,-0.021437814459204674,0.04473978653550148,-0.0829550251364708
1696961688900433000,11.179432861328126,-0.016111649572849274,0.02876129187643528,0.027829213067889214
1696961688910446300,11.1894462890625,-0.012915950268507004,-0.004260932095348835,-0.013714875094592571
1696961688920459800,11.199459716796875,-0.016111649572849274,0.08202294260263443,-0.07017222791910172
1696961688930473200,11.20947314453125,0.004127778112888336,-0.03302222490310669,0.09493889659643173
1696961688940486700,11.219486572265625,-0.006524552125483751,-0.01384802907705307,-0.16284750401973724
1696961688950500000,11.2295,-0.012915950268507004,0.09800143539905548,0.06511236727237701
1696961688960513500,11.239513427734375,0.004127778112888336,0.0053261648863554,-0.058454662561416626
1696961688970527000,11.24952685546875,0.005193010903894901,-0.004260932095348835,0.017176883295178413
1696961688980540400,11.25954052734375,0.0030625448562204838,-0.02450035884976387,-0.013714875094592571
1696961688990553900,11.269553955078125,0.006258244160562754,-0.0021304660476744175,0.010785484686493874
1696961689000567300,11.2795673828125,0.005193010903894901,0.04900071769952774,-0.029693370684981346
1696961689010580700,11.289580810546875,0.007323476951569319,0.04473978653550148,-0.009453942999243736
1696961689020594200,11.29959423828125,0.014780107885599136,-0.03621792420744896,0.008655018173158169
1696961689030607600,11.309607666015625,0.013714875094592571,-0.02769605815410614,-0.023301972076296806
1696961689040621000,11.31962109375,0.013714875094592571,0.06604444980621338,0.0011983871227130294
1696961689050634500,11.329634521484374,0.022236740216612816,0.0053261648863554,0.023568280041217804
1696961689060648000,11.33964794921875,0.014780107885599136,0.0053261648863554,-0.06697652488946915
1696961689070661400,11.349661376953126,0.023301972076296806,0.05752258375287056,0.08428656309843063
1696961689080674800,11.3596748046875,0.029693370684981346,0.0031956990715116262,-0.023301972076296806
1696961689090688300,11.369688232421876,0.021171506494283676,-0.0031956990715116262,-0.006258244160562754
1696961689100701700,11.37970166015625,0.013714875094592571,0.11397993564605713,0.018242115154862404
1696961689110715100,11.389715087890625,0.029693370684981346,0.06710968166589737,0.019307348877191544
1696961689120728600,11.399728515625,0.03608476743102074,-0.05752258375287056,-0.0030625448562204838
1696961689130742000,11.409741943359375,0.03288906812667847,-0.04367455467581749,0.0033288532868027687
1696961689140755500,11.41975537109375,0.021171506494283676,0.1065233051776886,-0.007323476951569319
1696961689150769000,11.429768798828125,0.023301972076296806,0.10545806586742401,0.021437814459204674
1696961689160782300,11.4397822265625,0.033954303711652756,0.08841434121131897,0.010785484686493874
1696961689170795800,11.449795654296874,0.048867564648389816,-0.13315412402153015,0.033155377954244614
1696961689180809500,11.4598095703125,0.033954303711652756,-0.07137060910463333,-0.06697652488946915
1696961689190823000,11.469822998046874,0.033954303711652756,0.1587197184562683,0.06404713541269302
1696961689200836400,11.47983642578125,0.040345702320337296,0.05645735189318657,-0.017975807189941406
1696961689210849800,11.489849853515626,0.047802332788705826,-0.07882724702358246,0.004394086077809334
1696961689220863200,11.49986328125,0.050998032093048096,-0.03834838792681694,0.07469946891069412
1696961689230877000,11.509876953125,0.045671865344047546,0.0063913981430232525,-0.06591129302978516
1696961689240890400,11.519890380859374,0.044606633484363556,0.06284874677658081,0.058720968663692474
1696961689250903800,11.52990380859375,0.041410934180021286,0.0639139786362648,-0.010519175790250301
1696961689260917200,11.539917236328124,0.047802332788705826,0.04900071769952774,0.051264338195323944
1696961689270930700,11.5499306640625,0.04993279650807381,-0.02450035884976387,-0.011584409512579441
1696961689280944400,11.5599443359375,0.044606633484363556,0.04367455467581749,0.011850717477500439
1696961689290957800,11.569957763671875,0.047802332788705826,0.07243584841489792,0.044872939586639404
1696961689300971300,11.57997119140625,0.052063263952732086,0.07350108027458191,-0.027562905102968216
1696961689310984700,11.589984619140624,0.055258963257074356,0.01704372838139534,0.019307348877191544
1696961689320998100,11.599998046875,0.059519894421100616,-0.05006595328450203,-0.016910573467612267
1696961689331011800,11.61001171875,0.061650361865758896,0.0532616525888443,-0.028628136962652206
1696961689341025300,11.620025390625,0.06484606117010117,0.08202294260263443,0.021437814459204674
1696961689351038700,11.630038818359376,0.0712374597787857,-0.0053261648863554,-0.033954303711652756
1696961689361052200,11.64005224609375,0.06910699605941772,-0.06071828305721283,-0.004127778112888336
1696961689371065600,11.650065673828125,0.06591129302978516,0.04473978653550148,0.044872939586639404
1696961689381079000,11.6600791015625,0.060585130006074905,0.1715025156736374,-0.07336792349815369
1696961689391092700,11.6700927734375,0.07549838721752167,0.03728315606713295,0.03954677656292915
1696961689401106200,11.680106201171874,0.0723026916384697,-0.11291470378637314,-0.040345702320337296
1696961689411119600,11.69011962890625,0.0712374597787857,0.07989247888326645,0.048068638890981674
1696961689421133000,11.700133056640626,0.0712374597787857,0.03408745676279068,-0.027562905102968216
1696961689431146500,11.710146484375,0.061650361865758896,0.0031956990715116262,-0.023301972076296806
1696961689441160200,11.72016015625,0.06378082931041718,0.15339355170726776,0.10346075892448425
1696961689451173600,11.730173583984374,0.06591129302978516,0.07137060910463333,-0.08188978582620621
1696961689461187000,11.74018701171875,0.07549838721752167,-0.06497921794652939,0.0874822586774826
1696961689471200500,11.750200439453126,0.06910699605941772,-0.01491326279938221,-0.020106272771954536
1696961689481214000,11.7602138671875,0.061650361865758896,0.21730753779411316,0.015046416781842709
1696961689491227600,11.7702275390625,0.07656362652778625,0.0106523297727108,0.050199106335639954
1696961689501241000,11.780240966796875,0.07869409024715424,-0.06178351491689682,-0.004127778112888336
1696961689511254500,11.790254638671875,0.07869409024715424,0.02450035884976387,0.08109086751937866
1696961689521268000,11.80026806640625,0.07443315535783768,-0.01917419396340847,-0.010519175790250301
1696961689531281400,11.810281494140625,0.07336792349815369,0.06817491352558136,0.07576470077037811
1696961689541295000,11.820295166015624,0.08082455396652222,-0.01491326279938221,0.034220609813928604
1696961689551308500,11.83030859375,0.07443315535783768,-0.0213046595454216,0.033155377954244614
1696961689561322000,11.840322021484376,0.07336792349815369,-0.02343512699007988,0.067242830991745
1696961689571335400,11.85033544921875,0.06697652488946915,0.03728315606713295,0.0001331541279796511
1696961689581348900,11.860348876953125,0.07869409024715424,0.01917419396340847,0.10772168636322021
1696961689591362600,11.870362548828124,0.07336792349815369,-0.04047885537147522,-0.031823836266994476
1696961689601376000,11.8803759765625,0.07549838721752167,-0.01384802907705307,0.07896039634943008
1696961689611389400,11.890389404296876,0.07336792349815369,-0.004260932095348835,-0.03608476743102074
1696961689621403000,11.90040283203125,0.07656362652778625,0.04687025398015976,0.060851436108350754
1696961689631416300,11.910416259765626,0.0829550251364708,-0.03728315606713295,-0.012649642303586006
1696961689641430000,11.920429931640625,0.07975932210683823,-0.03302222490310669,0.006524552125483751
1696961689651443500,11.930443359375,0.07762885838747025,0.0053261648863554,0.023568280041217804
1696961689661457000,11.940456787109374,0.07656362652778625,0.04154408723115921,-0.024367205798625946
1696961689671470300,11.95047021484375,0.08082455396652222,0.04793548583984375,-0.006258244160562754
1696961689681483800,11.96048388671875,0.08402025699615479,-0.04047885537147522,0.018242115154862404
1696961689691497200,11.970497314453125,0.07656362652778625,-0.03408745676279068,-0.054193731397390366
1696961689701511000,11.980510986328126,0.0829550251364708,0.03408745676279068,0.044872939586639404
1696961689711524400,11.9905244140625,0.07336792349815369,0.01704372838139534,-0.07869409024715424
1696961689721537800,12.000537841796875,0.0723026916384697,0.007456631399691105,0.031024912372231483
1696961689731551200,12.01055126953125,0.07869409024715424,0.02876129187643528,-0.03928046673536301
1696961689741564700,12.020564697265625,0.07975932210683823,-0.01384802907705307,-0.031823836266994476
1696961689751578400,12.030578369140626,0.07656362652778625,-0.02556559257209301,-0.030758604407310486
1696961689761591800,12.040591796875,0.07762885838747025,0.05432688444852829,0.024633513763546944
1696961689771605200,12.050605224609376,0.08082455396652222,-0.02556559257209301,-0.08934641629457474
1696961689781618700,12.06061865234375,0.08402025699615479,-0.0426093190908432,0.029959678649902344
1696961689791632100,12.070632080078125,0.07443315535783768,-0.004260932095348835,-0.08615072071552277
1696961689801645800,12.080645751953124,0.07017222791910172,0.0745663121342659,0.006524552125483751
1696961689811659300,12.0906591796875,0.07656362652778625,0.02769605815410614,0.0001331541279796511
1696961689821672700,12.100672607421876,0.0723026916384697,-0.02876129187643528,-0.052063263952732086
1696961689831686100,12.11068603515625,0.07656362652778625,-0.03302222490310669,0.031024912372231483
1696961689841699600,12.120699462890625,0.0723026916384697,0.0159784946590662,-0.035019535571336746
1696961689851713300,12.13071337890625,0.061650361865758896,0.04900071769952774,-0.013714875094592571
1696961689861726700,12.140726806640625,0.06697652488946915,0.02769605815410614,0.051264338195323944
1696961689871740200,12.150740234375,0.07656362652778625,-0.04687025398015976,-0.06591129302978516
1696961689881753600,12.160753662109375,0.06484606117010117,-0.0106523297727108,0.0555252730846405
1696961689891767000,12.17076708984375,0.06271559745073318,0.03728315606713295,-0.040345702320337296
1696961689901780700,12.18078076171875,0.06804175674915314,0.03408745676279068,0.041677240282297134
1696961689911794200,12.190794189453126,0.06378082931041718,0.0010652330238372087,-0.031823836266994476
1696961689921807600,12.2008076171875,0.07017222791910172,0.00852186419069767,0.060851436108350754
1696961689931821000,12.210821044921875,0.06378082931041718,0.04367455467581749,-0.044606633484363556
1696961689941834500,12.22083447265625,0.06591129302978516,0.01384802907705307,0.03848154470324516
