time,seconds_elapsed,z,y,x
1696961677885552400,0.164552490234375,0.13313770294189453,0.056157827377319336,0.2522425651550293
1696961677895566300,0.17456640625,-2.2167835235595703,-0.627631425857544,-0.20412635803222656
1696961677905582600,0.18458251953125,-0.4210624694824219,-0.3491082191467285,-0.16693294048309326
1696961677915601000,0.194600830078125,-1.878687858581543,-0.47510719299316406,-0.0518377423286438
1696961677925621000,0.20462109375,-0.07581710815429688,-0.20806169509887695,-0.2526506781578064
1696961677935642600,0.214642578125,-1.4084444046020508,-0.538973331451416,-0.18904846906661987
1696961677945665500,0.22466552734375,-0.6405620574951172,-0.29904866218566895,-0.003996908664703369
1696961677955688700,0.234688720703125,-0.17706966400146484,-0.22502732276916504,-0.028061985969543457
1696961677965712400,0.24471240234375,-1.7447576522827148,-0.5053491592407227,-0.3097848892211914
1696961677975732200,0.254732177734375,-0.314361572265625,-0.15843582153320312,-0.18213504552841187
1696961677985745700,0.26474560546875,-0.5780611038208008,-0.17070269584655762,-0.05771595239639282
1696961677995759000,0.274759033203125,-1.1179533004760742,-0.5173418521881104,-0.16027379035949707
1696961678005772500,0.2847724609375,-0.628117561340332,-0.002317667007446289,-0.337181031703949
1696961678015786000,0.294785888671875,-0.008885383605957031,-0.11851811408996582,-0.22631943225860596
1696961678025799400,0.30479931640625,-2.0336594581604004,-0.6721711158752441,-0.09327888488769531
1696961678035812600,0.3148125,1.2405567169189453,0.3777303695678711,-0.11984866857528687
1696961678045826000,0.324825927734375,-1.397749900817871,-0.1931920051574707,-0.5496029257774353
1696961678055839500,0.334839599609375,-0.3960752487182617,-0.46753787994384766,0.05795496702194214
1696961678065853000,0.34485302734375,0.1953420639038086,-0.13254761695861816,-0.3251779079437256
1696961678075866400,0.354866455078125,-0.9022350311279297,-0.5347135066986084,-0.49333620071411133
1696961678085879600,0.364879638671875,-0.2706184387207031,-0.4391646385192871,0.12224709987640381
1696961678095893000,0.37489306640625,0.18291282653808594,-0.06424665451049805,-0.04363769292831421
1696961678105906400,0.384906494140625,-0.8300409317016602,-0.25542736053466797,-0.48680102825164795
1696961678115920000,0.394919921875,0.16130447387695312,-0.27481770515441895,0.3011864423751831
1696961678125933000,0.40493310546875,0.2070159912109375,-0.10775637626647949,0.09041029214859009
1696961678135946500,0.414946533203125,-0.1112508773803711,-0.26763010025024414,-0.15010720491409302
1696961678145960000,0.4249599609375,-0.015514373779296875,-0.343294620513916,-0.46257179975509644
1696961678155973400,0.434973388671875,-0.1316061019897461,-0.39440131187438965,0.17574232816696167
1696961678165986800,0.44498681640625,0.4823904037475586,-0.1231224536895752,-0.3094310760498047
1696961678176000000,0.455,-0.7849998474121094,-0.5601961612701416,-0.5287626385688782
1696961678186013400,0.465013427734375,0.26134681701660156,-0.6557750701904297,0.26505446434020996
1696961678196027000,0.47502685546875,0.2369375228881836,0.08148908615112305,-0.4062473773956299
1696961678206040300,0.485040283203125,-0.3625955581665039,-0.5055184364318848,-0.27901196479797363
1696961678216053800,0.4950537109375,0.08535003662109375,0.03562283515930176,-0.041813552379608154
1696961678226067000,0.50506689453125,0.5007266998291016,-0.6378889083862305,-0.23807555437088013
1696961678236080400,0.515080322265625,-1.7395391464233398,-0.23038125038146973,-0.32679927349090576
1696961678246093800,0.52509375,1.1658649444580078,-0.5539095401763916,-0.2297077775001526
1696961678256107300,0.535107177734375,-1.609628677368164,-0.07181572914123535,-0.21389299631118774
1696961678266120400,0.545120361328125,0.45872020721435547,-0.10655403137207031,-0.28195005655288696
1696961678276134000,0.5551337890625,-1.693425178527832,-0.6578764915466309,-0.3702746033668518
1696961678286147300,0.565147216796875,0.18459510803222656,0.006055355072021484,0.06440919637680054
1696961678296160800,0.575160888671875,-0.2310009002685547,0.020328521728515625,-0.36592209339141846
1696961678306174200,0.58517431640625,-1.1715078353881836,-0.3737633228302002,-0.7250971794128418
1696961678316187400,0.5951875,-0.6884012222290039,-0.3150053024291992,-0.03532284498214722
1696961678326200800,0.605200927734375,-0.10180950164794922,-0.023184537887573242,-0.7045474052429199
1696961678336214300,0.61521435546875,-1.2619028091430664,-0.4079406261444092,-0.5961353778839111
1696961678346227700,0.625227783203125,-0.5100717544555664,-0.535987138748169,-0.30007636547088623
1696961678356241200,0.6352412109375,-0.39319801330566406,-0.2056140899658203,-1.0494669675827026
1696961678366254300,0.64525439453125,0.13130855560302734,-0.13155388832092285,-0.5994345545768738
1696961678376267800,0.655267822265625,-0.7515439987182617,-0.3776259422302246,0.013682246208190918
1696961678386281200,0.66528125,0.6121530532836914,-1.0526340007781982,-0.5760473012924194
1696961678396294700,0.675294677734375,-1.0562620162963867,0.08531475067138672,-0.436160683631897
1696961678406307800,0.685307861328125,0.5390377044677734,-0.48864197731018066,-0.19524413347244263
1696961678416321300,0.6953212890625,-0.1201791763305664,-0.31618785858154297,-0.2787058651447296
1696961678426334700,0.705334716796875,-0.37796974182128906,-0.8523495197296143,-0.028493821620941162
1696961678436348200,0.71534814453125,0.6695213317871094,-0.12085747718811035,-0.523824155330658
1696961678446361600,0.725361572265625,-0.5337047576904297,-0.9131994247436523,0.08369976282119751
1696961678456375000,0.735375,1.0725793838500977,-0.8294181823730469,-0.42145127058029175
1696961678466388500,0.745388427734375,-0.5843076705932617,-0.2745399475097656,-0.2618657648563385
1696961678476402000,0.75540185546875,0.41379356384277344,-0.675663948059082,-0.22028690576553345
1696961678486415400,0.765415283203125,1.1926259994506836,-1.1133172512054443,-0.2526609003543854
1696961678496428800,0.7754287109375,-1.5019311904907227,-0.550072193145752,-0.003382563591003418
1696961678506442200,0.785442138671875,0.7241678237915039,-0.8374309539794922,-0.34112316370010376
1696961678516455700,0.79545556640625,0.6201868057250977,-0.21402764320373535,-0.5119742155075073
1696961678526469000,0.80546923828125,-0.8578977584838867,-1.3215718269348145,-0.5896388292312622
1696961678536482600,0.815482666015625,-0.17537212371826172,-0.13072824478149414,-0.2998993992805481
1696961678546496000,0.82549609375,0.6684627532958984,-0.7627434730529785,-0.09678241610527039
1696961678556509400,0.835509521484375,-0.9949855804443359,-0.8760402202606201,-0.19930773973464966
1696961678566523000,0.84552294921875,1.0700912475585938,-0.6558070182800293,0.14579612016677856
1696961678576536300,0.855536376953125,-1.265054702758789,-0.5078706741333008,-0.02697506546974182
1696961678586549800,0.8655498046875,-0.26149654388427734,-0.7823171615600586,-0.3213738799095154
1696961678596563200,0.875563232421875,1.3126144409179688,-0.6212444305419922,-0.13950103521347046
1696961678606576600,0.88557666015625,-1.4091529846191406,-0.8674185276031494,-0.06362131237983704
1696961678616590000,0.895590087890625,0.6271934509277344,-0.5159542560577393,0.1522979736328125
1696961678626603500,0.905603515625,0.4978475570678711,-1.152790904045105,0.2733429968357086
1696961678636617000,0.915616943359375,-1.3592195510864258,-0.30559396743774414,-0.12114715576171875
1696961678646630400,0.92563037109375,1.6999759674072266,-0.8674964904785156,-0.8802865743637085
1696961678656643800,0.935643798828125,-2.1679768562316895,-0.9190068244934082,0.08908778429031372
1696961678666657300,0.9456572265625,1.0848188400268555,-1.0585988759994507,-0.40206998586654663
1696961678676670700,0.955670654296875,-0.92913818359375,-0.44206976890563965,0.2672055959701538
1696961678686684200,0.96568408203125,0.15968990325927734,-0.43651461601257324,-0.30797702074050903
1696961678696697600,0.975697509765625,0.04977989196777344,-1.316321611404419,-0.2857171297073364
1696961678706711000,0.9857109375,-1.3963594436645508,-0.4232916831970215,0.040254682302474976
1696961678716724500,0.995724365234375,0.5475301742553711,-0.9686869382858276,-0.3134651482105255
1696961678726738000,1.005738037109375,-1.2643003463745117,-0.5738234519958496,-0.07679763436317444
1696961678736751400,1.01575146484375,0.976527214050293,-1.2770588397979736,-0.13939911127090454
1696961678746764800,1.025764892578125,-1.1804571151733398,-0.7921724319458008,-0.13727301359176636
1696961678756778200,1.0357783203125,0.859501838684082,-0.8026983737945557,-0.2631623446941376
1696961678766791700,1.045791748046875,-0.21016883850097656,-0.8178253173828125,-0.19356928765773773
1696961678776805000,1.05580517578125,-0.9915666580200195,-0.824615478515625,-0.36319586634635925
1696961678786818600,1.065818603515625,0.8207645416259766,-0.6131153106689453,-0.3766016960144043
1696961678796832000,1.07583203125,-0.9186315536499023,-0.369861364364624,-0.3874281048774719
1696961678806845400,1.085845458984375,0.4653005599975586,-1.1984264850616455,-0.724967360496521
1696961678816859000,1.09585888671875,-0.20768070220947266,-0.8131394386291504,0.1617991328239441
1696961678826872300,1.105872314453125,0.6428871154785156,-0.47524499893188477,0.05428117513656616
1696961678836885800,1.1158857421875,0.8362874984741211,-0.7000882625579834,-0.14596515893936157
1696961678846899200,1.125899169921875,-0.6334123611450195,-0.5024936199188232,0.42614394426345825
1696961678856912600,1.13591259765625,1.7737159729003906,-0.748802900314331,-0.01782187819480896
1696961678866926000,1.145926025390625,-1.360560417175293,-0.14172887802124023,-0.510529637336731
1696961678876939500,1.155939453125,-0.6889448165893555,-0.4791405200958252,0.21762272715568542
1696961678886953000,1.165952880859375,1.6764850616455078,-0.6503136157989502,-0.5313843488693237
1696961678896966400,1.17596630859375,-1.8033337593078613,-0.3349781036376953,-0.30100271105766296
1696961678906979800,1.185979736328125,0.7230138778686523,-0.9531787633895874,-0.49543124437332153
1696961678916993300,1.1959931640625,0.4141387939453125,-0.10028195381164551,-0.6398112773895264
1696961678927006700,1.2060068359375,0.38583946228027344,-0.8034578561782837,-0.0194646418094635
1696961678937020200,1.216020263671875,0.8539943695068359,-0.5349740982055664,0.13017675280570984
1696961678947033600,1.22603369140625,0.3807544708251953,-0.6622977256774902,0.3070671558380127
1696961678957047000,1.236047119140625,0.46845531463623047,-0.3410370349884033,0.31455326080322266
1696961678967060500,1.246060546875,-0.3661823272705078,-0.17415094375610352,0.45043981075286865
1696961678977074000,1.256073974609375,0.4300804138183594,0.17427515983581543,0.392007440328598
1696961678987087400,1.26608740234375,0.3844451904296875,-0.31981849670410156,-0.08130383491516113
1696961678997100800,1.276100830078125,-0.28385448455810547,-0.37915706634521484,0.5707388520240784
1696961679007114200,1.2861142578125,0.5836009979248047,-0.3399937152862549,-0.28434473276138306
1696961679017127700,1.296127685546875,-0.2568998336791992,-0.29248476028442383,-0.43823620676994324
1696961679027141000,1.30614111328125,-0.3069190979003906,-0.30036211013793945,-0.19580818712711334
1696961679037154600,1.316154541015625,1.3021907806396484,-0.465423583984375,-0.10447028279304504
1696961679047168000,1.32616796875,-1.3067245483398438,0.08455705642700195,-0.8767590522766113
1696961679057181400,1.336181396484375,-0.6602144241333008,-0.18428254127502441,-0.20521852374076843
1696961679067195000,1.34619482421875,0.45841217041015625,-0.0677945613861084,0.06033158302307129
1696961679077208300,1.356208251953125,-1.7645573616027832,0.016638994216918945,0.28712764382362366
1696961679087221800,1.3662216796875,0.12629413604736328,-0.16747665405273438,-0.6232094764709473
1696961679097235200,1.376235107421875,-1.6326665878295898,0.32019639015197754,0.2112625539302826
1696961679107248600,1.38624853515625,0.39927005767822266,-0.10598230361938477,-0.10549396276473999
1696961679117262000,1.396261962890625,-0.97650146484375,-0.538336992263794,-0.5904935002326965
1696961679127275500,1.406275634765625,-0.16715049743652344,0.07001805305480957,-0.8737374544143677
1696961679137289000,1.4162890625,0.1589374542236328,-0.4871189594268799,-0.7496906518936157
1696961679147302400,1.426302490234375,-0.6562776565551758,0.5376253128051758,-0.6147890686988831
1696961679157315800,1.43631591796875,1.3419361114501953,-0.800995945930481,-0.787089467048645
1696961679167329300,1.446329345703125,-2.6960039138793945,0.14159035682678223,-0.6801105737686157
1696961679177342700,1.4563427734375,2.478743553161621,0.10486769676208496,-0.41226962208747864
1696961679187356200,1.466356201171875,-2.01315975189209,-0.40120959281921387,-0.45011216402053833
1696961679197369600,1.47636962890625,0.41127967834472656,-0.8302382230758667,-0.4336451292037964
1696961679207383000,1.486383056640625,-0.9122743606567383,0.36356496810913086,-0.3657313585281372
1696961679217396200,1.496396240234375,-0.8972625732421875,-0.13925719261169434,-0.16958767175674438
1696961679227409700,1.50640966796875,1.1928329467773438,-0.10537075996398926,-0.2096424549818039
1696961679237423000,1.516423095703125,-2.021458148956299,-0.35910844802856445,-0.47491955757141113
1696961679247436500,1.5264365234375,0.5318527221679688,0.13379478454589844,-0.7078503370285034
1696961679257450000,1.536449951171875,1.2568607330322266,-0.5071268081665039,-0.421247661113739
1696961679267463400,1.54646337890625,-0.4746818542480469,-0.858974814414978,-0.6226206421852112
1696961679277476900,1.556476806640625,0.3233175277709961,-0.09165143966674805,0.05291369557380676
1696961679287490300,1.566490234375,1.8486480712890625,-0.02467823028564453,-0.17621007561683655
1696961679297503700,1.576503662109375,-1.4708080291748047,-1.134534239768982,0.09943795204162598
1696961679307517200,1.58651708984375,0.8942508697509766,0.22151780128479004,-0.5144471526145935
1696961679317530600,1.596530517578125,-0.5150890350341797,-0.2916991710662842,-0.43094199895858765
1696961679327544000,1.6065439453125,-0.5791997909545898,-1.1048104763031006,0.07540997862815857
1696961679337557500,1.6165576171875,1.8049421310424805,0.5379581451416016,-0.18536493182182312
1696961679347571000,1.626571044921875,-0.39159202575683594,-0.8508208990097046,-0.1012570708990097
1696961679357584400,1.63658447265625,1.3237295150756836,-0.8898345232009888,-0.34839457273483276
1696961679367598000,1.64659814453125,0.8831548690795898,-0.602776288986206,-0.6228344440460205
1696961679377611500,1.656611572265625,-1.1842308044433594,-0.26897239685058594,-0.38027361035346985
1696961679387625000,1.666625,1.1556663513183594,-1.1466258764266968,-0.2696937322616577
1696961679397638400,1.676638427734375,0.044425010681152344,-0.7372726202011108,-0.3674643337726593
1696961679407651800,1.68665185546875,-0.7034540176391602,-0.5466275215148926,-0.4179380536079407
1696961679417665500,1.69666552734375,0.6385231018066406,-1.0328896045684814,-0.688420295715332
1696961679427679000,1.706678955078125,-1.2075529098510742,-0.23334097862243652,-0.622889518737793
1696961679437692400,1.7166923828125,2.1652116775512695,-0.07041668891906738,-0.1832570880651474
1696961679447705900,1.726705810546875,-1.7321863174438477,-1.2944822311401367,-0.613345742225647
1696961679457719300,1.73671923828125,0.16164493560791016,-1.168689250946045,-0.522501528263092
1696961679467732700,1.746732666015625,0.719508171081543,-0.5916082859039307,-0.9411544799804688
1696961679477746400,1.756746337890625,-0.9673643112182617,-0.6400208473205566,-1.0972384214401245
1696961679487760000,1.766759765625,1.1434078216552734,-1.4649289846420288,-0.9707328677177429
1696961679497773300,1.776773193359375,-1.3730144500732422,-0.18536853790283203,-0.5921650528907776
1696961679507786800,1.786786865234375,1.8963613510131836,-1.2753592729568481,-0.7246248722076416
1696961679517800200,1.79680029296875,-1.8809576034545898,-1.2345448732376099,-0.6359828114509583
1696961679527814000,1.80681396484375,0.8575925827026367,-0.7496002912521362,-0.5431531667709351
1696961679537827300,1.816827392578125,-0.5986948013305664,-0.45072293281555176,-0.7058960795402527
1696961679547840800,1.8268408203125,-0.6256103515625,-0.8226779699325562,-0.7030828595161438
1696961679557854200,1.836854248046875,0.7600717544555664,-0.5440564155578613,-0.6278769373893738
1696961679567867600,1.84686767578125,-0.9070501327514648,-0.9497559070587158,-0.5870476961135864
1696961679577881300,1.85688134765625,1.5075359344482422,-0.9834160804748535,-0.8573511242866516
1696961679587894800,1.866894775390625,0.6238231658935547,-0.18732190132141113,-1.0749733448028564
1696961679597908200,1.876908203125,0.2003021240234375,-1.0835649967193604,-0.41914141178131104
1696961679607921700,1.886921630859375,0.5093441009521484,-1.2461918592453003,-0.5434881448745728
1696961679617935000,1.89693505859375,0.044182777404785156,-0.41933178901672363,-0.3328168988227844
1696961679627948800,1.90694873046875,0.17813777923583984,-0.06732511520385742,-0.6220834255218506
1696961679637962200,1.916962158203125,-0.5381250381469727,-1.0561310052871704,-0.6597851514816284
1696961679647975700,1.9269755859375,0.09906768798828125,-0.5471868515014648,-0.41009432077407837
1696961679657989000,1.936989013671875,-0.22037220001220703,-0.4981541633605957,-0.8720457553863525
1696961679668002600,1.94700244140625,-1.1245622634887695,-0.4098386764526367,-0.6297739744186401
1696961679678016300,1.957016357421875,1.3880996704101562,-0.7984472513198853,-0.8665368556976318
1696961679688029700,1.96702978515625,-0.9675741195678711,-0.17435669898986816,-1.463565707206726
1696961679698043100,1.977043212890625,-1.3916292190551758,-0.9969178438186646,-1.0908211469650269
1696961679708056600,1.987056640625,0.3363199234008789,-0.3438699245452881,-0.9523298740386963
1696961679718070000,1.997070068359375,0.016248703002929688,-0.21213817596435547,-0.6748086810112
1696961679728083700,2.007083740234375,-0.5893774032592773,-0.45787787437438965,-0.3676147758960724
1696961679738097200,2.01709716796875,0.6102571487426758,-0.8280261754989624,-0.4935343861579895
1696961679748110600,2.027110595703125,-0.550135612487793,0.1448516845703125,-0.7949235439300537
1696961679758124000,2.0371240234375,-1.0819025039672852,-0.7539209127426147,-0.325593501329422
1696961679768137500,2.047137451171875,0.4491090774536133,-0.11687731742858887,-0.4906667172908783
1696961679778151000,2.05715087890625,-1.002049446105957,-0.47951292991638184,-0.9905472993850708
1696961679788164400,2.067164306640625,0.3129873275756836,-0.9125211238861084,-1.6397439241409302
1696961679798177800,2.077177734375,0.06376075744628906,-0.36040687561035156,-0.6862387657165527
1696961679808191200,2.087191162109375,-0.03219795227050781,-0.2668428421020508,-1.09877347946167
1696961679818204700,2.09720458984375,0.7443523406982422,-1.092708706855774,-1.0796828269958496
1696961679828218000,2.107218017578125,-0.5939455032348633,-0.7541637420654297,-0.2605488896369934
1696961679838231600,2.1172314453125,0.5147666931152344,-0.7114485502243042,-0.434047669172287
1696961679848245000,2.127244873046875,-0.8896617889404297,-0.32590508460998535,-1.4371399879455566
1696961679858258400,2.137258544921875,0.44446849822998047,-0.47540903091430664,-1.350155234336853
1696961679868271900,2.14727197265625,-1.0594329833984375,-0.04416346549987793,-0.5817181468009949
1696961679878285300,2.157285400390625,1.519230842590332,-1.6513761281967163,-1.010790467262268
1696961679888298800,2.167298828125,0.2157135009765625,-0.353961706161499,-1.2511812448501587
1696961679898312200,2.177312255859375,0.6865596771240234,-0.09404730796813965,-0.9280431270599365
1696961679908325600,2.18732568359375,0.7879037857055664,-1.7136539220809937,-0.9805312752723694
1696961679918339000,2.197339111328125,-0.27867698669433594,-0.4868009090423584,-0.8923718929290771
1696961679928352500,2.2073525390625,1.4627408981323242,0.4181694984436035,-0.7875716090202332
1696961679938366000,2.217365966796875,-0.7656497955322266,-1.1930376291275024,-0.628190815448761
1696961679948379400,2.22737939453125,1.4113845825195312,-0.5587886571884155,-0.3531566262245178
1696961679958392800,2.237392822265625,-0.9825763702392578,-0.44862842559814453,-1.4175223112106323
1696961679968406300,2.24740625,-0.3171367645263672,-0.5915957689285278,-1.496450662612915
1696961679978419700,2.257419677734375,0.6491489410400391,-0.3371238708496094,-1.3569570779800415
1696961679988433200,2.26743310546875,-0.6520843505859375,-0.4601767063140869,-1.550966739654541
1696961679998446600,2.277446533203125,-0.014591217041015625,-1.1647865772247314,-1.1063857078552246
1696961680008460000,2.2874599609375,-0.22930622100830078,-0.3242218494415283,-1.2324538230895996
1696961680018473500,2.297473388671875,-0.6668291091918945,-0.40471434593200684,-1.3894667625427246
1696961680028487000,2.30748681640625,0.43667030334472656,-0.5840495824813843,-1.257860779762268
1696961680038500400,2.317500244140625,-0.8234176635742188,-0.25153231620788574,-0.8978732228279114
1696961680048513800,2.327513671875,-0.33480262756347656,-0.6497495174407959,-1.1559669971466064
1696961680058527200,2.33752734375,0.22970867156982422,-0.9529259204864502,-1.1783690452575684
1696961680068540700,2.347540771484375,-0.9977245330810547,0.03137373924255371,-0.787887454032898
1696961680078554000,2.35755419921875,2.6356258392333984,-0.3752634525299072,-1.6558345556259155
1696961680088567600,2.367567626953125,-1.6110782623291016,-1.1534912586212158,-1.5566198825836182
1696961680098581000,2.3775810546875,0.4121055603027344,-0.29790735244750977,-0.2648371458053589
1696961680108594400,2.387594482421875,0.8593692779541016,-1.000396490097046,-1.2447017431259155
1696961680118608000,2.39760791015625,-1.072342872619629,-1.155104398727417,-1.31053626537323
1696961680128621300,2.407621337890625,0.3586883544921875,0.3474276065826416,-0.7199414968490601
1696961680138634800,2.417634765625,0.8865795135498047,-0.8939896821975708,-1.2194291353225708
1696961680148648200,2.427648193359375,-1.9745779037475586,-0.7955179214477539,-0.6476075053215027
1696961680158661600,2.43766162109375,1.4824867248535156,0.08280396461486816,-0.8575252294540405
1696961680168675000,2.447675048828125,-0.8891706466674805,-0.903835654258728,-0.8706640005111694
1696961680178688500,2.4576884765625,0.3350820541381836,-0.7250412702560425,-1.4320974349975586
1696961680188702200,2.4677021484375,0.10613250732421875,-0.22685647010803223,-1.0644376277923584
1696961680198715600,2.477715576171875,-1.0877599716186523,-0.6525813341140747,-0.5245232582092285
1696961680208729000,2.48772900390625,0.6969175338745117,-0.4803105592727661,-0.2940230965614319
1696961680218742500,2.497742431640625,-0.11702728271484375,0.2992274761199951,-0.23295655846595764
1696961680228756000,2.507755859375,0.17020034790039062,-0.6867655515670776,-0.6450656056404114
1696961680238769400,2.517769287109375,-1.0281972885131836,-0.0776219367980957,-0.3593674302101135
1696961680248783000,2.527783203125,0.9325370788574219,-0.4600785970687866,-0.5038058757781982
1696961680258796500,2.537796630859375,-1.828751564025879,-1.2519499063491821,-0.6143407225608826
1696961680268810000,2.54781005859375,0.6972742080688477,0.3546299934387207,-1.2597723007202148
1696961680278823400,2.557823486328125,0.22805500030517578,-0.13836932182312012,-0.5816692113876343
1696961680288836900,2.5678369140625,-1.5440969467163086,-0.4681786298751831,-0.23998428881168365
1696961680298850600,2.5778505859375,1.3206720352172852,-0.8014854192733765,-0.33949774503707886
1696961680308864000,2.587864013671875,-1.089634895324707,0.38997888565063477,-0.3714192807674408
1696961680318877400,2.59787744140625,1.2383460998535156,-0.5696226358413696,-0.5042006373405457
1696961680328891000,2.607890869140625,-0.775334358215332,-0.339252233505249,-0.630946159362793
1696961680338904300,2.617904296875,-0.7915458679199219,-0.2942616939544678,-0.5191596150398254
1696961680348918000,2.62791796875,-0.1304912567138672,-0.7296922206878662,0.18560649454593658
1696961680358931500,2.637931396484375,0.24240779876708984,0.2556302547454834,-0.3363337218761444
1696961680368945000,2.64794482421875,0.31728267669677734,-0.0772714614868164,-0.5732219815254211
1696961680378958300,2.657958251953125,-0.6146068572998047,-0.3965134620666504,-0.09130275249481201
1696961680388971800,2.6679716796875,0.24124813079833984,-0.6017826795578003,0.17776469886302948
1696961680398985500,2.6779853515625,-0.5945253372192383,-0.31453943252563477,-0.801836371421814
1696961680408999000,2.6879990234375,-0.5215930938720703,-0.6674813032150269,0.0919744223356247
1696961680419012400,2.698012451171875,0.45882606506347656,0.14156079292297363,-0.31843048334121704
1696961680429025800,2.70802587890625,-0.9697980880737305,-0.5660444498062134,-0.487319678068161
1696961680439039200,2.718039306640625,-0.7381610870361328,-1.0508743524551392,-0.22533687949180603
1696961680449053000,2.728052978515625,1.1409063339233398,0.144181489944458,-0.6400122046470642
1696961680459066400,2.73806640625,-0.08089160919189453,0.1357567310333252,-1.0495024919509888
1696961680469079800,2.748079833984375,0.4154548645019531,-1.0755329132080078,0.36016613245010376
1696961680479093200,2.75809326171875,1.0536766052246094,0.04003119468688965,0.7324097752571106
1696961680489106700,2.768106689453125,-0.23407459259033203,-0.43322956562042236,0.2997609078884125
1696961680499120400,2.778120361328125,1.4936294555664062,-0.3269321918487549,0.9181665182113647
1696961680509133800,2.7881337890625,1.689779281616211,-0.1252453327178955,0.3263514041900635
1696961680519147300,2.798147216796875,-0.7129859924316406,-0.3191068172454834,0.22867527604103088
1696961680529160700,2.80816064453125,0.788238525390625,-0.5555293560028076,0.672400176525116
1696961680539174100,2.818174072265625,0.1655559539794922,-0.12214231491088867,0.16844189167022705
1696961680549187600,2.8281875,-0.03597450256347656,-0.5209811925888062,-0.5354032516479492
1696961680559201300,2.838201171875,-0.18353557586669922,-0.653731107711792,0.31887346506118774
1696961680569214700,2.848214599609375,1.0201759338378906,0.279343843460083,0.4546894133090973
1696961680579228200,2.858228271484375,-0.10950469970703125,-0.912725567817688,-0.1623290479183197
1696961680589241600,2.86824169921875,-0.39101505279541016,-0.2638072967529297,0.5447890758514404
1696961680599255000,2.878255126953125,1.1769323348999023,-0.15577912330627441,0.2973136901855469
1696961680609268700,2.888268798828125,-0.6074714660644531,-0.3623945713043213,0.05883205682039261
1696961680619282200,2.8982822265625,-1.0016803741455078,-0.7661188840866089,0.5675238370895386
1696961680629295600,2.908295654296875,1.1698017120361328,0.2514610290527344,0.20817077159881592
1696961680639309000,2.91830908203125,-0.09926033020019531,-0.017637014389038086,-0.31575044989585876
1696961680649322500,2.928322509765625,0.14457035064697266,-0.8051465749740601,-0.32787784934043884
1696961680659336200,2.938336181640625,-1.0343284606933594,-0.170485258102417,0.3690793514251709
1696961680669349600,2.948349609375,0.8499250411987305,-0.3877047300338745,0.11686889082193375
1696961680679363000,2.958363037109375,-0.7802886962890625,-0.814396858215332,0.20602810382843018
1696961680689376500,2.96837646484375,-0.15213489532470703,0.08626914024353027,0.05616265535354614
1696961680699390000,2.978389892578125,0.14009380340576172,-0.5269483327865601,-0.11292838305234909
1696961680709403600,2.988403564453125,-2.2424745559692383,-0.48333704471588135,0.5247082710266113
1696961680719417000,2.9984169921875,1.7134895324707031,-0.17005133628845215,-0.08188534528017044
1696961680729430500,3.008430419921875,-0.7021465301513672,-0.41856205463409424,-0.1783008724451065
1696961680739444000,3.01844384765625,0.10150337219238281,-0.3414621353149414,0.5595614910125732
1696961680749457400,3.02845751953125,0.5661001205444336,-0.23740315437316895,1.0768314599990845
1696961680759471000,3.03847119140625,-0.32451629638671875,-0.6399494409561157,0.8285212516784668
1696961680769484500,3.048484619140625,0.31778621673583984,-0.30926084518432617,0.9460462331771851
1696961680779498000,3.058498046875,-0.0034427642822265625,0.19918322563171387,1.2255609035491943
1696961680789511400,3.068511474609375,1.09130859375,-0.6903573274612427,0.7004671692848206
1696961680799524900,3.07852490234375,-2.4455504417419434,-0.22598648071289062,0.6695736050605774
1696961680809538600,3.08853857421875,1.2204256057739258,-0.07800650596618652,0.16741901636123657
1696961680819552000,3.098552001953125,-1.2227935791015625,-0.10072922706604004,0.2371903508901596
1696961680829565400,3.1085654296875,-0.4074363708496094,-0.40373075008392334,0.9610183238983154
1696961680839579000,3.118578857421875,0.6547708511352539,-0.18123221397399902,0.07609771192073822
1696961680849592300,3.12859228515625,-1.7063007354736328,-0.4482384920120239,0.20943878591060638
1696961680859605800,3.138605712890625,1.3118839263916016,-0.7111022472381592,1.0744973421096802
1696961680869619500,3.148619384765625,-0.3813619613647461,0.311767578125,0.34096747636795044
1696961680879633000,3.1586328125,-0.2334156036376953,-0.19477081298828125,0.3154037296772003
1696961680889646300,3.168646240234375,0.38891029357910156,-0.602607250213623,0.9477684497833252
1696961680899659800,3.17865966796875,-0.5153379440307617,-0.13103103637695312,0.16736215353012085
1696961680909673200,3.188673095703125,0.9282083511352539,0.22867059707641602,0.3795168995857239
1696961680919687000,3.19868701171875,-0.26389312744140625,-0.8603917360305786,0.7258572578430176
1696961680929700400,3.208700439453125,0.8110036849975586,-0.2972736358642578,0.19672618806362152
1696961680939713800,3.2187138671875,-0.49987125396728516,-0.04893827438354492,0.6012424230575562
1696961680949727200,3.228727294921875,1.4158716201782227,-0.33602380752563477,0.5956453084945679
1696961680959740700,3.23874072265625,-0.7559432983398438,-0.3100268840789795,0.5713716149330139
1696961680969754400,3.24875439453125,-0.5635442733764648,-0.7632644176483154,0.44906896352767944
1696961680979767800,3.258767822265625,0.5607509613037109,-0.40364348888397217,0.005624145269393921
1696961680989781200,3.26878125,0.057204246520996094,0.30585789680480957,0.1286258101463318
1696961680999794700,3.278794677734375,0.15277481079101562,-0.6939382553100586,0.7078397274017334
1696961681009808100,3.28880810546875,-0.6790637969970703,-0.656651496887207,0.8503013253211975
1696961681019821800,3.29882177734375,0.5600051879882812,-0.11487746238708496,0.7774732708930969
1696961681029835300,3.308835205078125,-0.33023643493652344,-0.08511590957641602,1.0267540216445923
1696961681039848700,3.3188486328125,1.4661588668823242,-0.7898576259613037,0.48902592062950134
1696961681049862100,3.328862060546875,-1.5800399780273438,0.21719884872436523,0.4877398610115051
1696961681059875600,3.33887548828125,0.792363166809082,-0.3312344551086426,0.3884224593639374
1696961681069889300,3.34888916015625,-0.3794698715209961,-0.7827655076980591,0.33804166316986084
1696961681079902700,3.35890283203125,-0.9048528671264648,0.03695416450500488,1.2286893129348755
1696961681089916200,3.368916259765625,1.5819034576416016,-0.5043164491653442,0.5396491885185242
1696961681099929600,3.3789296875,-2.5455479621887207,-0.3140280246734619,0.60933518409729
1696961681109943000,3.388943115234375,2.0370941162109375,-0.485904335975647,0.7545957565307617
1696961681119956700,3.398956787109375,-1.9136195182800293,0.15710878372192383,0.593134880065918
1696961681129970200,3.40897021484375,0.41153812408447266,-1.0962787866592407,0.6122556328773499
1696961681139983600,3.418983642578125,-1.050328254699707,-0.26128053665161133,0.4766312837600708
1696961681149997000,3.4289970703125,0.49399280548095703,-0.201096773147583,0.2802845239639282
1696961681160010500,3.439010498046875,-0.5340890884399414,-0.6989089250564575,0.6430188417434692
1696961681170024000,3.44902392578125,0.17806339263916016,-0.5342773199081421,0.20111006498336792
1696961681180037600,3.45903759765625,0.4981355667114258,-0.2536354064941406,-0.1488918662071228
1696961681190051000,3.469051025390625,-1.7876405715942383,-0.988561749458313,0.5433974266052246
1696961681200064500,3.479064453125,1.8576507568359375,-0.22145605087280273,0.40188106894493103
1696961681210078000,3.489077880859375,-1.4149808883666992,-0.059418678283691406,0.26784130930900574
1696961681220091400,3.49909130859375,0.3078756332397461,-0.804705023765564,0.4355379641056061
1696961681230105000,3.50910498046875,0.12113094329833984,-0.703991174697876,-0.01441618800163269
1696961681240118500,3.519118408203125,-0.45772361755371094,0.1123964786529541,0.6286147832870483
1696961681250132000,3.529132080078125,1.597269058227539,-0.8887559175491333,0.9103827476501465
1696961681260145400,3.5391455078125,0.48476696014404297,-0.31500399112701416,0.7913620471954346
1696961681270158800,3.549158935546875,0.41138553619384766,-0.9766092300415039,1.1224089860916138
1696961681280172500,3.559172607421875,1.3031511306762695,-0.5283252000808716,0.6545885801315308
1696961681290186000,3.56918603515625,-0.41986942291259766,-0.3623141050338745,0.13630837202072144
1696961681300199400,3.579199462890625,-0.19015026092529297,-0.7924408912658691,0.3585279583930969
1696961681310212900,3.589212890625,-0.3803882598876953,-0.4525645971298218,0.1110893189907074
1696961681320226300,3.599226318359375,-0.5947818756103516,-0.4014776945114136,0.36451345682144165
1696961681330240000,3.609239990234375,0.13744068145751953,-1.0716018676757812,0.8455442190170288
1696961681340253400,3.61925341796875,-0.5315055847167969,-0.29101693630218506,0.7091278433799744
1696961681350267000,3.629266845703125,0.7587432861328125,-1.1403590440750122,0.6255017518997192
1696961681360280300,3.6392802734375,-0.26030731201171875,-0.5331151485443115,0.8177939653396606
1696961681370293800,3.649293701171875,0.30786800384521484,-0.7276061773300171,0.45195889472961426
1696961681380307200,3.65930712890625,-0.7388200759887695,-0.8089766502380371,0.3472033143043518
1696961681390320600,3.669320556640625,-0.8049068450927734,-0.552473783493042,0.5580074787139893
1696961681400334000,3.679333984375,0.028723716735839844,-1.043294072151184,1.1624293327331543
1696961681410347500,3.689347412109375,-0.8945951461791992,-0.3285461664199829,0.978912353515625
1696961681420361000,3.69936083984375,0.7510194778442383,-1.1578892469406128,0.3166741132736206
1696961681430374400,3.70937451171875,-1.029158592224121,-0.9361709356307983,0.6539106965065002
1696961681440387800,3.719387939453125,1.0275211334228516,-1.0168968439102173,0.42199739813804626
1696961681450401300,3.7294013671875,-0.1701812744140625,-0.4487506151199341,0.518464207649231
1696961681460414700,3.739414794921875,-0.8437967300415039,-1.5302096605300903,0.32486915588378906
1696961681470428200,3.74942822265625,0.15164756774902344,-1.0022491216659546,0.9250743389129639
1696961681480441600,3.759441650390625,-0.06398391723632812,-0.8171324729919434,0.8085731267929077
1696961681490455000,3.769455078125,0.8816308975219727,-1.1852216720581055,0.6455918550491333
1696961681500468500,3.779468505859375,-0.19085216522216797,-0.9482986927032471,0.6604523658752441
1696961681510482000,3.78948193359375,0.5689315795898438,-0.9147197008132935,1.0953236818313599
1696961681520495400,3.799495361328125,1.0642690658569336,-0.8214026689529419,0.6634417772293091
1696961681530508800,3.8095087890625,-0.26677608489990234,-1.0874162912368774,0.10805574059486389
1696961681540522200,3.819522216796875,-0.4909095764160156,-1.0060224533081055,0.7424768209457397
1696961681550535700,3.82953564453125,1.8849372863769531,-0.8967165946960449,1.1574581861495972
1696961681560549000,3.839549072265625,-0.9433631896972656,-1.1838458776474,0.8103450536727905
1696961681570562600,3.8495625,0.4680137634277344,-0.5319967269897461,1.3257768154144287
1696961681580576000,3.859575927734375,0.037395477294921875,-1.1112960577011108,1.3865779638290405
1696961681590589400,3.86958935546875,-1.1672658920288086,-1.010941505432129,0.9817872047424316
1696961681600603000,3.879602783203125,1.0953912734985352,-0.9965575933456421,0.6853238940238953
1696961681610616300,3.8896162109375,-1.0569515228271484,-0.891997218132019,0.7623013854026794
1696961681620629800,3.899629638671875,-0.4437894821166992,-0.9841426610946655,0.7201124429702759
1696961681630643200,3.909643310546875,0.6376304626464844,-0.8447555303573608,0.8106383085250854
1696961681640656600,3.91965673828125,-1.2091484069824219,-0.9728660583496094,1.0720592737197876
1696961681650670000,3.929670166015625,0.8626441955566406,-0.6388159990310669,1.2901363372802734
1696961681660683500,3.93968359375,-1.3714799880981445,-0.9604878425598145,0.9748824238777161
1696961681670697000,3.949697021484375,0.6717987060546875,-1.5327702760696411,0.985480785369873
1696961681680710400,3.95971044921875,-0.15689468383789062,-0.8775559663772583,0.8958718180656433
1696961681690723800,3.969723876953125,0.3209552764892578,-1.4371966123580933,0.8213682174682617
1696961681700737300,3.9797373046875,-0.0670938491821289,-0.9213398694992065,0.5173483490943909
1696961681710750700,3.989750732421875,0.6828374862670898,-1.2274065017700195,0.4781457781791687
1696961681720764200,3.99976416015625,-1.2535896301269531,-1.0972836017608643,1.2591251134872437
1696961681730777900,4.00977783203125,1.663334846496582,-0.9351879358291626,1.373334288597107
1696961681740791300,4.019791259765625,0.07396411895751953,-1.4124183654785156,1.413112759590149
1696961681750804700,4.0298046875,-0.28557491302490234,-0.7061103582382202,1.1812090873718262
1696961681760818200,4.039818115234375,2.176629066467285,-1.2082240581512451,1.041771411895752
1696961681770831600,4.04983154296875,-2.1245546340942383,-0.9491153955459595,0.9320183992385864
1696961681780845300,4.05984521484375,2.0181093215942383,-0.9606717824935913,0.9748371839523315
1696961681790858800,4.069858642578125,-0.27939701080322266,-0.8978852033615112,1.2297942638397217
1696961681800872200,4.0798720703125,0.34136104583740234,-1.4015105962753296,1.00728440284729
1696961681810885600,4.0898857421875,-1.0967607498168945,-0.9927507638931274,1.3497587442398071
1696961681820899000,4.099899169921875,0.8114662170410156,-0.6543296575546265,1.398646593093872
1696961681830912800,4.109912841796875,-0.011339187622070312,-1.376002311706543,0.7829581499099731
1696961681840926200,4.11992626953125,-0.9871606826782227,-0.7320927381515503,0.8262514472007751
1696961681850939600,4.129939697265625,1.5629053115844727,-1.339542269706726,0.6544783115386963
1696961681860953000,4.139953125,-1.5568742752075195,-0.5278947353363037,0.8833919763565063
1696961681870966500,4.149966552734375,2.8716964721679688,-1.508975863456726,0.39842432737350464
1696961681880980200,4.159980224609375,-2.978738307952881,-0.507023811340332,1.3041291236877441
1696961681890993700,4.16999365234375,3.2060155868530273,-0.5779684782028198,1.2620906829833984
1696961681901007000,4.180007080078125,-1.8321118354797363,-1.404317021369934,1.103793978691101
1696961681911020500,4.1900205078125,0.1729602813720703,-1.019015908241272,0.8135391473770142
1696961681921034000,4.200033935546875,0.7046298980712891,-1.1146866083145142,0.9203637838363647
1696961681931047400,4.21004736328125,0.41045665740966797,-0.46306312084198,0.09362393617630005
1696961681941061000,4.22006103515625,-0.10555744171142578,-1.6569989919662476,0.36958497762680054
1696961681951074600,4.230074462890625,1.638803482055664,-0.3847935199737549,0.5334240198135376
1696961681961088000,4.240087890625,-0.7434892654418945,-1.3900346755981445,1.307789921760559
1696961681971101400,4.250101318359375,0.7298316955566406,-0.06927835941314697,1.783255934715271
1696961681981115000,4.260114990234375,0.5335283279418945,-1.0558439493179321,1.78931725025177
1696961681991128600,4.270128662109375,-0.715057373046875,-0.4999382495880127,1.1240675449371338
1696961682001142000,4.28014208984375,0.9308414459228516,-0.7962851524353027,0.502770185470581
1696961682011155500,4.290155517578125,-0.21251487731933594,-0.7234338521957397,0.9039938449859619
1696961682021169000,4.3001689453125,0.1270151138305664,-0.2284315824508667,0.4115838408470154
1696961682031182300,4.310182373046875,0.5721826553344727,-1.2416061162948608,1.1106065511703491
1696961682041196000,4.320196044921875,-1.617630958557129,-0.18872129917144775,0.8392206430435181
1696961682051209500,4.33020947265625,0.12630176544189453,-1.0783268213272095,1.2703052759170532
1696961682061223000,4.340222900390625,-0.0077075958251953125,-0.1929105520248413,0.5730205774307251
1696961682071236400,4.350236328125,-1.6552801132202148,-0.8230347633361816,0.7496263980865479
1696961682081249800,4.360249755859375,1.3348093032836914,-0.3807879686355591,1.2403011322021484
1696961682091263500,4.370263427734375,0.01934337615966797,-0.471113920211792,0.36385899782180786
1696961682101277000,4.38027685546875,-0.23047542572021484,-0.9901093244552612,0.9188723564147949
1696961682111290400,4.390290283203125,1.0953655242919922,0.15828561782836914,1.423251986503601
1696961682121303800,4.4003037109375,-0.6846437454223633,-0.6851625442504883,1.7381489276885986
1696961682131317200,4.410317138671875,0.6640157699584961,-0.49551570415496826,1.1821386814117432
1696961682141331000,4.4203310546875,0.09493446350097656,-0.486832857131958,0.5570794939994812
1696961682151344400,4.430344482421875,-1.071742057800293,-1.2378922700881958,1.1867930889129639
1696961682161357800,4.44035791015625,1.9519472122192383,0.3619363307952881,0.5666018128395081
1696961682171371300,4.450371337890625,-0.1600637435913086,-0.7464781999588013,-0.06811299920082092
1696961682181384700,4.460384765625,-0.6753635406494141,-0.4727628231048584,1.0013391971588135
1696961682191398400,4.4703984375,1.4012441635131836,0.021419286727905273,1.2668875455856323
1696961682201411800,4.480411865234375,-1.6938519477844238,-1.0180109739303589,1.5761967897415161
1696961682211425300,4.49042529296875,1.5791425704956055,-0.2035435438156128,1.3747844696044922
1696961682221438700,4.500438720703125,-0.3018379211425781,-0.24226558208465576,1.2640697956085205
1696961682231452200,4.5104521484375,-0.048165321350097656,-0.36988162994384766,0.7293125987052917
1696961682241465600,4.520465576171875,1.1040458679199219,0.15314459800720215,-0.13908159732818604
1696961682251479300,4.530479248046875,0.026709556579589844,-0.8732876777648926,0.26805174350738525
1696961682261492700,4.54049267578125,-1.4019689559936523,-0.4176687002182007,1.05722975730896
1696961682271506200,4.550506103515625,1.4451227188110352,-0.4227973222732544,1.0967626571655273
1696961682281519600,4.56051953125,-1.009469985961914,0.062368154525756836,1.2964205741882324
1696961682291533000,4.570532958984375,1.6923913955688477,-0.8383054733276367,1.0436794757843018
1696961682301546800,4.580546630859375,-1.5316267013549805,0.054587364196777344,-0.09321337938308716
1696961682311560200,4.590560302734375,-0.4729127883911133,-0.6228904724121094,0.3793254494667053
1696961682321573600,4.60057373046875,1.6316967010498047,-0.04187774658203125,0.6574638485908508
1696961682331587000,4.610587158203125,-0.6086797714233398,-0.4024384021759033,0.42114701867103577
1696961682341600500,4.6206005859375,-0.4020271301269531,-0.6253049373626709,0.643916130065918
1696961682351614200,4.6306142578125,0.11503314971923828,0.06862521171569824,1.0237882137298584
1696961682361627600,4.640627685546875,-0.6641578674316406,-0.40708816051483154,0.2703106701374054
1696961682371641000,4.65064111328125,-0.6059494018554688,-1.1107310056686401,0.44627439975738525
1696961682381654500,4.660654541015625,2.0620479583740234,-0.09068548679351807,-0.0930185317993164
1696961682391668000,4.67066796875,-0.46563243865966797,0.10991835594177246,-1.0417842864990234
1696961682401681700,4.680681640625,0.2753562927246094,-0.7409871816635132,-0.2579852342605591
1696961682411695000,4.690695068359375,1.1837282180786133,-1.0453838109970093,-0.08872714638710022
1696961682421708500,4.70070849609375,-2.211977958679199,0.6760952472686768,0.24621912837028503
1696961682431722000,4.710721923828125,2.523578643798828,-0.8501451015472412,0.5448073148727417
1696961682441735400,4.7207353515625,-2.06394100189209,-0.7234576940536499,0.2028971016407013
1696961682451749000,4.7307490234375,1.2802343368530273,0.02597832679748535,0.4270291328430176
1696961682461762600,4.740762451171875,1.211277961730957,-0.20577800273895264,-0.7033929228782654
1696961682471776000,4.75077587890625,-1.1484308242797852,0.055036067962646484,-0.7460259795188904
1696961682481789400,4.76078955078125,1.7176294326782227,-0.3961918354034424,0.14095968008041382
1696961682491803000,4.770802978515625,-1.5311994552612305,-1.0001373291015625,0.01609724760055542
1696961682501816600,4.780816650390625,0.5696697235107422,-0.7746118307113647,0.04517006874084473
1696961682511830000,4.790830078125,0.6792535781860352,0.297579288482666,0.4033387303352356
1696961682521843500,4.800843505859375,-1.798107624053955,-0.30061280727386475,-0.26305893063545227
1696961682531857000,4.81085693359375,0.8195466995239258,-0.603184700012207,-0.8653537034988403
1696961682541870300,4.820870361328125,-1.594681739807129,0.2767906188964844,-0.585647702217102
1696961682551883800,4.8308837890625,1.0747852325439453,-0.5156204700469971,0.2622167766094208
1696961682561897500,4.8408974609375,0.1697378158569336,-0.17599093914031982,-0.4611327648162842
1696961682571911000,4.850910888671875,-0.6342391967773438,-0.5794695615768433,-0.1880490779876709
1696961682581924400,4.86092431640625,-0.07325077056884766,0.03290534019470215,-0.14190515875816345
1696961682591937800,4.870937744140625,0.6717147827148438,-0.9019515514373779,-0.3824664056301117
1696961682601951200,4.880951171875,-1.3893976211547852,-0.24238550662994385,-0.645253598690033
1696961682611965000,4.89096484375,1.8245172500610352,0.2594294548034668,-0.7791978120803833
1696961682621978400,4.900978271484375,-0.5972461700439453,-0.5344645977020264,-0.2645273506641388
1696961682631991800,4.91099169921875,-0.5776252746582031,-0.48629868030548096,-0.565732479095459
1696961682642005200,4.921005126953125,0.27952003479003906,-0.41066157817840576,-0.3448866307735443
1696961682652018700,4.931018798828125,-0.44793701171875,-0.42249178886413574,-0.3527332544326782
1696961682662032400,4.941032470703125,1.0966415405273438,-0.06307601928710938,-0.041855037212371826
1696961682672045800,4.9510458984375,0.33438968658447266,-0.5867688655853271,-0.3163991868495941
1696961682682059300,4.961059326171875,-0.6753568649291992,-0.49789273738861084,-0.8396310210227966
1696961682692072700,4.97107275390625,0.8701057434082031,-0.25489938259124756,-1.0025888681411743
1696961682702086100,4.981086181640625,-1.2491493225097656,0.7871251106262207,-0.3287137746810913
1696961682712099600,4.991099609375,1.7828950881958008,-1.5913798809051514,-0.7853430509567261
1696961682722113000,5.001113037109375,-2.6121902465820312,-0.3511357307434082,-0.5226863622665405
1696961682732126500,5.01112646484375,3.6477279663085938,0.2997913360595703,-0.8639293909072876
1696961682742140000,5.021139892578125,-1.2241935729980469,-0.6056016683578491,-1.0769498348236084
1696961682752153300,5.0311533203125,-0.3533496856689453,-0.4996161460876465,-1.2964627742767334
1696961682762166800,5.041166748046875,-0.04559803009033203,0.20351791381835938,-0.8156417608261108
1696961682772180200,5.05118017578125,-0.1660003662109375,-1.0490574836730957,-0.975776195526123
1696961682782193700,5.061193603515625,-0.3181190490722656,-0.6951839923858643,-0.6828490495681763
1696961682792207000,5.07120703125,1.6511421203613281,0.4796299934387207,0.21720972657203674
1696961682802220500,5.081220458984375,1.2217483520507812,-0.546061635017395,-1.5890405178070068
1696961682812234000,5.09123388671875,-0.8888988494873047,-0.3260159492492676,-2.0524659156799316
1696961682822247400,5.101247314453125,0.044780731201171875,-0.2078326940536499,-0.9383194446563721
1696961682832260900,5.1112607421875,0.43221187591552734,-0.7166773080825806,-1.0166527032852173
1696961682842274300,5.1212744140625,-1.2657785415649414,-0.828449010848999,-1.0906574726104736
1696961682852287700,5.131287841796875,1.8916635513305664,0.21887803077697754,-1.2405728101730347
1696961682862301200,5.14130126953125,-0.8081398010253906,-0.7342389822006226,-1.2637583017349243
1696961682872314600,5.151314697265625,1.8792381286621094,-0.5350152254104614,-1.6621286869049072
1696961682882328000,5.161328125,-0.5950117111206055,-0.429516077041626,-1.158981204032898
1696961682892341500,5.171341552734375,-0.11126232147216797,-0.3170804977416992,-1.538770318031311
1696961682902355000,5.18135498046875,0.6446218490600586,-0.6824690103530884,-1.4728838205337524
1696961682912368400,5.191368408203125,-0.24043941497802734,0.10947513580322266,-0.9246009588241577
1696961682922381800,5.2013818359375,-0.08699607849121094,-0.35434460639953613,-1.3725831508636475
1696961682932395300,5.211395263671875,1.2612171173095703,-0.6802613735198975,-1.2655470371246338
1696961682942408700,5.22140869140625,-0.6527462005615234,-0.2377011775970459,-0.8377673625946045
1696961682952422100,5.231422119140625,1.1601572036743164,-0.42917966842651367,-1.6785774230957031
1696961682962435600,5.241435546875,-1.2411432266235352,0.0416254997253418,-1.5221351385116577
1696961682972449000,5.251448974609375,1.5864810943603516,-0.39407050609588623,-0.9110235571861267
1696961682982462500,5.26146240234375,-1.250631332397461,-0.19637978076934814,-0.7661287784576416
1696961682992476000,5.271475830078125,1.2946233749389648,-0.6921826601028442,-1.325203537940979
1696961683002489300,5.2814892578125,-1.7992520332336426,-0.5105664730072021,-1.0617085695266724
1696961683012502800,5.291502685546875,0.7473068237304688,0.4335904121398926,-1.137103796005249
1696961683022516200,5.30151611328125,0.6361551284790039,-0.5841608047485352,-2.2633450031280518
1696961683032529700,5.31152978515625,-1.5391654968261719,-0.17533671855926514,-2.352473497390747
1696961683042543400,5.32154345703125,0.9492053985595703,-0.3439878225326538,-0.7955154776573181
1696961683052556800,5.331556884765625,0.15543079376220703,-0.6244232654571533,-0.8452346920967102
1696961683062570200,5.3415703125,-1.4896306991577148,0.36444926261901855,-1.6102224588394165
1696961683072583700,5.351583740234375,1.7502708435058594,-0.6484735012054443,-1.2924171686172485
1696961683082597000,5.36159716796875,-1.947464942932129,-0.17251217365264893,-1.6015645265579224
1696961683092610800,5.37161083984375,1.4210624694824219,-0.25009047985076904,-2.473205089569092
1696961683102624300,5.381624267578125,-0.8794097900390625,0.21546220779418945,-1.9743374586105347
1696961683112637700,5.3916376953125,-0.35727405548095703,-0.4394911527633667,-0.3234909176826477
1696961683122651100,5.401651123046875,1.4464693069458008,-0.5728367567062378,-0.4995918273925781
1696961683132664600,5.41166455078125,-1.9022350311279297,0.4883289337158203,-1.6299396753311157
1696961683142678300,5.42167822265625,1.9490623474121094,-0.021639585494995117,-1.2940694093704224
1696961683152691700,5.431691650390625,-1.5096817016601562,-0.7871721982955933,-0.7735073566436768
1696961683162705200,5.441705078125,0.4857521057128906,0.12787222862243652,-2.126279592514038
1696961683172718600,5.451718505859375,-1.1871004104614258,0.4382514953613281,-1.6362916231155396
1696961683182732000,5.46173193359375,0.6546182632446289,-0.32159245014190674,-0.2688891291618347
1696961683192745700,5.471745849609375,-0.13958740234375,-0.2763698101043701,0.017551161348819733
1696961683202759200,5.48175927734375,-0.15935802459716797,0.15866541862487793,-1.197037935256958
1696961683212772600,5.491772705078125,-0.7848348617553711,-0.42547857761383057,-0.8947829604148865
1696961683222786000,5.5017861328125,0.29139041900634766,0.22081208229064941,-0.6867706179618835
1696961683232799500,5.511799560546875,1.1653375625610352,0.15720844268798828,-2.3106398582458496
1696961683242813200,5.521813232421875,-2.9957900047302246,-0.40484607219696045,-1.805877685546875
1696961683252826600,5.53182666015625,0.7668037414550781,-0.8566559553146362,0.4158765971660614
1696961683262840000,5.541840087890625,0.3591327667236328,0.3811814785003662,-0.12698709964752197
1696961683272853500,5.551853515625,0.26645851135253906,-0.6241313219070435,-1.2736263275146484
1696961683282867000,5.561866943359375,-0.9626350402832031,-0.5400063991546631,-0.7521218061447144
1696961683292880600,5.571880615234375,1.8306150436401367,0.13089489936828613,-1.4035910367965698
1696961683302894000,5.58189404296875,-1.6770429611206055,-0.027060747146606445,-2.6415884494781494
1696961683312907500,5.591907470703125,-0.49338340759277344,-0.28523731231689453,-0.8119372129440308
1696961683322921000,5.6019208984375,1.1758880615234375,-0.4138866662979126,0.3652789294719696
1696961683332934400,5.611934326171875,-0.8007221221923828,-0.3368191719055176,-0.700283944606781
1696961683342947800,5.62194775390625,0.648188591003418,0.10402631759643555,-1.195945143699646
1696961683352961500,5.63196142578125,0.36514949798583984,0.03934645652770996,-0.9380052089691162
1696961683362975000,5.64197509765625,-0.673487663269043,0.09030652046203613,-1.4486411809921265
1696961683372988400,5.651988525390625,0.4364480972290039,-0.7012040615081787,-1.9738836288452148
1696961683383001900,5.662001953125,-2.2454710006713867,0.4278378486633301,-0.11081424355506897
1696961683393015300,5.672015380859375,1.9213228225708008,-0.2597287893295288,0.1863524317741394
1696961683403029000,5.682029052734375,-0.8451194763183594,-0.5632706880569458,-0.6720480918884277
1696961683413042400,5.69204248046875,-0.4812440872192383,-0.1919029951095581,-0.9560976028442383
1696961683423056000,5.702055908203125,0.3804636001586914,0.3569908142089844,-0.7640842795372009
1696961683433069300,5.7120693359375,0.05359077453613281,-0.026611328125,-1.5044090747833252
1696961683443082800,5.722082763671875,-0.4869070053100586,-0.42169976234436035,-1.683087706565857
1696961683453096400,5.732096435546875,-1.718876838684082,0.005977153778076172,0.4176005423069
1696961683463110000,5.74210986328125,1.8636274337768555,-0.6283923387527466,0.11201100051403046
1696961683473123300,5.752123291015625,-2.0395584106445312,-0.7567826509475708,-1.2942941188812256
1696961683483136800,5.76213671875,0.9834098815917969,0.17455577850341797,-0.1674446314573288
1696961683493150200,5.772150146484375,2.163318634033203,0.02621769905090332,-1.2191675901412964
1696961683503164000,5.782163818359375,-3.181365489959717,-0.3891136646270752,-2.2348649501800537
1696961683513177300,5.79217724609375,0.8263063430786133,-0.3866593837738037,-0.8055204153060913
1696961683523190800,5.802190673828125,-0.9195928573608398,0.5919859409332275,-0.062183741480112076
1696961683533204200,5.812204345703125,-0.096099853515625,-0.8872181177139282,-0.15250113606452942
1696961683543217700,5.8222177734375,-0.2104320526123047,-0.3743206262588501,-0.8992432355880737
1696961683553231400,5.8322314453125,0.1241464614868164,0.45589613914489746,-0.007285557687282562
1696961683563244800,5.842244873046875,1.906620979309082,-0.04811584949493408,-1.230715274810791
1696961683573258200,5.85225830078125,-2.8485097885131836,-0.296350359916687,-1.6912758350372314
1696961683583271700,5.862271728515625,1.0524396896362305,0.17792105674743652,-0.3906925916671753
1696961683593285000,5.87228515625,-1.8788084983825684,-0.1514531373977661,0.8273579478263855
1696961683603298800,5.882298828125,0.9388790130615234,-0.6299396753311157,-0.47879558801651
1696961683613312300,5.892312255859375,-1.0552139282226562,0.274338960647583,-0.6759630441665649
1696961683623325700,5.90232568359375,0.33652400970458984,0.37720632553100586,-0.3273889720439911
1696961683633339100,5.912339111328125,0.4554624557495117,-0.39952516555786133,-1.4362518787384033
1696961683643352600,5.9223525390625,-0.9322681427001953,0.030039548873901367,-1.3824511766433716
1696961683653366000,5.932365966796875,-0.5479211807250977,-0.06371009349822998,0.5372139811515808
1696961683663379700,5.942379638671875,1.082533836364746,-0.4382592439651489,0.5020156502723694
1696961683673393200,5.95239306640625,-0.9845771789550781,-0.6673225164413452,-0.30128252506256104
1696961683683406600,5.962406494140625,1.1722517013549805,0.25191307067871094,-0.17141951620578766
1696961683693420000,5.972419921875,0.2909584045410156,-0.3219928741455078,-1.24435293674469
1696961683703433500,5.98243359375,-1.407212257385254,0.3569173812866211,-1.893108606338501
1696961683713447200,5.992447265625,0.36939334869384766,-0.48512256145477295,-0.3453463912010193
1696961683723460600,6.002460693359375,0.2871561050415039,-0.005025744438171387,1.0502020120620728
1696961683733474000,6.01247412109375,0.6355657577514648,-0.4315166473388672,0.7732395529747009
1696961683743487500,6.022487548828125,0.07449054718017578,-0.46239161491394043,-0.06143050268292427
1696961683753501000,6.0325009765625,-0.02065563201904297,0.9028300046920776,0.05711336433887482
1696961683763514600,6.0425146484375,2.4970884323120117,-0.6102932691574097,-1.0288000106811523
1696961683773528000,6.052528076171875,-2.9032340049743652,0.07246291637420654,-1.3899643421173096
1696961683783541500,6.06254150390625,1.126276969909668,0.14321649074554443,1.4741544723510742
1696961683793555000,6.072554931640625,1.3494281768798828,-0.5466556549072266,1.2476228475570679
1696961683803568400,6.082568359375,-0.48937034606933594,-0.35346531867980957,-0.06597296893596649
1696961683813582000,6.09258203125,0.1902332305908203,0.3322030305862427,0.10653676837682724
1696961683823595500,6.102595458984375,0.8071308135986328,-0.20295953750610352,-0.14467063546180725
1696961683833609000,6.11260888671875,-1.0211830139160156,-0.2517819404602051,-0.9662973880767822
1696961683843622400,6.122622314453125,1.070521354675293,0.3236501216888428,0.1953253448009491
1696961683853635800,6.1326357421875,-1.1543426513671875,0.16580665111541748,1.30402672290802
1696961683863649500,6.1426494140625,1.5631122589111328,-1.2406190633773804,0.27087515592575073
1696961683873663000,6.1526630859375,-1.876180648803711,-0.11781871318817139,0.6519206762313843
1696961683883676400,6.162676513671875,2.2525129318237305,-0.18285608291625977,0.1338600069284439
1696961683893689900,6.17268994140625,-0.22263431549072266,0.3560454845428467,-1.5797935724258423
1696961683903703300,6.182703369140625,-0.4134254455566406,-0.5850262641906738,-0.3821319341659546
1696961683913717000,6.192717041015625,-0.3299894332885742,0.19081425666809082,1.028090476989746
1696961683923730400,6.20273046875,0.6028337478637695,-0.3645164966583252,0.7391197681427002
1696961683933743900,6.212743896484375,0.11922740936279297,-0.18974518775939941,0.4004436135292053
1696961683943757300,6.22275732421875,-0.7881784439086914,-0.5703908205032349,1.106330394744873
1696961683953770800,6.232770751953125,1.908834457397461,1.0620050430297852,-0.08969877660274506
1696961683963784200,6.2427841796875,0.30455493927001953,-0.32439494132995605,-0.8580763339996338
1696961683973798000,6.2527978515625,-1.4168720245361328,0.4763832092285156,0.13301560282707214
1696961683983811300,6.262811279296875,0.5278692245483398,-0.799713134765625,1.4182476997375488
1696961683993824800,6.27282470703125,-1.174513816833496,-0.16833603382110596,0.6194146871566772
1696961684003838200,6.282838134765625,1.1797800064086914,-0.2066715955734253,0.7618155479431152
1696961684013851600,6.2928515625,-0.23662281036376953,0.4820537567138672,0.637847363948822
1696961684023865300,6.302865234375,0.5377378463745117,-0.19572913646697998,-0.09494243562221527
1696961684033878800,6.312878662109375,0.29366016387939453,-0.11926472187042236,-0.5476735234260559
1696961684043892200,6.322892333984375,-2.143979072570801,0.5494630336761475,1.1802352666854858
1696961684053905700,6.33290576171875,2.181438446044922,-0.6934424638748169,0.8583031892776489
1696961684063919000,6.342919189453125,-2.625516891479492,-0.49272823333740234,1.4915281534194946
1696961684073932800,6.352932861328125,1.5184259414672852,-0.1793142557144165,1.3439239263534546
1696961684083946200,6.3629462890625,0.6657228469848633,0.600543737411499,-0.6732170581817627
1696961684093959700,6.372959716796875,-1.6020240783691406,-0.6060646772384644,-0.7666423916816711
1696961684103973000,6.38297314453125,0.16133403778076172,0.26811647415161133,0.7076641917228699
1696961684113986600,6.392986572265625,-0.44557762145996094,0.0988922119140625,1.4064805507659912
1696961684124000300,6.403000244140625,0.16690349578857422,-0.40624165534973145,1.4836385250091553
1696961684134013700,6.413013671875,0.10488700866699219,-0.7753466367721558,1.486189603805542
1696961684144027100,6.423027099609375,-0.8703985214233398,0.4315187931060791,0.6453288793563843
1696961684154040600,6.43304052734375,1.8840551376342773,0.4270026683807373,-0.4499780535697937
1696961684164054000,6.443053955078125,-1.379044532775879,-0.5380051136016846,0.3136790692806244
1696961684174067700,6.453067626953125,-0.21523189544677734,0.37203311920166016,1.5848312377929688
1696961684184081200,6.4630810546875,0.7513608932495117,-0.2151336669921875,1.6992161273956299
1696961684194094600,6.473094482421875,-1.244053840637207,-0.17299377918243408,1.756876826286316
1696961684204108000,6.48310791015625,1.047983169555664,-0.788062334060669,0.920830488204956
1696961684214121500,6.49312158203125,0.5959339141845703,0.5808470249176025,-0.4465627074241638
1696961684224135000,6.503135009765625,-0.667353630065918,-0.3514019250869751,0.16308027505874634
1696961684234148400,6.5131484375,1.0448989868164062,-0.23328709602355957,1.0188261270523071
1696961684244161800,6.523161865234375,0.1013031005859375,0.09493827819824219,1.3973720073699951
1696961684254175200,6.53317529296875,-0.9650039672851562,-1.274760127067566,1.5863497257232666
1696961684264188700,6.543188720703125,-1.0483360290527344,-0.28780698776245117,1.1717637777328491
1696961684274202000,6.5532021484375,1.691847801208496,0.26993608474731445,-0.9306684732437134
1696961684284215600,6.563215576171875,-2.010162830352783,0.3361673355102539,-0.340950071811676
1696961684294229000,6.57322900390625,0.20636940002441406,-0.9420380592346191,1.0994160175323486
1696961684304242400,6.583242431640625,1.2251043319702148,-0.03693091869354248,2.0355782508850098
1696961684314256000,6.593255859375,0.1891155242919922,0.21504545211791992,2.0484719276428223
1696961684324269300,6.603269287109375,0.5330514907836914,-1.1156096458435059,1.2883509397506714
1696961684334282800,6.61328271484375,-0.9118051528930664,-0.4370884895324707,1.052141547203064
1696961684344296200,6.623296142578125,2.0676116943359375,0.6870951652526855,0.25133875012397766
1696961684354309600,6.6333095703125,-1.4543838500976562,-0.797987699508667,0.9738380908966064
1696961684364323000,6.643322998046875,0.4601001739501953,0.0018856525421142578,1.582007884979248
1696961684374336500,6.65333642578125,-0.14699268341064453,-0.15118658542633057,1.9135727882385254
1696961684384350000,6.663349853515625,-1.189326286315918,-0.9108972549438477,1.8640737533569336
1696961684394363400,6.67336328125,1.5471553802490234,-0.5890803337097168,0.8470773696899414
1696961684404376800,6.683376953125,-0.3634510040283203,0.3331797122955322,-0.041787415742874146
1696961684414390300,6.693390380859375,-1.1847105026245117,-0.8887858390808105,0.8630139827728271
1696961684424403700,6.70340380859375,0.6101722717285156,-0.44993674755096436,1.6592614650726318
1696961684434417200,6.713417236328125,0.4750642776489258,-0.10672342777252197,1.325549840927124
1696961684444430600,6.7234306640625,-1.6196680068969727,-1.6719050407409668,1.3298366069793701
1696961684454444000,6.733444091796875,-0.00511932373046875,-0.13790345191955566,1.2092695236206055
1696961684464457500,6.74345751953125,-0.5211448669433594,-0.5785268545150757,0.04002872109413147
1696961684474471000,6.753470947265625,-0.6256322860717773,-0.8269033432006836,0.21992206573486328
1696961684484484400,6.763484375,-1.1489763259887695,-0.32503223419189453,1.2086288928985596
1696961684494497800,6.773497802734375,1.1658878326416016,-0.8103604316711426,1.869170904159546
1696961684504511200,6.78351123046875,0.17438220977783203,-0.42003536224365234,1.355050802230835
1696961684514525000,6.79352490234375,0.3210887908935547,-1.0451865196228027,0.8608413338661194
1696961684524538400,6.803538330078125,-0.14296245574951172,-0.4646037817001343,0.8716591000556946
1696961684534551800,6.8135517578125,0.2677459716796875,-0.38340258598327637,1.1588447093963623
1696961684544565200,6.823565185546875,-0.2300882339477539,-1.3280621767044067,0.9223539233207703
1696961684554578700,6.83357861328125,-0.7031135559082031,-0.2512850761413574,1.3281981945037842
1696961684564592400,6.84359228515625,0.7559061050415039,-1.2758009433746338,1.722870945930481
1696961684574605800,6.853605712890625,0.14183712005615234,-0.5394272804260254,1.6340335607528687
1696961684584619300,6.863619384765625,0.9104557037353516,-1.2438923120498657,0.8160215616226196
1696961684594632700,6.8736328125,-0.15302276611328125,-0.8812851905822754,0.6956813931465149
1696961684604646100,6.883646240234375,-0.44449710845947266,-0.6139183044433594,1.0637972354888916
1696961684614659800,6.893659912109375,0.8415470123291016,-1.4217839241027832,1.147275686264038
1696961684624673300,6.90367333984375,-0.9240045547485352,-1.0265148878097534,0.9970688819885254
1696961684634686700,6.913686767578125,0.1958179473876953,-1.335525631904602,0.994620680809021
1696961684644700200,6.9237001953125,-0.15821075439453125,-0.23267507553100586,1.0026394128799438
1696961684654713900,6.9337138671875,-0.18703079223632812,-1.567812442779541,0.4137543737888336
1696961684664727300,6.943727294921875,-0.8653459548950195,-0.9595307111740112,0.9994363784790039
1696961684674740700,6.95374072265625,0.8092679977416992,-1.170624852180481,1.1473798751831055
1696961684684754400,6.96375439453125,-1.156942367553711,-1.0235716104507446,1.1228030920028687
1696961684694767900,6.973767822265625,0.8475990295410156,-1.1368682384490967,1.0489661693572998
1696961684704781600,6.983781494140625,0.10506439208984375,-0.37965357303619385,1.515583872795105
1696961684714795000,6.993794921875,0.8876075744628906,-1.295894742012024,1.0278092622756958
1696961684724808400,7.003808349609375,-0.5239439010620117,-1.0757050514221191,0.8456377983093262
1696961684734822100,7.013822265625,-0.38503360748291016,-1.1245914697647095,0.9315452575683594
1696961684744835600,7.023835693359375,0.11803531646728516,-1.0942463874816895,0.9226184487342834
1696961684754849300,7.033849365234375,0.2125225067138672,-0.6999938488006592,1.5546913146972656
1696961684764862700,7.04386279296875,1.8128433227539062,-1.6012917757034302,1.1125414371490479
1696961684774876200,7.053876220703125,-0.9873895645141602,-0.46948277950286865,1.2914409637451172
1696961684784889900,7.063889892578125,1.078730583190918,-1.5917414426803589,1.202517032623291
1696961684794903300,7.0739033203125,-1.0930671691894531,-0.8593993186950684,1.4429998397827148
1696961684804917000,7.0839169921875,0.39948463439941406,-1.487234354019165,0.8017545938491821
1696961684814930400,7.093930419921875,-0.5329732894897461,-1.3529497385025024,0.5547424554824829
1696961684824943900,7.10394384765625,0.40914154052734375,-0.5658725500106812,0.8213919997215271
1696961684834957600,7.11395751953125,0.26519298553466797,-2.0961217880249023,0.5041903257369995
1696961684844971000,7.123970947265625,-1.8096652030944824,-0.6654349565505981,0.8636314868927002
1696961684854984700,7.133984619140625,2.328256607055664,-1.4726239442825317,1.2962477207183838
1696961684864998100,7.143998046875,-1.4755926132202148,-1.1647368669509888,0.8286879658699036
1696961684875011600,7.154011474609375,1.6328001022338867,-0.7465949058532715,0.9590505361557007
1696961684885025300,7.164025390625,0.8754634857177734,-1.2366054058074951,0.8929813504219055
1696961684895038700,7.174038818359375,-1.1968278884887695,-0.46241259574890137,1.518794298171997
1696961684905052200,7.18405224609375,3.016665458679199,-1.5533069372177124,1.1895647048950195
1696961684915065900,7.19406591796875,-2.710543632507324,-0.7407755851745605,1.013486385345459
1696961684925079300,7.204079345703125,2.647700309753418,-1.4596266746520996,1.401336431503296
1696961684935093000,7.214093017578125,0.028571128845214844,-0.399029016494751,1.6234328746795654
1696961684945106400,7.2241064453125,0.5149688720703125,-1.3784682750701904,1.054701805114746
1696961684955119900,7.234119873046875,-0.3311424255371094,-0.717029333114624,1.30277681350708
1696961684965133300,7.24413330078125,0.4240875244140625,-1.1238735914230347,0.7779521346092224
1696961684975146800,7.254146728515625,0.18498802185058594,-0.39045774936676025,1.4706475734710693
1696961684985160400,7.264160400390625,-0.5609092712402344,-1.1927388906478882,0.5921763181686401
1696961684995174000,7.274173828125,-0.9796428680419922,-1.126258134841919,0.4560820460319519
1696961685005187300,7.284187255859375,-0.2840099334716797,-0.7318457365036011,0.4852474331855774
1696961685015200800,7.29420068359375,-0.03402233123779297,-0.6571333408355713,0.5683512091636658
1696961685025214200,7.304214111328125,-1.280745506286621,-0.7522679567337036,0.8918282389640808
1696961685035228000,7.314227783203125,1.399094581604004,-0.5552423000335693,1.797945261001587
1696961685045241300,7.324241455078125,0.17310523986816406,-0.7447680234909058,1.3668497800827026
1696961685055254800,7.3342548828125,-0.35288238525390625,-0.725255012512207,0.9261600971221924
1696961685065268200,7.344268310546875,0.44170475006103516,0.06323063373565674,0.9565427899360657
1696961685075281700,7.35428173828125,0.29306697845458984,-0.9863986968994141,0.9194759130477905
1696961685085295400,7.36429541015625,-0.9449472427368164,0.022146940231323242,1.61417555809021
1696961685095308800,7.374308837890625,1.2365522384643555,-0.5943483114242554,1.4392139911651611
1696961685105322200,7.384322265625,-0.23300933837890625,-0.37262070178985596,1.3472322225570679
1696961685115335700,7.394335693359375,0.713404655456543,-0.8634777069091797,0.6848637461662292
1696961685125349000,7.40434912109375,-0.1905994415283203,-0.7037051916122437,0.9493423104286194
1696961685135362800,7.41436279296875,1.310037612915039,0.27362382411956787,0.8422084450721741
1696961685145376300,7.424376220703125,-0.6704645156860352,-0.14933395385742188,1.4893814325332642
1696961685155389700,7.4343896484375,0.759343147277832,-0.6125138998031616,2.3773415088653564
1696961685165403100,7.444403076171875,-1.530146598815918,-0.5398263931274414,1.2064886093139648
1696961685175416600,7.45441650390625,-0.40996551513671875,-1.2190189361572266,0.7525056600570679
1696961685185430300,7.46443017578125,0.3332357406616211,0.07946765422821045,0.2729817032814026
1696961685195443700,7.474443603515625,0.07370567321777344,-0.18603157997131348,-0.22632598876953125
1696961685205457400,7.48445751953125,-0.21697521209716797,-0.7763463258743286,1.6734988689422607
1696961685215470800,7.494470947265625,0.23787975311279297,-0.3834958076477051,1.7580749988555908
1696961685225484500,7.504484619140625,0.48094654083251953,-0.42198336124420166,1.5242794752120972
1696961685235498000,7.514498046875,0.4128856658935547,-0.9922678470611572,0.5433057546615601
1696961685245511400,7.524511474609375,0.13478469848632812,0.11298787593841553,-0.4072997570037842
1696961685255525000,7.534525146484375,1.8218307495117188,0.12000095844268799,0.44001615047454834
1696961685265538600,7.54453857421875,-2.071620464324951,-0.5955181121826172,1.6957371234893799
1696961685275552000,7.554552001953125,1.0394535064697266,-0.01750802993774414,2.3010482788085938
1696961685285565400,7.5645654296875,1.0469398498535156,-0.33447492122650146,1.2547739744186401
1696961685295579000,7.574578857421875,-0.19895553588867188,-1.092299222946167,0.017351925373077393
1696961685305592300,7.58459228515625,1.1884288787841797,-0.42028844356536865,0.10144054889678955
1696961685315606000,7.59460595703125,1.5580387115478516,-0.10840225219726562,-0.030346214771270752
1696961685325619500,7.604619384765625,-0.7050809860229492,-0.19987857341766357,1.2816388607025146
1696961685335633000,7.6146328125,1.365553855895996,-0.8801791667938232,1.9846290349960327
1696961685345646300,7.624646240234375,-1.2599925994873047,-0.1892765760421753,1.1416046619415283
1696961685355659800,7.63465966796875,-0.8088674545288086,-1.4037301540374756,0.13902294635772705
1696961685365673500,7.644673583984375,0.8474187850952148,0.19090473651885986,-0.39294955134391785
1696961685375687000,7.65468701171875,0.0860128402709961,-0.5534462928771973,-0.4584321081638336
1696961685385700400,7.664700439453125,-1.4380903244018555,-0.06562769412994385,0.7786273956298828
1696961685395713800,7.6747138671875,0.7499542236328125,-1.2418373823165894,2.004664182662964
1696961685405727200,7.684727294921875,-0.8140010833740234,0.47220301628112793,1.2103655338287354
1696961685415741000,7.694740966796875,-0.712367057800293,-1.1960620880126953,0.361599326133728
1696961685425754400,7.70475439453125,-0.4667215347290039,-0.545203685760498,-0.7964412569999695
1696961685435767800,7.714767822265625,0.9729490280151367,0.21022498607635498,-0.1944427490234375
1696961685445781200,7.72478125,-1.4516324996948242,-0.14195668697357178,0.7480893135070801
1696961685455794700,7.734794677734375,-0.8653326034545898,-0.6548882722854614,1.6704657077789307
1696961685465808400,7.744808349609375,1.535426139831543,0.20604932308197021,0.9690467119216919
1696961685475821800,7.75482177734375,-1.7419748306274414,-1.2545486688613892,0.15171325206756592
1696961685485835300,7.764835205078125,0.7316169738769531,-0.2321416139602661,-0.7083476781845093
1696961685495848700,7.7748486328125,0.7685413360595703,-0.11191785335540771,-0.08416807651519775
1696961685505862100,7.784862060546875,-1.0356616973876953,0.04599905014038086,0.8239837288856506
1696961685515875800,7.794875732421875,1.5230865478515625,-0.7656954526901245,0.74305659532547
1696961685525889300,7.80488916015625,-1.291311264038086,-0.9448151588439941,0.3853830099105835
1696961685535902700,7.81490283203125,-0.9396648406982422,-1.2426189184188843,-0.609779953956604
1696961685545916200,7.824916259765625,0.7101602554321289,0.19318175315856934,-1.4685275554656982
1696961685555929600,7.8349296875,0.17376422882080078,-0.6984673738479614,-0.6844527721405029
1696961685565943300,7.844943359375,-1.896416187286377,-0.24345552921295166,-0.023887217044830322
1696961685575956700,7.854956787109375,1.0420455932617188,-0.8232240676879883,0.7945776581764221
1696961685585970200,7.86497021484375,0.48937225341796875,-0.45142805576324463,0.38904380798339844
1696961685595983600,7.874983642578125,0.373321533203125,-0.7565417289733887,-0.16753500699996948
1696961685605997000,7.8849970703125,2.010133743286133,0.10106456279754639,-1.2289674282073975
1696961685616010500,7.895010498046875,-0.550847053527832,-0.45340776443481445,-0.612963080406189
1696961685626024200,7.905024169921875,-0.09212684631347656,-0.02223992347717285,0.6060984134674072
1696961685636037600,7.91503759765625,0.7783498764038086,-0.37113165855407715,-0.02813011407852173
1696961685646051000,7.925051025390625,-2.1402549743652344,-0.5267810821533203,-0.13118016719818115
1696961685656064500,7.935064453125,0.9423656463623047,-1.188673973083496,-0.6291694641113281
1696961685666078000,7.945077880859375,0.27512073516845703,0.05779874324798584,-1.4512300491333008
1696961685676091600,7.955091552734375,-0.9107341766357422,-0.301059365272522,-0.42428821325302124
1696961685686105000,7.96510498046875,1.5133581161499023,-0.8054536581039429,-0.17513912916183472
1696961685696118500,7.975118408203125,-0.9984521865844727,-0.3362771272659302,0.32538115978240967
1696961685706132000,7.985132080078125,1.1382532119750977,-0.6279306411743164,-0.3941301107406616
1696961685716145400,7.9951455078125,-1.4490623474121094,-1.1073707342147827,-1.4875141382217407
1696961685726159000,8.0051591796875,0.1347332000732422,-0.2596534490585327,-1.1620469093322754
1696961685736172500,8.015172607421874,-0.2370901107788086,0.06395936012268066,-0.7629743814468384
1696961685746186000,8.02518603515625,0.0534515380859375,-0.7122026681900024,-0.6722346544265747
1696961685756199400,8.035199462890626,0.7565393447875977,-0.533629298210144,-0.40425169467926025
1696961685766212900,8.045212890625,-1.3053483963012695,-0.1727992296218872,-0.6171243190765381
1696961685776226600,8.0552265625,0.6374101638793945,0.011453747749328613,-1.4253840446472168
1696961685786240000,8.065239990234375,0.5355472564697266,-0.8931498527526855,-1.3324824571609497
1696961685796253400,8.07525341796875,-1.105036735534668,0.017507076263427734,-0.8517050743103027
1696961685806267000,8.085266845703124,0.8614301681518555,-0.4013253450393677,-0.8085149526596069
1696961685816280300,8.0952802734375,-0.7560501098632812,-0.14346981048583984,-1.0304481983184814
1696961685826294000,8.1052939453125,0.43531227111816406,-0.23647558689117432,-0.7917822599411011
1696961685836307500,8.115307373046875,0.5682277679443359,-0.07064962387084961,-0.9005614519119263
1696961685846321000,8.12532080078125,-0.48522281646728516,-0.919110894203186,-1.1308751106262207
1696961685856334300,8.135334228515624,0.3569679260253906,0.2206352949142456,-0.9295210838317871
1696961685866347800,8.14534765625,1.115382194519043,-0.36164021492004395,-1.09201979637146
1696961685876361500,8.155361572265624,-1.8167839050292969,-0.5722802877426147,-0.8337507247924805
1696961685886375000,8.165375,1.0587797164916992,-0.5137693881988525,-1.5263915061950684
1696961685896388400,8.175388427734376,-1.2323970794677734,0.4909045696258545,-1.9260411262512207
1696961685906401800,8.18540185546875,-0.7523860931396484,-1.2874999046325684,-1.5344641208648682
1696961685916415200,8.195415283203126,-0.348602294921875,-0.2584444284439087,-0.6651486158370972
1696961685926428700,8.2054287109375,1.3147563934326172,0.04961097240447998,-1.7928237915039062
1696961685936442400,8.2154423828125,-1.5604057312011719,-0.22555255889892578,-1.687812328338623
1696961685946455800,8.225455810546874,0.6125192642211914,-0.6696481704711914,-0.871590793132782
1696961685956469200,8.23546923828125,0.8408079147338867,1.0061677694320679,-1.022691011428833
1696961685966482700,8.245482666015626,-0.22766876220703125,-0.5136409997940063,-1.2051993608474731
1696961685976496000,8.25549609375,0.39398765563964844,-0.4685966968536377,-1.0432586669921875
1696961685986509800,8.265509765625,0.8611421585083008,0.11095666885375977,-1.623424768447876
1696961685996523300,8.275523193359374,-0.35986328125,-0.1431868076324463,-2.3746745586395264
1696961686006536700,8.28553662109375,-1.3007888793945312,-0.532081127166748,-0.9478501081466675
1696961686016550100,8.295550048828124,1.7706222534179688,0.3866286277770996,-0.7597388625144958
1696961686026563600,8.3055634765625,-1.4501819610595703,-0.17904353141784668,-1.0268131494522095
1696961686036577300,8.315577392578126,1.1521282196044922,-1.1716060638427734,-1.1713531017303467
1696961686046590700,8.3255908203125,0.27547264099121094,0.030383706092834473,-1.578851342201233
1696961686056604200,8.335604248046875,-0.6913375854492188,-0.5779895782470703,-2.2532472610473633
1696961686066617600,8.34561767578125,0.2614288330078125,-0.12293720245361328,-1.6532948017120361
1696961686076631000,8.355631103515625,-0.5084772109985352,0.11146295070648193,-0.7606509923934937
1696961686086644700,8.365644775390624,0.14721393585205078,-0.4321596622467041,-0.5328242778778076
1696961686096658200,8.375658203125,0.5384893417358398,-1.3863674402236938,-1.7547545433044434
1696961686106671600,8.385671630859376,0.680781364440918,0.3782581090927124,-2.285283327102661
1696961686116685000,8.39568505859375,-1.2515192031860352,0.01879703998565674,-1.7477999925613403
1696961686126698500,8.405698486328125,0.6725387573242188,0.18319106101989746,-0.8402316570281982
1696961686136712200,8.415712158203124,0.0883321762084961,-0.4174182415008545,-0.26031947135925293
1696961686146725600,8.4257255859375,0.30276966094970703,0.03448021411895752,-0.9296553134918213
1696961686156739000,8.435739013671874,0.9328851699829102,-0.6071510314941406,-2.0824170112609863
1696961686166752500,8.44575244140625,0.15653133392333984,0.26339995861053467,-1.6773370504379272
1696961686176766000,8.455765869140626,2.4644861221313477,-0.23491883277893066,-1.3236351013183594
1696961686186779600,8.465779541015625,-1.5313215255737305,-0.5877771377563477,-0.5643794536590576
1696961686196793000,8.47579296875,1.807600975036621,0.4830775260925293,0.3631138205528259
1696961686206806500,8.485806640625,1.894866943359375,-0.4899420738220215,-0.6770079135894775
1696961686216820000,8.495820068359375,-1.2352867126464844,-1.0300594568252563,-1.6749650239944458
1696961686226833400,8.50583349609375,2.2087278366088867,-0.08194851875305176,-2.011888027191162
1696961686236847000,8.51584716796875,-0.7343292236328125,0.7360497713088989,-1.993489146232605
1696961686246860500,8.525860595703126,-0.876591682434082,-1.062997817993164,-0.735449492931366
1696961686256874000,8.5358740234375,2.2331552505493164,-0.4886842966079712,-0.6727882027626038
1696961686266887400,8.545887451171875,-1.5327348709106445,-0.6402543783187866,-1.4264860153198242
1696961686276900900,8.55590087890625,0.30167675018310547,-0.13830363750457764,-2.343719720840454
1696961686286914300,8.565914306640625,0.039229393005371094,0.16679060459136963,-2.1605610847473145
1696961686296928000,8.575927978515624,-2.5407209396362305,0.32983505725860596,-1.2574249505996704
1696961686306941400,8.58594140625,1.264512062072754,0.14562571048736572,-0.1527014970779419
1696961686316955000,8.595954833984376,-0.19452190399169922,-0.4184824228286743,-0.5586304068565369
1696961686326968300,8.60596826171875,-1.3415155410766602,-0.1471315622329712,-1.329643964767456
1696961686336981800,8.615981689453125,1.8690357208251953,0.0509490966796875,-2.0454189777374268
1696961686346995500,8.625995361328124,-0.4098043441772461,0.46806418895721436,-1.888515830039978
1696961686357009000,8.6360087890625,-1.3500089645385742,0.18919885158538818,-0.4957261085510254
1696961686367022300,8.646022216796876,-0.7588472366333008,-0.21240711212158203,-0.27621787786483765
1696961686377035800,8.656035888671875,-0.6948995590209961,-0.6750309467315674,-0.21811068058013916
1696961686387049200,8.66604931640625,0.9941139221191406,-0.10673689842224121,-1.5269863605499268
1696961686397063000,8.67606298828125,-0.920252799987793,-0.26327836513519287,-2.4670042991638184
1696961686407076400,8.686076416015625,-1.2712793350219727,0.7017768621444702,-1.0355517864227295
1696961686417089800,8.69608984375,0.22720050811767578,-0.505258321762085,0.10368996858596802
1696961686427103200,8.706103271484375,0.2888050079345703,-0.5096319913864136,-0.8938264846801758
1696961686437116700,8.71611669921875,-1.1271181106567383,-0.6004598140716553,-0.8445988297462463
1696961686447130400,8.72613037109375,0.5768766403198242,-0.5072581768035889,-1.8522818088531494
1696961686457143800,8.736143798828126,-0.9064540863037109,0.12238800525665283,-1.122475504875183
1696961686467157200,8.7461572265625,1.3460397720336914,-0.1650320291519165,-0.26716724038124084
1696961686477170700,8.756170654296875,0.128692626953125,0.5531221628189087,0.06567235291004181
1696961686487184100,8.76618408203125,1.5226154327392578,-1.1716862916946411,-0.2579437494277954
1696961686497197800,8.77619775390625,-0.38773632049560547,-1.247130274772644,-1.4522087574005127
1696961686507211300,8.786211181640626,0.03734397888183594,1.0709840059280396,-1.520234227180481
1696961686517224700,8.796224609375,1.71954345703125,-0.1552654504776001,-0.8178795576095581
1696961686527238100,8.806238037109376,-2.041696548461914,-0.8004220724105835,-0.0015422254800796509
1696961686537251600,8.81625146484375,2.9373903274536133,-1.0943026542663574,0.6009037494659424
1696961686547265300,8.826265380859375,-0.37653064727783203,0.014295816421508789,-0.320888876914978
1696961686557278700,8.83627880859375,-0.027313232421875,-0.6662179231643677,-1.9120932817459106
1696961686567292200,8.846292236328125,0.20228958129882812,1.0933059453964233,-1.491534948348999
1696961686577305600,8.8563056640625,0.5459232330322266,0.33146631717681885,-0.14221619069576263
1696961686587319000,8.866319091796875,-0.6503391265869141,-0.9920758008956909,0.1474733203649521
1696961686597332500,8.87633251953125,0.3831758499145508,-0.9826397895812988,0.23680943250656128
1696961686607346200,8.88634619140625,1.324387550354004,-0.6117513179779053,-0.8164187669754028
1696961686617359600,8.896359619140625,-1.7035293579101562,0.3046606779098511,-1.3980112075805664
1696961686627373000,8.906373046875,1.7558250427246094,0.8257405757904053,-1.0779012441635132
1696961686637386500,8.916386474609375,-1.6117982864379883,0.24920642375946045,0.35035234689712524
1696961686647400000,8.92639990234375,-0.07412433624267578,-0.1120384931564331,0.5470511317253113
1696961686657413600,8.93641357421875,0.46182823181152344,-0.5977544784545898,-0.2816407382488251
1696961686667427000,8.946427001953126,-0.19353961944580078,-0.2504032850265503,-0.9433072209358215
1696961686677440500,8.9564404296875,2.454610824584961,0.7291735410690308,-1.6134799718856812
1696961686687454000,8.966453857421875,-2.1852049827575684,-0.06653273105621338,-0.16304531693458557
1696961686697467400,8.97646728515625,-0.22625350952148438,0.2990645170211792,0.8943741321563721
1696961686707481000,8.986481201171875,2.2513914108276367,0.23195791244506836,0.4653562307357788
1696961686717494500,8.99649462890625,-2.9629735946655273,-0.1148989200592041,-0.21657228469848633
1696961686727508000,9.006508056640625,1.4167060852050781,-0.7189956903457642,-1.275032639503479
1696961686737521400,9.016521484375,-1.0750598907470703,0.7120505571365356,-1.4505372047424316
1696961686747534800,9.026534912109375,-2.3105130195617676,0.2692142724990845,0.2741977572441101
1696961686757548500,9.036548583984375,1.4755773544311523,-0.4729496240615845,-0.6395683288574219
1696961686767562000,9.04656201171875,-3.129434585571289,-0.17982220649719238,-0.2866947054862976
1696961686777575400,9.056575439453125,2.454453468322754,0.23809921741485596,-0.4675713777542114
1696961686787588900,9.0665888671875,0.7485599517822266,-0.2920938730239868,-0.9574040174484253
1696961686797602300,9.076602294921875,-2.69913911819458,0.2650492191314697,0.2868853807449341
1696961686807616000,9.086615966796876,1.7136764526367188,0.25675928592681885,1.0837299823760986
1696961686817629400,9.09662939453125,-0.4883241653442383,1.0122268199920654,0.1907501369714737
1696961686827643000,9.106642822265625,1.8823871612548828,-1.1174291372299194,-1.03310227394104
1696961686837656300,9.11665625,-1.2131538391113281,-0.19353175163269043,-0.3074800968170166
1696961686847669800,9.126669677734375,2.1487112045288086,0.84432053565979,0.900154709815979
1696961686857683500,9.136683349609376,0.6823501586914062,1.0112515687942505,0.7709670066833496
1696961686867697000,9.14669677734375,0.9136056900024414,-0.867944598197937,0.5427658557891846
1696961686877710300,9.15671044921875,-0.21521854400634766,-0.9929561614990234,-0.31338682770729065
1696961686887723800,9.166723876953125,-2.9582347869873047,1.0333441495895386,-0.8480063080787659
1696961686897737200,9.1767373046875,4.16927433013916,0.3834463357925415,-1.185580849647522
1696961686907750700,9.186750732421874,-4.503550052642822,-0.6167056560516357,-0.3640610873699188
1696961686917764400,9.196764404296875,-0.09297466278076172,0.42069971561431885,1.2377644777297974
1696961686927777800,9.20677783203125,1.8248424530029297,-0.14199256896972656,0.11727796494960785
1696961686937791200,9.216791259765625,-1.3489093780517578,-0.5155147314071655,-0.48720431327819824
1696961686947804700,9.2268046875,2.1001014709472656,-0.4474741220474243,-1.0721287727355957
1696961686957818000,9.236818115234374,-3.3521151542663574,0.6959071159362793,0.3154655992984772
1696961686967831800,9.246831787109375,1.8638525009155273,-0.24824237823486328,0.5596877336502075
1696961686977845200,9.25684521484375,-1.9241971969604492,0.13989317417144775,0.1046791523694992
1696961686987858700,9.266858642578125,-0.3392200469970703,0.23041582107543945,0.14806433022022247
1696961686997872000,9.2768720703125,1.903721809387207,-0.21900200843811035,-0.5714902877807617
1696961687007885600,9.286885498046875,-0.6196203231811523,0.005988717079162598,-0.5178689956665039
1696961687017899300,9.296899169921875,0.007885932922363281,0.19872677326202393,0.8452864289283752
1696961687027912700,9.30691259765625,1.8334541320800781,0.924659013748169,1.2340120077133179
1696961687037926100,9.316926025390625,0.8535757064819336,-0.45761561393737793,0.3451821506023407
1696961687047939600,9.326939697265624,-1.1695003509521484,-1.2823634147644043,-1.1778818368911743
1696961687057953000,9.336953125,-1.5926132202148438,0.4163391590118408,-0.8678492903709412
1696961687067966700,9.346966796875,2.4975709915161133,0.6062788963317871,-0.07944773882627487
1696961687077980200,9.356980224609375,-2.4781174659729004,-0.034197449684143066,0.7675443887710571
1696961687087993600,9.36699365234375,2.3290958404541016,-0.22013139724731445,0.4189123809337616
1696961687098007000,9.377007080078124,-0.27475929260253906,-0.6787915229797363,-0.32338035106658936
1696961687108020500,9.3870205078125,-1.9574213027954102,0.2994658946990967,-1.174409031867981
1696961687118034200,9.3970341796875,1.9951667785644531,0.04464101791381836,-0.17815010249614716
1696961687128047600,9.407047607421875,-1.9328694343566895,-0.15332281589508057,0.0687614232301712
1696961687138061000,9.41706103515625,0.29369163513183594,-0.24539661407470703,0.5766143202781677
1696961687148074500,9.427074462890625,0.4795684814453125,0.5809643268585205,0.6208658218383789
1696961687158088000,9.437087890625,2.4279069900512695,-1.3695664405822754,-1.1373037099838257
1696961687168101600,9.4471015625,-1.5197410583496094,0.5973542928695679,0.218681201338768
1696961687178115000,9.457114990234375,2.139470100402832,0.5185573101043701,1.2075140476226807
1696961687188128500,9.46712841796875,0.17583465576171875,0.4294159412384033,1.1662777662277222
1696961687198142000,9.477141845703125,1.5317678451538086,-0.2560110092163086,0.46311086416244507
1696961687208155400,9.4871552734375,-1.0513534545898438,-0.8222590684890747,-0.4003792405128479
1696961687218168800,9.4971689453125,-1.230947494506836,0.46324408054351807,-1.0528534650802612
1696961687228182500,9.5071826171875,1.214792251586914,-0.8073278665542603,-0.006305798888206482
1696961687238196000,9.517196044921874,-1.5975093841552734,0.4096270799636841,0.2711942195892334
1696961687248209400,9.52720947265625,0.3081016540527344,0.06668448448181152,0.6106445789337158
1696961687258222800,9.537222900390624,0.5323581695556641,-0.5667721033096313,-0.13466322422027588
1696961687268236300,9.547236328125,-0.45282936096191406,-0.8318043947219849,-0.8488795757293701
1696961687278250000,9.55725,-0.9102849960327148,0.4840942621231079,0.07477359473705292
1696961687288263400,9.567263427734375,0.40680408477783203,0.1981489658355713,0.30504363775253296
1696961687298276900,9.57727685546875,-0.6024684906005859,-0.056249022483825684,0.3092418313026428
1696961687308290300,9.587290283203124,1.0479230880737305,-0.07106423377990723,0.2548622488975525
1696961687318303700,9.5973037109375,-0.4117717742919922,0.03624534606933594,-0.09466516971588135
1696961687328317400,9.6073173828125,0.903355598449707,0.06034564971923828,0.10450825095176697
1696961687338331000,9.617330810546875,0.13719749450683594,0.48201167583465576,0.864973783493042
1696961687348344300,9.62734423828125,1.1498956680297852,-0.33640778064727783,0.1792510598897934
1696961687358357800,9.637357666015625,-1.4377470016479492,0.34877145290374756,0.39125198125839233
1696961687368371200,9.64737109375,2.7131805419921875,-0.38364267349243164,-0.2547416687011719
1696961687378385000,9.657385009765624,-2.2761831283569336,-0.10700416564941406,-0.896970808506012
1696961687388398300,9.6673984375,-0.3654441833496094,-0.38825011253356934,-0.15347319841384888
1696961687398411800,9.677411865234374,0.1058187484741211,0.26677703857421875,0.5825039744377136
1696961687408425200,9.68742529296875,-0.5890636444091797,0.5521522760391235,0.23313571512699127
1696961687418438700,9.697438720703126,1.162527084350586,-0.912901759147644,-0.7226997017860413
1696961687428452400,9.707452392578125,-2.921999931335449,0.23435306549072266,-0.09675788134336472
1696961687438465800,9.7174658203125,0.7793025970458984,-0.2422804832458496,0.5785729289054871
1696961687448479200,9.727479248046874,-0.14006614685058594,0.13451659679412842,-0.42664700746536255
1696961687458492700,9.73749267578125,-0.8232240676879883,-0.20897018909454346,-0.237064391374588
1696961687468506000,9.747506103515626,1.0616025924682617,-0.015229463577270508,0.13597531616687775
1696961687478519800,9.757519775390625,1.3316154479980469,0.06907474994659424,-0.3971208930015564
1696961687488533200,9.767533203125,-0.7310943603515625,-0.3383423089981079,1.0209827423095703
1696961687498546700,9.777546630859375,0.646967887878418,0.1945018768310547,0.9159607887268066
1696961687508560100,9.78756005859375,0.9849720001220703,0.5452592372894287,0.5795217752456665
1696961687518573600,9.797573486328124,0.19839763641357422,0.020561575889587402,0.33608946204185486
1696961687528587000,9.8075869140625,1.579350471496582,-0.40212929248809814,-0.31701451539993286
1696961687538600700,9.8176005859375,-1.1436967849731445,0.19623208045959473,0.6724593639373779
1696961687548614100,9.8276142578125,1.716766357421875,-0.7249768972396851,1.2222464084625244
1696961687558627600,9.837627685546876,-1.173274040222168,0.3811734914779663,0.9966728091239929
1696961687568641000,9.84764111328125,2.1928672790527344,-0.13494873046875,0.16282600164413452
1696961687578654500,9.857654541015625,-2.3604907989501953,-0.5266642570495605,-0.5700713992118835
1696961687588668200,9.867668212890624,-0.7839155197143555,-0.19050705432891846,0.8519137501716614
1696961687598681600,9.877681640625,0.41443634033203125,0.04487729072570801,0.7106863260269165
1696961687608695000,9.887695068359376,-3.0234360694885254,0.4595221281051636,0.18994548916816711
1696961687618708500,9.89770849609375,1.7053947448730469,-0.5572289228439331,0.44014081358909607
1696961687628722000,9.907721923828126,-1.0028324127197266,0.24223124980926514,0.021477848291397095
1696961687638735600,9.917735595703125,0.5567817687988281,0.3324321508407593,0.48805034160614014
1696961687648749000,9.9277490234375,-2.5447845458984375,-0.024224042892456055,0.9232033491134644
1696961687658762500,9.937762451171874,0.11680984497070312,-0.28071773052215576,1.2063878774642944
1696961687668776000,9.94777587890625,1.0928878784179688,0.05490005016326904,0.05521848797798157
1696961687678789400,9.957789306640626,-3.254944324493408,0.19405245780944824,-0.9249134063720703
1696961687688802800,9.967802734375,2.2823915481567383,0.5681076049804688,0.7939451932907104
1696961687698816300,9.977816162109375,-2.0716934204101562,-0.4622000455856323,0.8701637983322144
1696961687708829700,9.98782958984375,-1.1405086517333984,0.041950345039367676,0.7010576725006104
1696961687718843100,9.997843017578125,0.056832313537597656,-0.08076095581054688,0.7024767994880676
1696961687728856600,10.007856689453124,1.6231565475463867,0.2874791622161865,-0.9240907430648804
1696961687738870000,10.0178701171875,-1.7258472442626953,-0.8564105033874512,0.1770261526107788
1696961687748883500,10.027883544921876,-1.1201629638671875,0.09996557235717773,2.477593421936035
1696961687758896600,10.037896728515625,1.6779966354370117,0.22981536388397217,1.1759788990020752
1696961687768910000,10.04791015625,-0.4442415237426758,0.08923768997192383,0.12717705965042114
1696961687778923500,10.057923583984374,1.4198923110961914,-0.675679087638855,0.11951035261154175
1696961687788937000,10.06793701171875,-0.5185375213623047,0.20364832878112793,1.3671255111694336
1696961687798950400,10.077950439453126,0.6524543762207031,0.05166959762573242,1.469414234161377
1696961687808963800,10.0879638671875,0.5839090347290039,0.5143210887908936,1.350669026374817
1696961687818977300,10.097977294921876,0.9303960800170898,-0.5377200841903687,1.0348246097564697
1696961687828990700,10.10799072265625,-0.14678668975830078,-0.45373404026031494,0.024932056665420532
1696961687839004200,10.118004150390625,-0.9214839935302734,-0.14716088771820068,-0.38379359245300293
1696961687849017600,10.128017578125,1.7763919830322266,0.5753973722457886,1.2562625408172607
1696961687859031000,10.138031005859375,-1.6443672180175781,-0.3306417465209961,2.2835867404937744
1696961687869044500,10.14804443359375,1.6941156387329102,-0.615179181098938,1.5868619680404663
1696961687879058000,10.158057861328125,-0.3928184509277344,-0.6736688613891602,-0.07832032442092896
1696961687889071400,10.1680712890625,-0.33545875549316406,0.27465033531188965,-0.7318227887153625
1696961687899084800,10.178084716796874,-1.1838808059692383,0.05876576900482178,1.8220746517181396
1696961687909098200,10.18809814453125,-0.21607208251953125,-0.1854712963104248,1.9004782438278198
1696961687919111700,10.198111572265624,0.8839521408081055,-0.3277895450592041,0.8416695594787598
1696961687929125000,10.208125,0.38421630859375,-0.5115249156951904,-0.2976871728897095
1696961687939138600,10.218138671875,0.5805091857910156,-0.36363422870635986,0.028076648712158203
1696961687949152000,10.228152099609375,0.6077890396118164,0.15013396739959717,1.4576969146728516
1696961687959165400,10.23816552734375,1.166722297668457,0.20574021339416504,1.8838073015213013
1696961687969179000,10.248178955078124,-0.6473541259765625,0.4576224088668823,1.7379467487335205
1696961687979192300,10.2581923828125,-0.9845848083496094,-0.5555992126464844,0.1954774558544159
1696961687989206000,10.2682060546875,-0.5375823974609375,-0.18203938007354736,0.06149372458457947
1696961687999219500,10.278219482421875,0.4774761199951172,0.1833350658416748,0.38121095299720764
1696961688009233000,10.28823291015625,-1.89312744140625,0.050704002380371094,1.278424620628357
1696961688019246300,10.298246337890625,1.6140060424804688,0.1547565460205078,1.6883862018585205
1696961688029259800,10.308259765625,0.4830589294433594,-0.33001625537872314,0.3810478150844574
1696961688039273500,10.3182734375,-1.9894471168518066,-0.9144933223724365,-0.6208707094192505
1696961688049287000,10.328286865234375,-0.6934347152709961,0.0078125,1.0939804315567017
1696961688059300400,10.33830029296875,-0.31888484954833984,0.6261520385742188,1.827273964881897
1696961688069313800,10.348313720703125,0.040541648864746094,-0.18013310432434082,1.6872204542160034
1696961688079327200,10.3583271484375,0.48867225646972656,0.12580418586730957,0.9609495401382446
1696961688089341000,10.3683408203125,1.0996894836425781,-0.6821106672286987,0.47902339696884155
1696961688099354400,10.378354248046875,-1.9378747940063477,0.24379849433898926,1.2860538959503174
1696961688109367800,10.388367919921874,2.6882123947143555,0.06218302249908447,2.2511370182037354
1696961688119381200,10.39838134765625,-2.79957914352417,0.29112720489501953,0.704188346862793
1696961688129394700,10.408394775390626,1.1338777542114258,-0.6275655031204224,0.2958914041519165
1696961688139408400,10.418408447265625,2.078094482421875,-0.17817020416259766,-0.6148754358291626
1696961688149421800,10.428421875,-3.4613304138183594,-0.2968395948410034,-0.3144986629486084
1696961688159435300,10.438435302734375,1.0151338577270508,0.4219071865081787,2.1438326835632324
1696961688169448700,10.44844873046875,-0.2774982452392578,-0.31682395935058594,1.0125534534454346
1696961688179462100,10.458462158203124,-0.6222429275512695,0.635793924331665,0.7980791330337524
1696961688189475800,10.468475830078125,2.8239564895629883,-1.048374056816101,-0.36997202038764954
1696961688199489300,10.4784892578125,-3.2176589965820312,-1.005719780921936,-0.7917004227638245
1696961688209502700,10.488502685546875,-1.8972163200378418,-0.4506196975708008,1.1492688655853271
1696961688219516200,10.49851611328125,3.2359390258789062,1.033233404159546,0.4598971903324127
1696961688229529600,10.508529541015625,-2.115243911743164,-0.9173001050949097,1.1387665271759033
1696961688239543300,10.518543212890625,3.0500926971435547,-0.9855246543884277,-0.30796271562576294
1696961688249556700,10.528556640625,-0.010034561157226562,-0.4548763036727905,0.18511980772018433
1696961688259570200,10.538570068359375,-0.16327381134033203,0.6401174068450928,1.7231488227844238
1696961688269583600,10.54858349609375,0.9269771575927734,0.2877548933029175,1.2672336101531982
1696961688279597000,10.55859716796875,1.1770820617675781,-0.6463853120803833,1.064906120300293
1696961688289610500,10.568610595703126,0.19965171813964844,-0.6967113018035889,-0.46440982818603516
1696961688299624200,10.578624267578125,0.6383209228515625,-0.08131754398345947,-0.04400131106376648
1696961688309637600,10.5886376953125,-0.21777057647705078,0.24971318244934082,1.1252566576004028
1696961688319651000,10.598651123046874,0.6280994415283203,-0.8336838483810425,0.5054240822792053
1696961688329664500,10.60866455078125,-1.4137134552001953,-0.08553099632263184,-0.1273656189441681
1696961688339678000,10.618677978515626,-0.41648006439208984,-1.1922367811203003,-0.9298139810562134
1696961688349691600,10.628691650390625,0.22530269622802734,0.10975062847137451,-0.26320144534111023
1696961688359705000,10.638705078125,-0.21897602081298828,-0.8011444807052612,0.8544355034828186
1696961688369718500,10.648718505859375,-0.3617105484008789,0.382046103477478,1.1290411949157715
1696961688379732000,10.65873193359375,2.2632102966308594,-1.3189212083816528,0.3438108563423157
1696961688389745400,10.668745361328124,-0.2749900817871094,-0.3232935667037964,-0.01573634147644043
1696961688399759000,10.678759033203125,2.388607978820801,-0.059567809104919434,0.5108457207679749
1696961688409772500,10.6887724609375,-0.7134389877319336,-0.09166598320007324,1.0004606246948242
1696961688419786000,10.698785888671875,-0.4577627182006836,-0.35224008560180664,1.134035587310791
1696961688429799400,10.70879931640625,0.4037647247314453,-0.2814091444015503,0.7856119275093079
1696961688439812900,10.718812744140624,0.7949819564819336,-0.07944333553314209,-0.5690010786056519
1696961688449826600,10.72882666015625,0.3201179504394531,-0.21952450275421143,-0.5278878808021545
1696961688459840000,10.738840087890624,-1.3233222961425781,-0.03703761100769043,1.2489643096923828
1696961688469853400,10.748853515625,1.7618255615234375,-0.18664765357971191,1.3322343826293945
1696961688479867000,10.758866943359376,-1.543684959411621,-0.691422700881958,0.867816686630249
1696961688489880300,10.76888037109375,-0.06924915313720703,-0.3444705009460449,-0.4711122214794159
1696961688499894000,10.77889404296875,-0.31646060943603516,-0.9771307706832886,-0.5123229622840881
1696961688509907500,10.788907470703125,-0.9279241561889648,-0.3866313695907593,0.7374828457832336
1696961688519921000,10.7989208984375,1.5700263977050781,0.10501039028167725,0.33276093006134033
1696961688529934300,10.808934326171874,-2.0947227478027344,0.00039768218994140625,0.7807552814483643
1696961688539947800,10.81894775390625,2.373826026916504,-1.2551912069320679,-0.04745730757713318
1696961688549961500,10.82896142578125,-1.3442039489746094,-0.040392160415649414,-0.3796943426132202
1696961688559975000,10.838974853515625,0.6564149856567383,-0.5391253232955933,-0.08657947182655334
1696961688569988400,10.84898828125,0.3261528015136719,-0.35990452766418457,1.4520200490951538
1696961688580001800,10.859001708984374,2.2510194778442383,0.09999668598175049,0.40633177757263184
1696961688590015200,10.86901513671875,1.5097932815551758,-0.7397099733352661,0.33817189931869507
1696961688600028700,10.879028564453124,-0.1754131317138672,-0.4774395227432251,0.530846357345581
1696961688610042400,10.88904248046875,1.148672103881836,0.6278232336044312,0.5700865983963013
1696961688620055800,10.899055908203126,-1.9453997611999512,-0.27208948135375977,0.627190113067627
1696961688630069200,10.9090693359375,1.0308055877685547,-1.0340666770935059,0.5433164834976196
1696961688640082700,10.919082763671875,-0.4615182876586914,-0.32816314697265625,0.09448829293251038
1696961688650096000,10.92909619140625,-1.6034135818481445,-0.9672795534133911,0.19765010476112366
1696961688660109800,10.93910986328125,1.9467601776123047,-0.3733670711517334,0.43215736746788025
1696961688670123300,10.949123291015624,-1.627232551574707,0.04800724983215332,0.17557209730148315
1696961688680136700,10.95913671875,0.5648679733276367,-0.43028438091278076,0.66560959815979
1696961688690150100,10.969150146484376,-0.34360694885253906,-1.1802650690078735,0.842200756072998
1696961688700163600,10.97916357421875,-1.4375085830688477,0.12891781330108643,0.71776282787323
1696961688710177300,10.98917724609375,1.9924554824829102,-0.16828858852386475,0.6644257307052612
1696961688720190700,10.999190673828124,-1.319371223449707,-0.27420711517333984,0.6295242309570312
1696961688730204200,11.0092041015625,0.8483991622924805,0.3485996723175049,-0.006917595863342285
1696961688740217600,11.019217529296874,-0.04283332824707031,-0.7224045991897583,-0.09900063276290894
1696961688750231000,11.02923095703125,-1.7820167541503906,-1.0514163970947266,0.0383874773979187
1696961688760244700,11.03924462890625,0.8548164367675781,0.5947767496109009,0.3929724395275116
1696961688770258200,11.049258056640625,0.5614871978759766,-0.1348966360092163,0.30114656686782837
1696961688780271600,11.059271728515625,-0.6782321929931641,-1.3023245334625244,0.17614442110061646
1696961688790285000,11.06928515625,-1.7948579788208008,-0.21428096294403076,0.26754891872406006
1696961688800298500,11.079298583984375,0.4690971374511719,-0.156286358833313,0.12588557600975037
1696961688810312000,11.08931201171875,0.3814735412597656,0.314397931098938,0.012613087892532349
1696961688820325400,11.099325439453125,0.10318279266357422,-0.8227418661117554,0.25559842586517334
1696961688830338800,11.1093388671875,-1.8569087982177734,-0.9708465337753296,0.9086846113204956
1696961688840352300,11.119352294921875,0.9761381149291992,-0.2288147211074829,0.8847184181213379
1696961688850365700,11.12936572265625,0.6530141830444336,0.2587701082229614,-0.6099986433982849
1696961688860379100,11.139379150390624,-2.5412449836730957,-0.6814777851104736,-0.050817012786865234
1696961688870392600,11.149392578125,0.7471551895141602,-0.6111700534820557,0.18727964162826538
1696961688880406000,11.159406005859376,-1.4623937606811523,0.10951006412506104,-0.02293407917022705
1696961688890419500,11.16941943359375,2.248135566711426,-0.49452733993530273,0.28768402338027954
1696961688900433000,11.179432861328126,1.2297296524047852,-1.1746708154678345,-0.40291982889175415
1696961688910446300,11.1894462890625,-1.6935186386108398,-0.03306090831756592,-0.144036203622818
1696961688920459800,11.199459716796875,3.8527965545654297,0.9152159690856934,-0.5225443840026855
1696961688930473200,11.20947314453125,-4.016496658325195,-0.8644893169403076,0.06330469250679016
1696961688940486700,11.219486572265625,-1.4763240814208984,-1.4678380489349365,-0.14835631847381592
1696961688950500000,11.2295,1.9354925155639648,0.12564873695373535,-0.18127717077732086
1696961688960513500,11.239513427734375,0.2187633514404297,-0.46157562732696533,-0.9354536533355713
1696961688970527000,11.24952685546875,1.3559226989746094,-0.2517920732498169,-0.642095685005188
1696961688980540400,11.25954052734375,-0.16254043579101562,-0.058661580085754395,0.42279669642448425
1696961688990553900,11.269553955078125,-1.1750869750976562,-0.39406514167785645,-0.023015320301055908
1696961689000567300,11.2795673828125,-1.6220693588256836,-0.9588793516159058,-0.6682330369949341
1696961689010580700,11.289580810546875,0.17854976654052734,-0.037973761558532715,-0.8057161569595337
1696961689020594200,11.29959423828125,0.10192584991455078,-0.4066427946090698,-0.2722138464450836
1696961689030607600,11.309607666015625,-0.23314380645751953,0.4664597511291504,0.17477735877037048
1696961689040621000,11.31962109375,1.6692380905151367,-0.8107573986053467,-0.4598698914051056
1696961689050634500,11.329634521484374,-2.181636333465576,0.030169129371643066,-0.37255460023880005
1696961689060648000,11.33964794921875,2.6207637786865234,-0.5511735677719116,-0.2901107966899872
1696961689070661400,11.349661376953126,0.1446828842163086,-0.10387945175170898,-0.4562395215034485
1696961689080674800,11.3596748046875,-1.968393325805664,-0.5600311756134033,-0.2784653902053833
1696961689090688300,11.369688232421876,0.4593772888183594,-0.6344091892242432,0.4718669056892395
1696961689100701700,11.37970166015625,1.8057861328125,-0.5246247053146362,-1.0238687992095947
1696961689110715100,11.389715087890625,-0.44954490661621094,1.3578381538391113,-1.2972569465637207
1696961689120728600,11.399728515625,-0.2857828140258789,-0.4324699640274048,-0.14368607103824615
1696961689130742000,11.409741943359375,-1.699432373046875,-0.38858211040496826,0.6547542810440063
1696961689140755500,11.41975537109375,1.5014467239379883,-0.6544475555419922,0.0896114706993103
1696961689150769000,11.429768798828125,-0.23708534240722656,0.06681668758392334,-1.5399656295776367
1696961689160782300,11.4397822265625,1.5698442459106445,-0.18278896808624268,-2.1684954166412354
1696961689170795800,11.449795654296874,-3.7903099060058594,-0.30485987663269043,0.2604667544364929
1696961689180809500,11.4598095703125,0.9781475067138672,-0.044203996658325195,0.08028608560562134
1696961689190823000,11.469822998046874,0.6273708343505859,-0.4372826814651489,-1.0042634010314941
1696961689200836400,11.47983642578125,-0.30658817291259766,-0.429534912109375,-1.933637261390686
1696961689210849800,11.489849853515626,2.2560434341430664,-0.3666043281555176,-1.0961469411849976
1696961689220863200,11.49986328125,-1.2177486419677734,0.7168431282043457,0.3213733434677124
1696961689230877000,11.509876953125,-0.030651092529296875,-0.22942256927490234,0.18182986974716187
1696961689240890400,11.519890380859374,0.8256444931030273,-0.7170714139938354,-0.2625046968460083
1696961689250903800,11.52990380859375,0.4552125930786133,-0.4942905902862549,-1.0400995016098022
1696961689260917200,11.539917236328124,-0.6252651214599609,0.23808777332305908,-1.133909821510315
1696961689270930700,11.5499306640625,-0.5569133758544922,-0.43028414249420166,-0.2884136438369751
1696961689280944400,11.5599443359375,1.896158218383789,0.530357837677002,-0.05481821298599243
1696961689290957800,11.569957763671875,-0.8225069046020508,0.22853028774261475,-0.8895622491836548
1696961689300971300,11.57997119140625,-1.3993968963623047,-0.37136244773864746,-1.7221910953521729
1696961689310984700,11.589984619140624,-1.3478307723999023,-0.41993391513824463,-1.2297104597091675
1696961689320998100,11.599998046875,-2.1092376708984375,0.2567647695541382,-0.20979180932044983
1696961689331011800,11.61001171875,1.3792705535888672,-0.0037668943405151367,-1.00801682472229
1696961689341025300,11.620025390625,0.10952091217041016,-0.6651492118835449,-2.026122570037842
1696961689351038700,11.630038818359376,0.3810901641845703,-0.3063544034957886,-1.0908727645874023
1696961689361052200,11.64005224609375,2.263154983520508,0.45008277893066406,0.5153237581253052
1696961689371065600,11.650065673828125,-1.7466578483581543,-0.16691672801971436,-0.24737276136875153
1696961689381079000,11.6600791015625,0.1532583236694336,-0.842616081237793,-2.281332015991211
1696961689391092700,11.6700927734375,0.14388561248779297,-0.7437911033630371,-1.4799705743789673
1696961689401106200,11.680106201171874,1.8205633163452148,1.0542832612991333,-0.20766347646713257
1696961689411119600,11.69011962890625,1.443852424621582,-0.7545027732849121,-0.5972468256950378
1696961689421133000,11.700133056640626,-1.5376129150390625,-0.1571671962738037,-0.03450186550617218
1696961689431146500,11.710146484375,5.165961265563965,0.14193928241729736,0.18947389721870422
1696961689441160200,11.72016015625,-0.9626865386962891,-0.38921308517456055,-1.737438678741455
1696961689451173600,11.730173583984374,-0.05382061004638672,-0.13162827491760254,-1.755947232246399
1696961689461187000,11.74018701171875,0.5309734344482422,-0.5936229228973389,-0.10082736611366272
1696961689471200500,11.750200439453126,-2.12777042388916,0.02646470069885254,0.10708966851234436
1696961689481214000,11.7602138671875,3.3922500610351562,-0.05138421058654785,-1.8038318157196045
1696961689491227600,11.7702275390625,-1.4851865768432617,0.20687365531921387,-1.7709026336669922
1696961689501241000,11.780240966796875,1.0418901443481445,-0.9973793029785156,-1.5778629779815674
1696961689511254500,11.790254638671875,-1.6834144592285156,-0.3335365056991577,-0.5788388252258301
1696961689521268000,11.80026806640625,0.28003787994384766,-0.3028513193130493,-0.618742823600769
1696961689531281400,11.810281494140625,1.5134572982788086,0.3071935176849365,-1.4385830163955688
1696961689541295000,11.820295166015624,-1.4574594497680664,-0.39924323558807373,-1.2418692111968994
1696961689551308500,11.83030859375,0.5683002471923828,-0.27227938175201416,-0.9219058156013489
1696961689561322000,11.840322021484376,-1.0042076110839844,-0.3114278316497803,-0.44522756338119507
1696961689571335400,11.85033544921875,2.1380176544189453,0.7026181221008301,-1.1967189311981201
1696961689581348900,11.860348876953125,-0.5035133361816406,-0.0597376823425293,-1.202771782875061
1696961689591362600,11.870362548828124,-0.6413116455078125,0.49800682067871094,-1.0520260334014893
1696961689601376000,11.8803759765625,-0.8390369415283203,-0.867978572845459,-0.5120130181312561
1696961689611389400,11.890389404296876,-0.43611907958984375,0.6145435571670532,-0.7465786933898926
1696961689621403000,11.90040283203125,1.3867197036743164,-0.22428524494171143,-1.6112589836120605
1696961689631416300,11.910416259765626,-1.2405519485473633,0.5757533311843872,-1.1152650117874146
1696961689641430000,11.920429931640625,1.4341764450073242,-0.3723996877670288,-0.3667558431625366
1696961689651443500,11.930443359375,-1.211787223815918,0.0995182991027832,-0.4479043185710907
1696961689661457000,11.940456787109374,-0.2964763641357422,0.2786058187484741,-1.0987967252731323
1696961689671470300,11.95047021484375,0.4495859146118164,-0.42861831188201904,-1.3890912532806396
1696961689681483800,11.96048388671875,-2.0170998573303223,-0.6012016534805298,-0.9752223491668701
1696961689691497200,11.970497314453125,0.8401241302490234,0.36627650260925293,-0.32268664240837097
1696961689701511000,11.980510986328126,-0.7574462890625,-0.18841373920440674,-0.6306352019309998
1696961689711524400,11.9905244140625,-0.03053569793701172,0.21170198917388916,-0.9154065251350403
1696961689721537800,12.000537841796875,1.0883417129516602,-0.24092471599578857,-0.6938023567199707
1696961689731551200,12.01055126953125,-2.556690216064453,-0.026092171669006348,-1.3357912302017212
1696961689741564700,12.020564697265625,0.5172863006591797,-0.5006953477859497,-0.7234500646591187
1696961689751578400,12.030578369140626,1.2705926895141602,-0.21914052963256836,-0.816227912902832
1696961689761591800,12.040591796875,-0.4144620895385742,0.40042662620544434,-1.4076155424118042
1696961689771605200,12.050605224609376,0.5982379913330078,0.0545886754989624,-0.9252771139144897
1696961689781618700,12.06061865234375,-0.8650379180908203,-0.6890444755554199,-0.3215954303741455
1696961689791632100,12.070632080078125,-0.3768777847290039,-0.5689141750335693,-0.33680516481399536
1696961689801645800,12.080645751953124,2.859410285949707,0.07238507270812988,-0.898616373538971
1696961689811659300,12.0906591796875,-1.3246126174926758,-1.480844497680664,-1.3728752136230469
1696961689821672700,12.100672607421876,1.0386848449707031,0.40617144107818604,-0.8429853320121765
1696961689831686100,12.11068603515625,1.0605659484863281,-0.4579380750656128,-0.056840695440769196
1696961689841699600,12.120699462890625,-1.494680404663086,-1.1366605758666992,-0.3383248448371887
1696961689851713300,12.13071337890625,2.322366714477539,-1.0272438526153564,-1.06972074508667
1696961689861726700,12.140726806640625,-0.37318897247314453,0.5140688419342041,-1.2231863737106323
1696961689871740200,12.150740234375,-0.05787372589111328,-1.3827238082885742,-0.6429288387298584
1696961689881753600,12.160753662109375,0.30164337158203125,-0.04643380641937256,0.06384894251823425
1696961689891767000,12.17076708984375,0.29537010192871094,-0.9741953611373901,-0.5263341665267944
1696961689901780700,12.18078076171875,-0.6031742095947266,-0.1776050329208374,-0.8143628835678101
1696961689911794200,12.190794189453126,1.5005502700805664,-0.5515073537826538,-0.9088693857192993
1696961689921807600,12.2008076171875,-1.58941650390625,-1.0051498413085938,-0.7396775484085083
1696961689931821000,12.210821044921875,-0.8598537445068359,-0.9551950693130493,-1.3224681615829468
1696961689941834500,12.22083447265625,0.614842414855957,-0.33517444133758545,-1.017840027809143
1696961689951848200,12.23084814453125,0.8661098480224609,-1.062110424041748,-0.7734063863754272
1696961689961861600,12.240861572265626,-1.4096717834472656,-0.23506081104278564,-0.9689784049987793
1696961689971875000,12.250875,-0.5711584091186523,-1.5976758003234863,-0.4427374601364136
1696961689981888500,12.260888427734375,1.4195747375488281,0.18152058124542236,-0.6798795461654663
1696961689991902000,12.27090185546875,-2.2260289192199707,-1.3931103944778442,-0.39291834831237793
1696961690001915400,12.280915283203125,2.59613037109375,-0.02880382537841797,-0.4013597071170807
1696961690011929000,12.29092919921875,-0.3148012161254883,-1.5461452007293701,-0.6973701119422913
1696961690021942500,12.300942626953125,-1.7296438217163086,-0.41750454902648926,-0.43176552653312683
1696961690031956000,12.3109560546875,1.362360954284668,-0.5580763816833496,-0.689774215221405
1696961690041969400,12.320969482421875,-2.2306337356567383,-0.20909786224365234,-0.5795660018920898
1696961690051982800,12.33098291015625,1.5116872787475586,-0.85637366771698,-0.8325629830360413
1696961690061996500,12.34099658203125,-1.7897777557373047,-0.6760873794555664,-0.5222233533859253
1696961690072010000,12.351010009765625,0.765925407409668,-0.6511775255203247,-0.9474020004272461
1696961690082023400,12.3610234375,-1.9888181686401367,-0.8208976984024048,-0.8909740447998047
1696961690092036900,12.371036865234375,2.033781051635742,-1.0821821689605713,-0.7476211786270142
1696961690102050300,12.38105029296875,-1.850886344909668,-0.6981970071792603,-0.7246546745300293
1696961690112064000,12.39106396484375,-0.5532121658325195,-0.7078734636306763,-0.304410457611084
1696961690122077400,12.401077392578125,0.11303997039794922,-1.216220736503601,-0.6286646127700806
1696961690132091000,12.4110908203125,-0.23748016357421875,-0.6605656147003174,-1.2519500255584717
1696961690142104300,12.421104248046875,-0.365936279296875,-0.7924489974975586,-1.0933899879455566
1696961690152117800,12.43111767578125,1.2874431610107422,-0.8551608324050903,-0.2902950048446655
1696961690162131500,12.44113134765625,-0.38347625732421875,-0.9783436059951782,-0.64710932970047
1696961690172145000,12.451144775390626,0.8254804611206055,-0.8690670728683472,-0.7007485032081604
1696961690182158300,12.461158447265625,-1.1835136413574219,-0.7963851690292358,-0.717389702796936
1696961690192171800,12.471171875,2.2445545196533203,-0.5607271194458008,-0.16073396801948547
1696961690202185200,12.481185302734374,0.7294549942016602,-1.0128297805786133,-0.4021638333797455
1696961690212198700,12.49119873046875,0.09579277038574219,-0.8415429592132568,-0.2817351818084717
1696961690222212000,12.501212158203124,0.8985881805419922,-0.7209432125091553,0.014664486050605774
1696961690232225500,12.5112255859375,1.6985750198364258,-1.2124768495559692,-0.36415067315101624
1696961690242239000,12.521239013671876,-1.1341333389282227,-1.2236117124557495,-0.4930769205093384
1696961690252252400,12.53125244140625,1.7445545196533203,-0.6925582885742188,-0.352110356092453
1696961690262265900,12.541265869140625,-0.42798519134521484,-0.8628956079483032,-0.6809183955192566
1696961690272279300,12.551279296875,-0.43277454376220703,-1.2648537158966064,-0.6570766568183899
1696961690282292700,12.561292724609375,0.4250335693359375,-0.734688401222229,-0.8775206208229065
1696961690292306200,12.57130615234375,-0.8859968185424805,-1.3885726928710938,-0.012615956366062164
1696961690302319600,12.581319580078125,1.7311029434204102,0.13944590091705322,0.45788007974624634
1696961690312333000,12.5913330078125,0.4747648239135742,-0.9850656986236572,-0.7678345441818237
1696961690322346500,12.601346435546875,-2.259161949157715,-0.6054234504699707,-0.7052149772644043
