time,seconds_elapsed,z,y,x
1696958188936290300,0.148290283203125,-1.0859928131103516,-0.013078570365905762,0.2565089464187622
1696958188946185200,0.158185302734375,-1.2017364501953125,-0.6803677082061768,-0.3579595685005188
1696958188956113700,0.16811376953125,-2.8216018676757812,-0.4666175842285156,-0.5509551763534546
1696958188966077700,0.17807763671875,-0.8694095611572266,-0.08712446689605713,0.13392788171768188
1696958188976078000,0.188078125,-0.033141136169433594,-0.5874083042144775,-0.4900415539741516
1696958188986113800,0.19811376953125,-3.4115724563598633,-0.21677148342132568,-0.6044742465019226
1696958188996182300,0.208182373046875,0.5717983245849609,-0.3830636739730835,-0.14076268672943115
1696958189006280400,0.218280517578125,-1.5566062927246094,0.08462810516357422,0.0143088698387146
1696958189016403500,0.228403564453125,-0.6852149963378906,-0.7972002029418945,-0.518634021282196
1696958189026546000,0.2385458984375,-1.9361505508422852,0.04400908946990967,-0.14829301834106445
1696958189036702000,0.248701904296875,0.15335750579833984,-0.38216233253479004,-0.1162840723991394
1696958189046865400,0.258865478515625,-1.1918258666992188,0.15903115272521973,0.35369348526000977
1696958189057029600,0.269029541015625,0.26073646545410156,-0.4251840114593506,-0.5602514743804932
1696958189067068200,0.279068115234375,-2.8834280967712402,-0.08151257038116455,-0.3492256999015808
1696958189077081600,0.28908154296875,1.0682134628295898,0.3067188262939453,0.758212685585022
1696958189087095000,0.299094970703125,-0.5693988800048828,-0.5298768281936646,-0.43105795979499817
1696958189097108200,0.309108154296875,-3.0628151893615723,-0.17002403736114502,-0.7530767321586609
1696958189107121700,0.31912158203125,0.1600208282470703,0.21872353553771973,0.3613089323043823
1696958189117135000,0.329135009765625,-0.4227619171142578,-0.13257336616516113,-0.09882181882858276
1696958189127148300,0.339148193359375,-2.237314224243164,-0.557343602180481,-0.9010338187217712
1696958189137161700,0.34916162109375,-0.9434576034545898,0.1755201816558838,0.1665756106376648
1696958189147175000,0.3591748046875,0.4401540756225586,-0.07606852054595947,0.2521095275878906
1696958189157188400,0.369188232421875,-0.37619686126708984,-0.35770440101623535,-0.3512563109397888
1696958189167201800,0.379201904296875,-2.114150047302246,-0.2163313627243042,-0.448025107383728
1696958189177215000,0.389215087890625,-0.1687154769897461,-0.0725475549697876,0.6931757926940918
1696958189187228400,0.399228515625,1.4264116287231445,0.12758684158325195,-0.005296051502227783
1696958189197241600,0.40924169921875,-2.151339530944824,-0.2685730457305908,-0.3439719080924988
1696958189207255000,0.419255126953125,-0.7410316467285156,0.21724390983581543,-0.06568807363510132
1696958189217268200,0.429268310546875,0.5935382843017578,-0.2239152193069458,0.25584566593170166
1696958189227281700,0.43928173828125,-1.5541019439697266,-0.5730836391448975,-0.8621830940246582
1696958189237295000,0.449295166015625,-0.2352457046508789,0.32609236240386963,-0.618724524974823
1696958189247308300,0.459308349609375,0.5555143356323242,0.040846824645996094,0.004464387893676758
1696958189257321700,0.46932177734375,-0.9863777160644531,-0.09985613822937012,0.006637394428253174
1696958189267335000,0.4793349609375,-0.1258411407470703,-0.2937976121902466,-0.637226402759552
1696958189277348400,0.489348388671875,-1.470494270324707,-0.11298459768295288,-0.1393955945968628
1696958189287361800,0.49936181640625,0.8665456771850586,0.06776672601699829,0.2090943455696106
1696958189297375000,0.509375,0.1492319107055664,-0.58988356590271,-0.5246205925941467
1696958189307388400,0.519388427734375,-1.583237648010254,0.48632752895355225,-0.36598333716392517
1696958189317401600,0.529401611328125,1.840409278869629,-0.13098978996276855,0.3254390358924866
1696958189327415000,0.5394150390625,-0.7778282165527344,0.027498900890350342,0.1286279559135437
1696958189337428200,0.54942822265625,-0.8795528411865234,-0.48602065443992615,-0.4287360608577728
1696958189347441700,0.559441650390625,-1.063858985900879,0.0018653273582458496,-0.22156530618667603
1696958189357455000,0.569455078125,0.31438350677490234,-0.06239128112792969,0.1897350549697876
1696958189367468300,0.57946826171875,0.021689414978027344,-0.5796271562576294,-0.6660412549972534
1696958189377481700,0.589481689453125,-2.3289794921875,0.3308364152908325,-0.6521731019020081
1696958189387495000,0.599494873046875,2.2329235076904297,-0.28917574882507324,0.07225918769836426
1696958189397508400,0.60950830078125,-1.0859241485595703,0.16942113637924194,0.15935885906219482
1696958189407521800,0.619521728515625,-0.44569873809814453,-0.6110550165176392,-0.47063949704170227
1696958189417535000,0.629534912109375,-0.6165494918823242,0.5054032206535339,0.15605026483535767
1696958189427548400,0.63954833984375,0.7029924392700195,-0.2791343927383423,0.5189581513404846
1696958189437561900,0.649561767578125,0.196380615234375,-0.3636445999145508,-0.5562372803688049
1696958189447575300,0.6595751953125,-1.248337745666504,0.04249131679534912,-0.37482982873916626
1696958189457588500,0.66958837890625,0.5438709259033203,0.17231202125549316,0.20275956392288208
1696958189467602000,0.679601806640625,-0.19063377380371094,-0.19217777252197266,0.21177589893341064
1696958189477615400,0.689615478515625,-0.7583284378051758,-0.26145851612091064,-0.6794121265411377
1696958189487628800,0.69962890625,-0.6142005920410156,-0.13661515712738037,0.0847979187965393
1696958189497642200,0.709642333984375,0.3715801239013672,-0.11323577165603638,0.11016768217086792
1696958189507655400,0.719655517578125,0.4039306640625,-0.39816558361053467,-0.34261012077331543
1696958189517668900,0.7296689453125,-1.5322494506835938,0.22755742073059082,-0.3562577962875366
1696958189527682300,0.739682373046875,0.8553123474121094,-0.12532436847686768,0.28555750846862793
1696958189537695700,0.74969580078125,0.13017749786376953,-0.14428472518920898,0.06833285093307495
1696958189547709200,0.759709228515625,-0.4619112014770508,-0.4314098358154297,-0.621762752532959
1696958189557722400,0.769722412109375,-0.7433462142944336,-0.009540438652038574,-0.06416159868240356
1696958189567735800,0.77973583984375,1.0200729370117188,0.12064933776855469,0.6524704694747925
1696958189577749200,0.789749267578125,-0.3452577590942383,-0.4260815978050232,-0.28610533475875854
1696958189587762700,0.7997626953125,-1.1343755722045898,0.15505588054656982,-0.3220036029815674
1696958189597776000,0.80977587890625,0.24239063262939453,0.03395885229110718,0.5632424354553223
1696958189607789300,0.819789306640625,0.5087251663208008,-0.4793236553668976,0.03895813226699829
1696958189617802800,0.829802734375,-0.9824695587158203,0.2147994041442871,-0.3256959319114685
1696958189627816200,0.839816162109375,-1.012181282043457,-0.13864845037460327,0.18576818704605103
1696958189637829600,0.84982958984375,0.45754241943359375,0.22582542896270752,0.352020263671875
1696958189647842800,0.8598427734375,-0.4138212203979492,-0.5508729219436646,-0.46403953433036804
1696958189657856300,0.869856201171875,-1.9084291458129883,0.06942516565322876,-0.2048467993736267
1696958189667869700,0.87986962890625,0.9259805679321289,0.09286028146743774,0.35477161407470703
1696958189677883100,0.889883056640625,0.19556045532226562,-0.4623577892780304,-0.3542101979255676
1696958189687896600,0.899896484375,-2.2776994705200195,-0.3052976131439209,-0.4432923197746277
1696958189697910000,0.909909912109375,1.9061403274536133,0.6636457443237305,0.08230531215667725
1696958189707923500,0.91992333984375,-1.534501075744629,-0.3998120427131653,0.20080113410949707
1696958189717937000,0.92993701171875,0.6376810073852539,-0.4928371012210846,-0.4103865623474121
1696958189727950300,0.939950439453125,-1.0409603118896484,0.5545475482940674,-0.1048659086227417
1696958189737963800,0.9499638671875,0.5290298461914062,-0.2076079249382019,0.12895727157592773
1696958189747977200,0.959977294921875,-0.7794551849365234,-0.11007970571517944,-0.012010514736175537
1696958189757990700,0.96999072265625,0.7405204772949219,-0.27381014823913574,-0.5942351818084717
1696958189768004000,0.980004150390625,-1.6271066665649414,0.5119941234588623,-0.07162386178970337
1696958189778017500,0.990017578125,1.504023551940918,-0.13141286373138428,0.21339023113250732
1696958189788031000,1.000031005859375,-0.8627490997314453,-0.6477406024932861,-0.5654013156890869
1696958189798044400,1.01004443359375,-1.910782814025879,0.14830219745635986,-0.12795686721801758
1696958189808057900,1.020057861328125,1.9826183319091797,0.054859817028045654,0.235923171043396
1696958189818071300,1.0300712890625,-0.6503772735595703,-0.3648841977119446,0.08914482593536377
1696958189828084700,1.040084716796875,0.7456150054931641,-0.18590563535690308,-0.46485674381256104
1696958189838098200,1.05009814453125,-1.860661506652832,0.5827063322067261,0.2933160066604614
1696958189848111600,1.060111572265625,1.9615097045898438,0.7448281049728394,0.303178071975708
1696958189858125000,1.070125,-0.4391918182373047,-1.2777628898620605,-0.8206766843795776
1696958189868138500,1.080138427734375,-1.9530091285705566,-0.31450366973876953,-0.805884599685669
1696958189878152000,1.09015185546875,0.5948486328125,0.15763258934020996,0.3348627984523773
1696958189888165400,1.100165283203125,0.3757181167602539,0.5814895629882812,0.028965085744857788
1696958189898178800,1.1101787109375,0.799098014831543,-0.829541027545929,-1.125030755996704
1696958189908192300,1.120192138671875,-2.601306915283203,-0.3347283601760864,-0.4251595437526703
1696958189918205700,1.130205810546875,2.2497711181640625,0.43039822578430176,0.3541429936885834
1696958189928219100,1.14021923828125,0.14558982849121094,-0.6145685911178589,-0.40942585468292236
1696958189938232600,1.150232666015625,-0.4587221145629883,0.03892940282821655,-0.9158459901809692
1696958189948246000,1.16024609375,-0.2831869125366211,0.02523428201675415,0.3391561508178711
1696958189958259500,1.170259521484375,2.2165794372558594,0.4729846119880676,0.40180063247680664
1696958189968273000,1.18027294921875,-0.2814912796020508,-0.7109100818634033,-1.0703315734863281
1696958189978286000,1.1902861328125,-1.6038274765014648,0.0956963300704956,0.09687572717666626
1696958189988299500,1.200299560546875,2.598958969116211,-0.07894116640090942,0.725278377532959
1696958189998313000,1.21031298828125,-0.6056060791015625,-0.4682890474796295,-0.8008002042770386
1696958190008326400,1.220326416015625,-1.5454540252685547,0.14883607625961304,-0.1274038553237915
1696958190018339800,1.23033984375,2.419888496398926,0.1822928786277771,0.20079460740089417
1696958190028353000,1.24035302734375,-2.5312094688415527,-0.24242371320724487,-0.2569069266319275
1696958190038366500,1.250366455078125,1.1812334060668945,-0.3013472557067871,-0.6243950128555298
1696958190048380000,1.2603798828125,-2.685770034790039,-0.24892854690551758,-0.5476291179656982
1696958190058393300,1.270393310546875,0.1442556381225586,0.022047579288482666,-0.08339735865592957
1696958190068406800,1.28040673828125,0.6283931732177734,-0.15214401483535767,-0.8168684840202332
1696958190078420000,1.290419921875,-2.474734306335449,0.3468879461288452,-0.6479067802429199
1696958190088433400,1.300433349609375,0.7246294021606445,-0.17323380708694458,0.2801322937011719
1696958190098446800,1.31044677734375,-0.26914501190185547,0.17804962396621704,0.13230594992637634
1696958190108460300,1.320460205078125,-1.640542984008789,-0.4021860361099243,-0.40009307861328125
1696958190118473500,1.330473388671875,0.15982341766357422,0.10735684633255005,-0.14056748151779175
1696958190128487000,1.34048681640625,0.011412620544433594,-0.18486571311950684,0.23954850435256958
1696958190138500400,1.350500244140625,0.5011386871337891,-0.12406760454177856,-0.141015887260437
1696958190148513800,1.360513671875,-0.6816635131835938,0.19889318943023682,-0.6330946683883667
1696958190158527200,1.37052734375,-0.6382741928100586,0.23433834314346313,0.026820510625839233
1696958190168540400,1.38054052734375,0.3175210952758789,-0.4860658049583435,0.28904005885124207
1696958190178553900,1.390553955078125,-0.4978618621826172,-0.15263307094573975,-0.9494184255599976
1696958190188567300,1.4005673828125,-1.6876697540283203,0.0013050436973571777,-0.6640137434005737
1696958190198580700,1.410580810546875,1.815521240234375,0.48093777894973755,-0.08149760961532593
1696958190208594200,1.42059423828125,-1.2602691650390625,-0.5107032060623169,-0.5822030305862427
1696958190218607400,1.430607421875,-1.7409858703613281,0.02357351779937744,-0.782799243927002
1696958190228620800,1.440620849609375,1.4871158599853516,0.1738194227218628,0.13396358489990234
1696958190238634200,1.45063427734375,-0.8064756393432617,-0.023499250411987305,0.11599212884902954
1696958190248647700,1.460647705078125,0.5073375701904297,-0.470647931098938,-0.5444385409355164
1696958190258660900,1.470660888671875,-1.7079830169677734,0.379658579826355,0.35151445865631104
1696958190268674300,1.48067431640625,2.7613582611083984,-0.059770286083221436,0.46101102232933044
1696958190278687700,1.490687744140625,-1.2445507049560547,-0.13786816596984863,-0.15854021906852722
1696958190288701200,1.500701171875,0.6954784393310547,-0.10064977407455444,0.07899448275566101
1696958190298714600,1.510714599609375,-0.45110321044921875,0.18891054391860962,0.5690224170684814
1696958190308727800,1.520727783203125,1.0551462173461914,0.01827174425125122,0.23239049315452576
1696958190318741200,1.5307412109375,-0.5318107604980469,-0.5636959075927734,-0.551193356513977
1696958190328754700,1.540754638671875,-0.5806217193603516,-0.16321372985839844,0.17797008156776428
1696958190338768100,1.55076806640625,1.2362003326416016,0.3579251766204834,0.7013271450996399
1696958190348781600,1.560781494140625,0.5711860656738281,-0.2079949975013733,-0.2784392237663269
1696958190358794800,1.570794677734375,-1.3744688034057617,0.32360130548477173,-0.6689018607139587
1696958190368808200,1.58080810546875,0.12903118133544922,-0.3390251398086548,0.5277443528175354
1696958190378821600,1.590821533203125,0.5564603805541992,0.13490980863571167,0.14932534098625183
1696958190388835000,1.6008349609375,-0.28015708923339844,-0.3187413811683655,-0.8300917744636536
1696958190398848500,1.6108486328125,-1.1398487091064453,-0.005867421627044678,-0.29658371210098267
1696958190408861700,1.62086181640625,0.19096660614013672,0.06113153696060181,0.8146743774414062
1696958190418875100,1.630875244140625,1.2606267929077148,0.09469771385192871,-0.03413879871368408
1696958190428888600,1.640888671875,-1.3226938247680664,-0.18386167287826538,-0.6475460529327393
1696958190438902000,1.650902099609375,-0.2052936553955078,-0.1839965581893921,0.5288309454917908
1696958190448915200,1.660915283203125,1.8765783309936523,0.40590691566467285,0.8047690987586975
1696958190458928600,1.6709287109375,-1.0585956573486328,-0.5263988971710205,-0.3983679711818695
1696958190468942000,1.680942138671875,-0.31905269622802734,0.14543044567108154,-0.22336216270923615
1696958190478955500,1.69095556640625,1.425704002380371,-0.09050017595291138,0.7518550753593445
1696958190488969000,1.700968994140625,-0.049849510192871094,-0.4144212007522583,-0.1309933364391327
1696958190498982400,1.710982421875,-0.8734703063964844,-0.07538360357284546,-0.8142107129096985
1696958190508995800,1.720995849609375,-0.3870811462402344,-0.11294811964035034,0.6247937679290771
1696958190519009300,1.73100927734375,1.2674894332885742,-0.29508519172668457,-0.2729567885398865
1696958190529022700,1.741022705078125,-1.4020061492919922,0.11320942640304565,-0.8130487203598022
1696958190539036200,1.7510361328125,0.7780971527099609,-0.33492952585220337,-0.3435412347316742
1696958190549049600,1.761049560546875,-1.788522720336914,0.0394856333732605,0.27409836649894714
1696958190559063000,1.77106298828125,1.751082420349121,-0.2832813858985901,-0.5595371127128601
1696958190569076500,1.781076416015625,-2.5213913917541504,0.06385517120361328,-0.9132488965988159
1696958190579090000,1.79108984375,-0.034893035888671875,-0.22618335485458374,0.47376543283462524
1696958190589103400,1.801103271484375,1.423426628112793,0.17294824123382568,-0.05756574869155884
1696958190599116800,1.81111669921875,-2.47653865814209,-0.4469643831253052,-0.9016435742378235
1696958190609130200,1.821130126953125,0.08150959014892578,0.3231748938560486,-0.4159106910228729
1696958190619143700,1.831143798828125,0.0004024505615234375,-0.08600306510925293,0.6224596500396729
1696958190629157000,1.8411572265625,0.5529069900512695,0.03409457206726074,-0.2987236976623535
1696958190639170600,1.851170654296875,-0.9698143005371094,-0.3109840154647827,-0.57230544090271
1696958190649184000,1.86118408203125,-0.9501361846923828,0.13602328300476074,0.4639270603656769
1696958190659197400,1.871197509765625,2.3234472274780273,0.29722142219543457,0.7357373237609863
1696958190669211000,1.8812109375,-2.187178134918213,-0.16879063844680786,-0.8528903722763062
1696958190679224300,1.891224365234375,-0.5842885971069336,-0.11912047863006592,-0.3836309313774109
1696958190689237800,1.90123779296875,1.024862289428711,0.19357597827911377,0.3153292238712311
1696958190699251200,1.911251220703125,-0.7870273590087891,-0.24273043870925903,-0.3561510145664215
1696958190709264600,1.9212646484375,-1.4309730529785156,-0.13180017471313477,-0.6230229139328003
1696958190719278000,1.931278076171875,0.4157094955444336,-0.07292938232421875,-0.10033935308456421
1696958190729291500,1.94129150390625,-0.23907089233398438,0.1524229645729065,0.25483080744743347
1696958190739305000,1.951304931640625,-0.9294071197509766,-0.6513895988464355,-0.5836610794067383
1696958190749318400,1.961318359375,0.09541988372802734,0.07021236419677734,-0.45941251516342163
1696958190759331800,1.971331787109375,0.36162567138671875,-0.31158268451690674,0.43657875061035156
1696958190769345300,1.98134521484375,0.7839927673339844,-0.5786032676696777,0.08889204263687134
1696958190779358700,1.991358642578125,-1.0409345626831055,0.16197335720062256,0.11790117621421814
1696958190789372000,2.001371826171875,2.5246496200561523,-0.042349278926849365,0.3994177281856537
1696958190799385300,2.01138525390625,-0.07635688781738281,-0.23889243602752686,0.226843923330307
1696958190809398800,2.021398681640625,0.39090633392333984,-0.4874298870563507,-0.10407334566116333
1696958190819412200,2.031412109375,-0.46436119079589844,-0.11833709478378296,-0.12014466524124146
1696958190829425700,2.04142578125,0.8868370056152344,-0.030059516429901123,0.4275771975517273
1696958190839439000,2.051439208984375,0.7538652420043945,-0.15643107891082764,-0.08306884765625
1696958190849452500,2.06145263671875,-1.5811777114868164,-0.23955082893371582,-0.6302015781402588
1696958190859466000,2.071466064453125,1.077223777770996,-0.11431121826171875,0.12548524141311646
1696958190869479400,2.0814794921875,0.4188966751098633,-0.4627913534641266,-0.21408484876155853
1696958190879492900,2.091492919921875,-2.343386650085449,-0.35673636198043823,-0.7510497570037842
1696958190889506300,2.10150634765625,0.5904436111450195,0.20159929990768433,0.4338361918926239
1696958190899519700,2.111519775390625,1.6557741165161133,-0.18499255180358887,0.02993437647819519
1696958190909533200,2.121533203125,-2.805324077606201,-0.6466323137283325,-0.5271003246307373
1696958190919546600,2.131546630859375,0.1784687042236328,0.14135640859603882,0.18128538131713867
1696958190929560000,2.14156005859375,0.7974920272827148,0.038318753242492676,0.227565735578537
1696958190939573500,2.151573486328125,-0.6988458633422852,-0.5240600109100342,-0.3911299705505371
1696958190949587000,2.1615869140625,-0.871953010559082,-0.18778085708618164,-0.31262391805648804
1696958190959600400,2.171600341796875,0.23350238800048828,0.37720930576324463,0.18010684847831726
1696958190969613800,2.18161376953125,0.4706869125366211,-0.6023067235946655,-0.26011478900909424
1696958190979627300,2.191627197265625,-2.6929502487182617,-0.447580486536026,-0.378030925989151
1696958190989640700,2.201640625,1.2532196044921875,0.2323085069656372,-0.4200330376625061
1696958190999654100,2.211654052734375,-0.22099685668945312,-0.250135600566864,-0.010999113321304321
1696958191009667600,2.22166748046875,-0.9785003662109375,-0.8269519805908203,-0.6089873909950256
1696958191019681000,2.231680908203125,0.28023815155029297,0.20197534561157227,-0.5297441482543945
1696958191029694500,2.241694580078125,-0.32190418243408203,-0.41360270977020264,-0.32464227080345154
1696958191039708000,2.2517080078125,-0.34422779083251953,-0.06247478723526001,-0.031716763973236084
1696958191049721300,2.261721435546875,0.5396690368652344,-0.5728635787963867,-0.5322802662849426
1696958191059734800,2.27173486328125,-1.904526710510254,-0.36027514934539795,-0.07084459066390991
1696958191069748200,2.281748291015625,2.630049705505371,0.11065548658370972,-0.12880119681358337
1696958191079761700,2.29176171875,-2.703899383544922,-0.7725703716278076,-0.19753775000572205
1696958191089775000,2.301775146484375,0.8656482696533203,0.011006057262420654,-0.1557423174381256
1696958191099788500,2.31178857421875,0.5952129364013672,-0.09067773818969727,-0.1293187141418457
1696958191109802000,2.321802001953125,-1.0245494842529297,-0.4451145827770233,-0.16454049944877625
1696958191119815400,2.3318154296875,0.09139728546142578,-0.22419536113739014,-0.12606558203697205
1696958191129828900,2.341828857421875,-0.12380313873291016,-0.22266095876693726,-0.4519197940826416
1696958191139842300,2.35184228515625,0.15336227416992188,-0.11045587062835693,-0.11883588135242462
1696958191149855700,2.361855712890625,-0.30039024353027344,-0.44473084807395935,-0.7240785956382751
1696958191159869200,2.371869140625,-1.110269546508789,-0.29090315103530884,-0.12340974807739258
1696958191169882600,2.381882568359375,1.9045524597167969,-0.37473195791244507,-0.10977017879486084
1696958191179896000,2.39189599609375,-0.8131866455078125,-0.5154131650924683,-0.0736900269985199
1696958191189909500,2.401909423828125,0.29680538177490234,-0.5622622966766357,-0.3140048086643219
1696958191199923000,2.4119228515625,0.26215076446533203,-0.1582571268081665,0.6201255321502686
1696958191209936400,2.421936279296875,1.5440921783447266,-0.7457379102706909,0.2964247167110443
1696958191219949800,2.43194970703125,-1.3439292907714844,-0.3336947560310364,-0.3175349235534668
1696958191229963500,2.441963623046875,1.270827293395996,-0.6348156332969666,0.3859628736972809
1696958191239977200,2.451977294921875,1.1989459991455078,-0.46433207392692566,0.3303000330924988
1696958191249990700,2.46199072265625,-1.9982166290283203,-0.853489875793457,-0.006739318370819092
1696958191260004000,2.472004150390625,1.8456354141235352,-0.09812456369400024,-0.37034860253334045
1696958191270017500,2.482017578125,-0.9576711654663086,-0.4714951813220978,0.4259387254714966
1696958191280031000,2.492031005859375,0.05263042449951172,-0.6080109477043152,-0.2973151206970215
1696958191290044400,2.50204443359375,-1.002079963684082,-0.3486395478248596,-0.5033876299858093
1696958191300057900,2.512057861328125,-0.3921775817871094,-0.3328093886375427,0.10235342383384705
1696958191310071300,2.5220712890625,-0.31906795501708984,-0.8715092539787292,-0.2476685792207718
1696958191320084700,2.532084716796875,-2.875401496887207,-0.305749773979187,-0.20130959153175354
1696958191330098200,2.54209814453125,1.6784391403198242,-0.19509559869766235,-0.3872704803943634
1696958191340111600,2.552111572265625,-1.7542028427124023,-0.3379114866256714,0.08273056149482727
1696958191350125000,2.562125,0.23264503479003906,-0.978454053401947,-0.14539873600006104
1696958191360138500,2.572138427734375,-1.1235713958740234,-0.34429195523262024,-0.4394795894622803
1696958191370152000,2.58215185546875,0.5125961303710938,-0.14603263139724731,0.21551480889320374
1696958191380165400,2.592165283203125,-1.1788606643676758,-0.9510311484336853,-0.046278923749923706
1696958191390178800,2.6021787109375,0.19011592864990234,-0.07721388339996338,-0.4574826955795288
1696958191400192300,2.612192138671875,0.3468284606933594,-0.5864167213439941,-0.11383399367332458
1696958191410205700,2.622205810546875,-0.31346607208251953,-0.5793912410736084,-0.35241246223449707
1696958191420219100,2.63221923828125,0.4177713394165039,-0.9186873435974121,-0.5853708982467651
1696958191430232600,2.642232666015625,-0.8009223937988281,-0.6062713265419006,-0.42966601252555847
1696958191440246000,2.65224609375,1.6693153381347656,-0.8158326148986816,-0.017888188362121582
1696958191450259500,2.662259521484375,1.0902204513549805,-0.6542928814888,-0.09675222635269165
1696958191460273000,2.67227294921875,0.01694965362548828,-0.6686919331550598,0.17687484622001648
1696958191470286300,2.682286376953125,1.4437475204467773,-0.8401709198951721,0.4521646797657013
1696958191480300300,2.69230029296875,1.9440765380859375,-0.4643566608428955,0.07021486759185791
1696958191490313200,2.702313232421875,-0.31590843200683594,-0.6546793580055237,-0.29889899492263794
1696958191500326100,2.712326171875,0.42483997344970703,-0.2334531545639038,-0.3176315426826477
1696958191510339000,2.722339111328125,1.1918973922729492,-0.3070685565471649,0.242331862449646
1696958191520352000,2.73235205078125,0.6719655990600586,-0.843816339969635,-0.00046056509017944336
1696958191530365000,2.742364990234375,-0.4710960388183594,-0.5050435662269592,-0.5674914121627808
1696958191540377900,2.7523779296875,0.11297988891601562,-0.5106606483459473,-0.2017599195241928
1696958191550391000,2.76239111328125,1.5402297973632812,-0.31738707423210144,0.5877125263214111
1696958191560404500,2.772404541015625,0.6038436889648438,-0.7083566784858704,-0.3698562681674957
1696958191570417700,2.782417724609375,-1.469614028930664,-0.48985448479652405,-0.03708237409591675
1696958191580431400,2.792431396484375,1.6672544479370117,-0.248915433883667,0.6273303031921387
1696958191590444800,2.80244482421875,0.7116575241088867,-0.8891823291778564,-0.17509925365447998
1696958191600458500,2.81245849609375,-1.7729425430297852,-0.16194534301757812,-0.6734300851821899
1696958191610472200,2.82247216796875,1.0263690948486328,-0.1251920461654663,0.46565645933151245
1696958191620486100,2.832486083984375,-0.10352802276611328,-0.11559915542602539,0.1634160876274109
1696958191630499800,2.842499755859375,-0.6282386779785156,-0.5461807250976562,-0.9475680589675903
1696958191640513800,2.852513671875,-1.5992670059204102,0.15395140647888184,0.1563359797000885
1696958191650527700,2.86252783203125,0.36859798431396484,0.2577325701713562,0.33126914501190186
1696958191660541400,2.87254150390625,-1.2412786483764648,-0.3203641474246979,-0.28829270601272583
1696958191670555100,2.88255517578125,-1.7905340194702148,0.1637730598449707,-0.511261522769928
1696958191680568600,2.892568603515625,-0.2419757843017578,-0.22002148628234863,0.3996254801750183
1696958191690582000,2.90258203125,-1.9263195991516113,0.056967198848724365,-0.03633418679237366
1696958191700595500,2.912595458984375,-0.7596092224121094,-0.2810801565647125,-0.6263662576675415
1696958191710609000,2.92260888671875,-2.29404354095459,0.8086107969284058,-0.3571346402168274
1696958191720622300,2.932622314453125,-0.5482854843139648,-0.0077231526374816895,0.33269211649894714
1696958191730635800,2.9426357421875,-2.575655937194824,-0.03958690166473389,-0.3592120409011841
1696958191740649200,2.952649169921875,-2.0418810844421387,0.4811585545539856,-0.5457808971405029
1696958191750662700,2.96266259765625,-2.693779945373535,0.6887527108192444,-0.334556519985199
1696958191760676000,2.972676025390625,-2.9046273231506348,0.40698176622390747,-0.7742919921875
1696958191770689500,2.982689453125,-4.136500358581543,0.8183882832527161,-1.2274919748306274
1696958191780703000,2.992702880859375,-6.567327499389648,0.6922849416732788,-0.4933930039405823
1696958191790716400,3.00271630859375,-1.126347541809082,-0.09058570861816406,1.0355963706970215
1696958191800729900,3.012729736328125,0.6288671493530273,-0.7724329233169556,-0.08635637164115906
1696958191810743300,3.022743408203125,2.306486129760742,-0.611836314201355,0.44662904739379883
1696958191820756700,3.0327568359375,1.7584352493286133,-1.8698182106018066,0.8894789218902588
1696958191830770200,3.042770263671875,1.4554986953735352,1.783341884613037,1.723777174949646
1696958191840783600,3.05278369140625,-1.7780838012695312,-1.0376334190368652,1.9292335510253906
1696958191850797000,3.062797119140625,-2.7528586387634277,-1.283719539642334,0.7521671056747437
1696958191860810500,3.072810546875,6.599676132202148,-2.3685290813446045,0.7309950590133667
1696958191870824000,3.082823974609375,2.7717790603637695,-1.0637513399124146,0.563927173614502
1696958191880837400,3.09283740234375,4.728646278381348,-0.42063361406326294,-0.6784219145774841
1696958191890850800,3.102850830078125,-2.029938220977783,-1.5342016220092773,-1.223201870918274
1696958191900864300,3.1128642578125,3.3529109954833984,-1.3799049854278564,0.5004523396492004
1696958191910877700,3.122877685546875,4.17750358581543,-1.2341653108596802,0.437610924243927
1696958191920891100,3.13289111328125,-1.2896862030029297,-2.3218510150909424,1.0799217224121094
1696958191930904600,3.142904541015625,5.824554443359375,-0.29829561710357666,1.2149025201797485
1696958191940918000,3.15291796875,3.1746864318847656,-0.14188805222511292,-0.6485201716423035
1696958191950931500,3.162931396484375,-0.04470539093017578,-0.5027651190757751,-1.1113828420639038
1696958191960945000,3.17294482421875,3.288689613342285,-1.0740464925765991,-0.7909067869186401
1696958191970958300,3.182958251953125,3.5509214401245117,-0.06895008683204651,0.4813738167285919
1696958191980971800,3.1929716796875,2.732937812805176,0.5884143114089966,0.4829581379890442
1696958191990985200,3.202985107421875,1.4730710983276367,-0.4584607481956482,0.31296202540397644
1696958192000998700,3.21299853515625,-0.9524068832397461,-0.8146013021469116,0.22146204113960266
1696958192011012000,3.22301220703125,2.2170000076293945,-0.7289435863494873,-0.5977904796600342
1696958192021025500,3.233025634765625,-0.08663749694824219,-0.4236285984516144,-1.284436821937561
1696958192031039000,3.2430390625,0.6496047973632812,-0.14546814560890198,-0.4109407365322113
1696958192041052400,3.253052490234375,1.6224298477172852,0.22494542598724365,-0.40128880739212036
1696958192051065900,3.26306591796875,-0.5122280120849609,-0.20049652457237244,-1.0863690376281738
1696958192061079300,3.273079345703125,-0.9827594757080078,-0.8398022651672363,-0.6941192746162415
1696958192071092700,3.2830927734375,0.13849735260009766,-0.5880182981491089,-0.015143126249313354
1696958192081106200,3.293106201171875,2.0442581176757812,-0.07153761386871338,-1.0906500816345215
1696958192091119600,3.30311962890625,-0.8458642959594727,0.21155387163162231,-1.0047743320465088
1696958192101133000,3.313133056640625,-0.5178489685058594,-0.4266183078289032,-0.29886361956596375
1696958192111146500,3.323146484375,-0.09988594055175781,-0.4620790183544159,0.18477633595466614
1696958192121160000,3.333159912109375,-0.8058338165283203,-0.4227088689804077,-0.9520697593688965
1696958192131173400,3.34317333984375,-0.9601430892944336,0.3407922387123108,-1.1274698972702026
1696958192141186800,3.353186767578125,-0.7843284606933594,-0.45622575283050537,-0.29784107208251953
1696958192151200300,3.3632001953125,1.129471778869629,-0.304239958524704,-0.541002631187439
1696958192161213700,3.373213623046875,-2.698904514312744,-0.0126723051071167,-0.9803746342658997
1696958192171227100,3.38322705078125,0.33849430084228516,0.22854560613632202,-0.27108991146087646
1696958192181240600,3.393240478515625,-0.7697772979736328,-0.0398564338684082,0.15036135911941528
1696958192191254000,3.40325390625,0.07387447357177734,-0.32774612307548523,-0.45666152238845825
1696958192201267500,3.413267333984375,-2.538154125213623,0.4139634966850281,-0.29571768641471863
1696958192211281000,3.423281005859375,1.0381278991699219,-0.11811709403991699,0.6974901556968689
1696958192221294300,3.43329443359375,-0.5691184997558594,0.08219647407531738,0.23110681772232056
1696958192231307800,3.443307861328125,-1.2121496200561523,-0.32791826128959656,-0.6628456115722656
1696958192241321200,3.4533212890625,-1.7046213150024414,0.24070465564727783,-0.13744816184043884
1696958192251334700,3.463334716796875,0.29749584197998047,0.05908000469207764,0.3365733325481415
1696958192261348000,3.47334814453125,-0.7204666137695312,-0.37056776881217957,0.014352798461914062
1696958192271361500,3.483361572265625,-2.031735420227051,-0.558997631072998,-0.00836557149887085
1696958192281375000,3.493375,0.29615116119384766,-0.06577736139297485,0.4152616560459137
1696958192291388400,3.503388427734375,-0.8461399078369141,-0.21900969743728638,0.576518714427948
1696958192301401900,3.51340185546875,-0.4901008605957031,-0.49326983094215393,0.45046502351760864
1696958192311415300,3.523415283203125,-0.5364246368408203,-0.4237200915813446,0.05498158931732178
1696958192321428700,3.5334287109375,-0.4152555465698242,-0.16289609670639038,0.712661862373352
1696958192331442200,3.543442138671875,0.9520769119262695,-0.2639003098011017,0.6411070823669434
1696958192341455600,3.55345556640625,-1.3484077453613281,-0.3405303657054901,-0.2257717251777649
1696958192351469000,3.563468994140625,-1.2538175582885742,-0.5342410802841187,0.6125457882881165
1696958192361482500,3.573482421875,2.5142059326171875,0.03185957670211792,0.6108627319335938
1696958192371496000,3.583495849609375,-1.610952377319336,-0.7279115319252014,-0.1705041527748108
1696958192381509400,3.59350927734375,-1.945497989654541,-0.11866742372512817,0.5235162377357483
1696958192391522800,3.603522705078125,2.273509979248047,-0.45613232254981995,0.8864157199859619
1696958192401536300,3.613536376953125,-1.4590234756469727,-0.04070544242858887,0.5653557777404785
1696958192411549700,3.6235498046875,0.522608757019043,-0.7388243675231934,-0.2044905424118042
1696958192421563100,3.633563232421875,-2.583979606628418,-0.265693336725235,0.4099724292755127
1696958192431576600,3.64357666015625,2.143374443054199,-0.7200233936309814,0.9172683358192444
1696958192441590000,3.653590087890625,-0.6526975631713867,-0.5315521359443665,-0.020825982093811035
1696958192451603500,3.663603515625,-0.8802070617675781,-0.36133214831352234,-0.041960716247558594
1696958192461617000,3.673616943359375,0.5127162933349609,-0.048125386238098145,0.6709378361701965
1696958192471630300,3.68363037109375,0.6069145202636719,-0.7383509874343872,0.4274473190307617
1696958192481643800,3.693643798828125,-1.7596588134765625,0.004450023174285889,-0.8688482642173767
1696958192491657200,3.7036572265625,-0.22091388702392578,-0.5656498670578003,0.3018382787704468
1696958192501670700,3.713670654296875,1.070134162902832,-0.1888675093650818,0.06376558542251587
1696958192511684000,3.72368408203125,-1.8229503631591797,-1.0125021934509277,-0.22630655765533447
1696958192521697500,3.733697509765625,-0.6040639877319336,-0.04845857620239258,-0.4175722599029541
1696958192531711000,3.7437109375,-0.24795818328857422,-0.6103172302246094,0.11493104696273804
1696958192541724400,3.753724365234375,-1.1543502807617188,-0.6928026080131531,-0.3995116055011749
1696958192551737900,3.76373779296875,-0.7106571197509766,-1.2982733249664307,-0.7634117007255554
1696958192561751300,3.773751220703125,-2.890794277191162,-1.1658223867416382,0.1826554536819458
1696958192571764700,3.7837646484375,2.2069406509399414,-1.6176553964614868,0.5296249985694885
1696958192581778200,3.793778076171875,-1.1752395629882812,-0.015762031078338623,0.9287744760513306
1696958192591791600,3.80379150390625,3.019174575805664,0.8191879987716675,0.9418292045593262
1696958192601805000,3.81380517578125,1.8417415618896484,-1.4216011762619019,0.7057284116744995
1696958192611818500,3.823818603515625,-1.8125972747802734,-0.9301987290382385,0.6149676442146301
1696958192621832000,3.83383203125,2.703120231628418,0.7534711360931396,0.004198849201202393
1696958192631845400,3.843845458984375,-0.5758419036865234,0.9858450889587402,0.13062959909439087
1696958192641858800,3.85385888671875,0.02329730987548828,-0.7710323333740234,0.23364204168319702
1696958192651872300,3.863872314453125,-0.21996593475341797,-1.0017589330673218,-0.4227674901485443
1696958192661885700,3.8738857421875,0.1822977066040039,0.34394770860671997,0.23026371002197266
1696958192671899100,3.883899169921875,2.690805435180664,0.6883877515792847,0.04732063412666321
1696958192681912300,3.893912353515625,-2.381326198577881,-0.40801119804382324,-0.6036760210990906
1696958192691925800,3.90392578125,0.54901123046875,-1.206752061843872,0.5450161695480347
1696958192701939200,3.913939208984375,0.8295164108276367,0.5945113301277161,0.18205761909484863
1696958192711952600,3.92395263671875,-1.0701179504394531,1.713658332824707,-0.7181377410888672
1696958192721966000,3.933966064453125,1.287801742553711,0.305458664894104,-0.56546950340271
1696958192731979500,3.9439794921875,0.6578350067138672,0.2769618034362793,-0.19845044612884521
1696958192741993000,3.953992919921875,1.0949668884277344,0.17023473978042603,-0.1786411702632904
1696958192752006400,3.96400634765625,-1.7757339477539062,0.4267163872718811,0.03514087200164795
1696958192762019800,3.974019775390625,2.4518165588378906,-0.24779140949249268,0.41319993138313293
1696958192772033300,3.984033203125,0.7008380889892578,0.44089066982269287,0.05032572150230408
1696958192782046700,3.994046630859375,-0.5257110595703125,0.48320358991622925,-0.7220263481140137
1696958192792060400,4.004060302734375,0.8938388824462891,-0.22310835123062134,-0.07375600934028625
1696958192802073900,4.014073974609375,1.2299118041992188,-0.48886415362358093,0.443098783493042
1696958192812087300,4.02408740234375,0.2125720977783203,-0.5484119653701782,-0.3377196788787842
1696958192822100700,4.034100830078125,-0.018400192260742188,0.25300663709640503,-0.5930752754211426
1696958192832114200,4.0441142578125,1.7202625274658203,-0.11981624364852905,-0.20767073333263397
1696958192842128000,4.0541279296875,-0.7078027725219727,-0.1865173578262329,-0.707763671875
1696958192852141300,4.064141357421875,-0.8790712356567383,-0.16949748992919922,-0.8769818544387817
1696958192862154800,4.07415478515625,0.613520622253418,0.22320836782455444,0.14960885047912598
1696958192872168200,4.084168212890625,1.7391204833984375,-0.48630157113075256,-0.369769424200058
1696958192882181600,4.094181640625,-1.950355052947998,-0.02886289358139038,-0.6318466067314148
1696958192892195300,4.1041953125,0.3716115951538086,-0.2272847294807434,0.08249938488006592
1696958192902208800,4.114208740234375,0.6474409103393555,0.14071577787399292,-0.020621955394744873
1696958192912222200,4.12422216796875,-0.8027973175048828,-0.2906074821949005,-0.3612147569656372
1696958192922235600,4.134235595703125,-0.8872585296630859,0.08925813436508179,-0.30354949831962585
1696958192932249000,4.1442490234375,-0.08734703063964844,0.005197048187255859,0.4832358956336975
1696958192942262800,4.1542626953125,0.5528469085693359,-0.3628840148448944,-0.21905899047851562
1696958192952276200,4.164276123046875,-2.3305654525756836,-0.16621017456054688,-0.486730694770813
1696958192962289700,4.17428955078125,0.365478515625,-0.12527185678482056,0.10362771153450012
1696958192972303000,4.18430322265625,-0.5530929565429688,0.11073154211044312,0.19385981559753418
1696958192982316500,4.194316650390625,-1.264108657836914,-0.3338640034198761,-0.5286118388175964
1696958192992330000,4.204330078125,-1.3231620788574219,-0.04796475172042847,-0.06657224893569946
1696958193002343700,4.21434375,0.36229419708251953,-0.02535480260848999,0.5461559891700745
1696958193012357000,4.224357177734375,-1.292226791381836,-0.40255647897720337,-0.27573657035827637
1696958193022370600,4.23437060546875,-0.9689807891845703,0.25781911611557007,-0.3402913808822632
1696958193032384000,4.244384033203125,0.9929227828979492,0.05627375841140747,0.11273044347763062
1696958193042397400,4.2543974609375,-1.7955312728881836,-0.1731175184249878,0.328446626663208
1696958193052411100,4.2644111328125,-0.1903371810913086,-0.0026701688766479492,-0.4404914379119873
1696958193062424600,4.274424560546875,-0.7392568588256836,0.3454859256744385,0.2554782032966614
1696958193072438000,4.28443798828125,1.3605527877807617,-0.1801285743713379,0.22978442907333374
1696958193082451500,4.294451416015625,-1.5769710540771484,-0.1729028820991516,-0.04752323031425476
1696958193092465000,4.30446484375,0.44842052459716797,0.4423765540122986,0.2074020504951477
1696958193102478600,4.314478515625,0.6242580413818359,-0.036139488220214844,0.2484513521194458
1696958193112492000,4.324491943359375,-1.1311750411987305,-0.22583255171775818,0.28860563039779663
1696958193122505500,4.33450537109375,0.36270904541015625,0.36524081230163574,0.06596571207046509
1696958193132519000,4.344518798828125,0.2279214859008789,0.21637427806854248,0.334578275680542
1696958193142532400,4.354532470703125,1.307546615600586,-0.21241244673728943,0.4401020407676697
1696958193152545800,4.3645458984375,-2.107912540435791,0.28857290744781494,-0.04651367664337158
1696958193162559200,4.374559326171875,1.1851062774658203,0.10345339775085449,0.5233364105224609
1696958193172572700,4.38457275390625,0.7092132568359375,0.21805894374847412,0.4627220034599304
1696958193182586000,4.394586181640625,-1.070444107055664,-0.3179002106189728,-0.27196431159973145
1696958193192599600,4.404599609375,-0.10721397399902344,0.6485680341720581,0.19703057408332825
1696958193202613000,4.414613037109375,1.451035499572754,-0.06285607814788818,0.07530650496482849
1696958193212626400,4.42462646484375,-1.0996313095092773,-0.20300725102424622,-0.2697029113769531
1696958193222639900,4.434639892578125,-0.4612874984741211,0.012594878673553467,-0.38359230756759644
1696958193232653300,4.4446533203125,0.4098339080810547,0.671012818813324,-0.06018245220184326
1696958193242666800,4.454666748046875,0.21328067779541016,-0.37137195467948914,0.0037857890129089355
1696958193252680200,4.46468017578125,-1.7035512924194336,0.3659887909889221,-0.2899256646633148
1696958193262693600,4.474693603515625,2.004434585571289,-0.03604096174240112,0.05880296230316162
1696958193272707000,4.48470703125,-0.29874610900878906,0.36064034700393677,-0.10262453556060791
1696958193282720500,4.494720458984375,-0.6277675628662109,0.012190103530883789,-0.08960369229316711
1696958193292734000,4.50473388671875,0.7549686431884766,0.336294949054718,0.29811766743659973
1696958193302747400,4.514747314453125,0.6577348709106445,0.371442973613739,0.0665205717086792
1696958193312760800,4.5247607421875,-1.518448829650879,-0.3802511394023895,-0.19366323947906494
1696958193322774300,4.534774169921875,1.2951793670654297,0.5786716938018799,0.1663018763065338
1696958193332787700,4.54478759765625,1.0580549240112305,0.18513929843902588,0.028904974460601807
1696958193342801200,4.55480126953125,-2.9590797424316406,0.1091010570526123,-0.44260284304618835
1696958193352814600,4.564814697265625,2.7540159225463867,-0.06923812627792358,-0.37632623314857483
1696958193362828000,4.574828125,-1.9595274925231934,0.11876994371414185,-0.06569090485572815
1696958193372841500,4.584841552734375,-0.3110933303833008,0.2883174419403076,-0.20150873064994812
1696958193382855000,4.59485498046875,0.6934347152709961,0.024529635906219482,-0.22065497934818268
1696958193392868400,4.604868408203125,-0.24485015869140625,0.26981520652770996,0.18089160323143005
1696958193402881800,4.6148818359375,-0.492584228515625,0.12884408235549927,0.12233865261077881
1696958193412895200,4.624895263671875,-0.4056434631347656,-0.3181822597980499,-0.19069579243659973
1696958193422908700,4.63490869140625,1.4499034881591797,0.6849856972694397,0.3265337347984314
1696958193432922000,4.644922119140625,-1.3683538436889648,0.14134877920150757,0.27694201469421387
1696958193442935600,4.654935546875,0.21636390686035156,0.30911606550216675,-0.07468047738075256
1696958193452949000,4.664948974609375,1.3440132141113281,0.14659637212753296,0.4644135534763336
1696958193462962400,4.67496240234375,-3.008213520050049,0.3867097496986389,0.16931584477424622
1696958193472976000,4.684975830078125,1.7871465682983398,-0.19240057468414307,-0.16340205073356628
1696958193482989300,4.6949892578125,-1.1129226684570312,0.7453043460845947,0.06804993748664856
1696958193493002800,4.705002685546875,-0.9144840240478516,0.14615368843078613,0.21446216106414795
1696958193503016200,4.71501611328125,-0.4489870071411133,0.4766731858253479,-0.1341761350631714
1696958193513029600,4.725029541015625,0.09691238403320312,0.3766266703605652,-0.18338161706924438
1696958193523043000,4.73504296875,-2.8089632987976074,0.1809675097465515,0.0018690824508666992
1696958193533056500,4.745056396484375,1.2739505767822266,0.4125211238861084,0.17475497722625732
1696958193543070000,4.755070068359375,-0.2249431610107422,0.31803470849990845,-0.564757227897644
1696958193553083400,4.76508349609375,-3.3500146865844727,0.03621166944503784,-0.19540905952453613
1696958193563096800,4.775096923828125,2.4833898544311523,0.023366808891296387,-0.4033278822898865
1696958193573110300,4.7851103515625,-1.536820411682129,0.5461387038230896,-0.7874680757522583
1696958193583123700,4.795123779296875,-2.020841598510742,-0.10099267959594727,-1.1965473890304565
1696958193593137200,4.80513720703125,0.1299915313720703,0.36993664503097534,-0.9106501340866089
1696958193603150600,4.815150634765625,-1.2940607070922852,0.4960712790489197,-0.8633830547332764
1696958193613164000,4.8251640625,-0.8607349395751953,-0.788405179977417,-0.20181548595428467
1696958193623177500,4.835177490234375,3.2465438842773438,-0.8149792551994324,-0.5565616488456726
1696958193633191000,4.84519091796875,-0.8566074371337891,0.04505044221878052,-1.6620646715164185
1696958193643204400,4.855204345703125,-2.952216148376465,-1.1148357391357422,0.10580003261566162
1696958193653217800,4.8652177734375,7.133735656738281,-0.5527791380882263,-0.6501926779747009
1696958193663231200,4.875231201171875,-1.0598039627075195,-0.7645663022994995,-0.09603667259216309
1696958193673244700,4.88524462890625,0.8255481719970703,-0.5107470750808716,0.8719394207000732
1696958193683258000,4.895258056640625,3.7533187866210938,-0.1409820318222046,1.2514281272888184
1696958193693271600,4.905271484375,-0.3082246780395508,0.9381469488143921,-0.38241642713546753
1696958193703285000,4.915284912109375,-0.16423320770263672,0.45566022396087646,-0.6398834586143494
1696958193713298400,4.92529833984375,0.4053354263305664,0.2488788366317749,-0.311679482460022
1696958193723311900,4.935311767578125,1.145359992980957,0.013442754745483398,-0.2866261601448059
1696958193733325600,4.94532568359375,1.295750617980957,-0.3611506223678589,0.14541983604431152
1696958193743339000,4.955339111328125,0.1892843246459961,-0.27165815234184265,1.1675803661346436
1696958193753352400,4.9653525390625,0.08861351013183594,-0.4682650864124298,0.6903531551361084
1696958193763366000,4.975365966796875,1.5938701629638672,-0.7162666320800781,0.7068195343017578
1696958193773379300,4.98537939453125,1.5998811721801758,0.035822153091430664,0.6983303427696228
1696958193783393000,4.99539306640625,0.04780769348144531,-0.4827529191970825,1.5303118228912354
1696958193793406500,5.005406494140625,2.1216888427734375,0.34284716844558716,1.7550221681594849
1696958193803420000,5.015419921875,2.259892463684082,0.23959970474243164,1.1347920894622803
1696958193813433300,5.025433349609375,-2.4768142700195312,0.15359371900558472,0.7044088244438171
1696958193823446800,5.03544677734375,0.611180305480957,-0.37174034118652344,0.9896530508995056
1696958193833460500,5.04546044921875,-1.8461503982543945,1.263387680053711,1.3566336631774902
1696958193843474000,5.055473876953125,0.5135068893432617,0.8758826851844788,0.1577199101448059
1696958193853487400,5.0654873046875,-0.04661273956298828,0.8225754499435425,0.8692410588264465
1696958193863500800,5.075500732421875,-0.2760162353515625,0.21719437837600708,0.5027398467063904
1696958193873514200,5.08551416015625,-5.016238212585449,-0.4373261034488678,0.5189258456230164
1696958193883528000,5.09552783203125,0.7353219985961914,0.3793102502822876,0.34625476598739624
1696958193893541400,5.105541259765625,-0.49916744232177734,0.13005852699279785,0.21776574850082397
1696958193903554800,5.115554931640625,-2.113448143005371,0.08985090255737305,0.23165959119796753
1696958193913568300,5.125568359375,4.151939392089844,0.5228791832923889,-0.29084885120391846
1696958193923581700,5.135581787109375,-3.8196287155151367,0.06423181295394897,-0.7345343232154846
1696958193933595100,5.14559521484375,-1.4545421600341797,-0.7933148741722107,0.1790541410446167
1696958193943608800,5.15560888671875,2.1238107681274414,0.5409477949142456,0.07090973854064941
1696958193953622300,5.165622314453125,-2.2730283737182617,0.7989928722381592,-0.002747833728790283
1696958193963635700,5.1756357421875,1.2732229232788086,0.14189434051513672,-0.25473880767822266
1696958193973649200,5.185649169921875,1.351405143737793,-0.02240884304046631,-0.5775963664054871
1696958193983662600,5.19566259765625,-2.8191356658935547,0.1387426257133484,-0.5953450798988342
1696958193993676300,5.20567626953125,1.5026626586914062,0.07473587989807129,-0.5714594125747681
1696958194003689700,5.215689697265625,-0.010947227478027344,-0.13745158910751343,-0.5474460124969482
1696958194013703200,5.225703125,-2.0038223266601562,-0.17472690343856812,-0.08687281608581543
1696958194023716600,5.235716552734375,2.2253236770629883,0.5194913148880005,-0.40821728110313416
1696958194033730000,5.24572998046875,0.4804964065551758,0.014276862144470215,-0.9426339268684387
1696958194043743700,5.25574365234375,-3.148015022277832,-0.3762485086917877,-0.5252962708473206
1696958194053757200,5.265757080078125,2.2310333251953125,-0.07823115587234497,-0.6319265961647034
1696958194063770600,5.2757705078125,-1.5492897033691406,0.110545814037323,-0.5127626061439514
1696958194073784000,5.2857841796875,-0.981806755065918,-0.4452769160270691,-0.5155065059661865
1696958194083797500,5.295797607421875,2.088864326477051,0.2792138457298279,-0.2920016646385193
1696958194093811200,5.305811279296875,-0.5489645004272461,0.5655295252799988,-0.1772882640361786
1696958194103824600,5.31582470703125,-1.2600030899047852,-0.5753803849220276,-0.48467639088630676
1696958194113838000,5.325838134765625,1.218801498413086,0.08849334716796875,-0.3162752389907837
1696958194123851500,5.3358515625,-0.5566110610961914,0.5237690806388855,-0.001755833625793457
1696958194133865000,5.345864990234375,-0.8565587997436523,-0.27282485365867615,0.06136876344680786
1696958194143878700,5.355878662109375,1.7981338500976562,0.5810347199440002,0.2514638304710388
1696958194153892000,5.36589208984375,-0.5524988174438477,-0.010932385921478271,0.09997519850730896
1696958194163905500,5.375905517578125,-1.4545469284057617,-0.018837392330169678,0.015267044305801392
1696958194173919000,5.3859189453125,1.985250473022461,0.6596590876579285,0.27206143736839294
1696958194183932400,5.395932373046875,-2.1723122596740723,-0.12981057167053223,-0.07788214087486267
1696958194193946000,5.405946044921875,-0.2509336471557617,0.44901537895202637,-0.05787646770477295
1696958194203959600,5.41595947265625,1.3700475692749023,0.2873271703720093,0.02712950110435486
1696958194213973000,5.425972900390625,-3.068120002746582,0.22424882650375366,-0.03293362259864807
1696958194223986400,5.435986328125,2.0046863555908203,-0.05231595039367676,-0.19285961985588074
1696958194234000000,5.445999755859375,-0.5229358673095703,0.6488093137741089,0.10459816455841064
1696958194244013300,5.456013427734375,-3.3079285621643066,0.0796319842338562,0.29907453060150146
1696958194254027000,5.466027099609375,2.0427303314208984,0.3599271774291992,0.05962651968002319
1696958194264040400,5.47604052734375,0.021269798278808594,0.232219398021698,-0.09221503138542175
1696958194274054000,5.486053955078125,-1.756669044494629,0.2549901008605957,0.24304038286209106
1696958194284067300,5.4960673828125,1.7358341217041016,0.096443772315979,0.0741497278213501
1696958194294080800,5.506080810546875,-0.48082542419433594,0.24106097221374512,0.19157320261001587
1696958194304094500,5.516094482421875,-1.9327635765075684,-0.02076435089111328,0.2788010835647583
1696958194314108000,5.52610791015625,3.089512825012207,0.2635120153427124,0.11213928461074829
1696958194324121300,5.536121337890625,-0.4352302551269531,0.1226586103439331,0.2515643835067749
1696958194334134800,5.546134765625,-0.6783342361450195,-0.6670728921890259,-0.19977831840515137
1696958194344148200,5.556148193359375,1.0626811981201172,0.08229327201843262,0.22252827882766724
1696958194354162000,5.566161865234375,1.1081218719482422,-0.025698304176330566,0.2198747992515564
1696958194364175400,5.57617529296875,-1.8484010696411133,-0.14299654960632324,0.09389698505401611
1696958194374188800,5.586188720703125,4.067607879638672,-0.06432127952575684,0.41045209765434265
1696958194384202200,5.5962021484375,-1.4186334609985352,-0.12074500322341919,0.23786425590515137
1696958194394215700,5.606215576171875,-0.5553445816040039,-0.21953672170639038,0.5052102208137512
1696958194404229400,5.6162294921875,3.45101261138916,0.017838478088378906,0.195215106010437
1696958194414242800,5.626242919921875,-3.280959129333496,-0.09831321239471436,0.3387645184993744
1696958194424256300,5.63625634765625,2.0887136459350586,-0.6877771019935608,0.0336989164352417
1696958194434269700,5.646269775390625,1.2528009414672852,0.5065281987190247,0.20660287141799927
1696958194444283100,5.656283203125,-1.9039969444274902,0.02386474609375,-0.14653828740119934
1696958194454296600,5.666296630859375,0.036235809326171875,-0.2557406425476074,-0.08487308025360107
1696958194464310000,5.67631005859375,1.948465347290039,0.506105363368988,-0.5738143920898438
1696958194474323500,5.686323486328125,-4.100794315338135,0.2239910364151001,-0.45028990507125854
1696958194484337000,5.6963369140625,0.9320545196533203,-0.3619207441806793,-0.8140326738357544
1696958194494350300,5.706350341796875,0.24787139892578125,0.8427979946136475,-0.8236249685287476
1696958194504363500,5.716363525390625,-2.3851470947265625,-1.187093734741211,-0.7872049808502197
1696958194514377000,5.726376953125,2.0418701171875,-0.31767168641090393,-0.12049400806427002
1696958194524390400,5.736390380859375,0.3560142517089844,0.26701509952545166,-0.047956228256225586
1696958194534403800,5.74640380859375,-2.5927209854125977,0.3011454939842224,0.18672794103622437
1696958194544417300,5.756417236328125,3.210850715637207,0.8277056217193604,0.6488063931465149
1696958194554430700,5.7664306640625,0.3364753723144531,1.0935229063034058,-0.11260449886322021
1696958194564444200,5.776444091796875,-2.4121313095092773,-0.11810195446014404,0.10236185789108276
1696958194574457600,5.78645751953125,3.232595443725586,-0.50248122215271,-0.996634840965271
1696958194584471000,5.796470947265625,-3.8041491508483887,0.9349796175956726,-0.3790540099143982
1696958194594484500,5.806484375,-1.2138118743896484,1.0317785739898682,0.26641571521759033
1696958194604498000,5.816497802734375,1.0973882675170898,-0.454863578081131,-0.6085466742515564
1696958194614511400,5.826511474609375,-2.1303539276123047,-1.031524896621704,-0.13388574123382568
1696958194624524800,5.83652490234375,-0.3802776336669922,0.03568077087402344,0.6142829060554504
1696958194634538200,5.846538330078125,1.4080448150634766,-0.005758523941040039,0.23720335960388184
1696958194644551700,5.8565517578125,-0.9223155975341797,-0.41680923104286194,0.5676268339157104
1696958194654565000,5.866565185546875,-0.021421432495117188,0.10576742887496948,1.2164366245269775
1696958194664578600,5.87657861328125,1.5792531967163086,1.0603790283203125,0.9269810318946838
1696958194674592000,5.886592041015625,0.44751834869384766,0.9028696417808533,0.9058926701545715
1696958194684605400,5.89660546875,-0.7346820831298828,-0.9943045973777771,0.599186360836029
1696958194694619000,5.906618896484375,1.3789901733398438,-0.11519807577133179,1.2703032493591309
1696958194704632300,5.91663232421875,-0.770024299621582,0.12480956315994263,1.4352494478225708
1696958194714645800,5.926645751953125,-1.5672893524169922,-0.00037366151809692383,0.7828018665313721
1696958194724659200,5.9366591796875,1.771824836730957,0.6090113520622253,0.9914950132369995
1696958194734673000,5.9466728515625,-0.822758674621582,0.35597383975982666,1.6360054016113281
1696958194744686300,5.956686279296875,-0.028290748596191406,-1.2773282527923584,1.7186731100082397
1696958194754699800,5.96669970703125,2.29349422454834,-0.17322272062301636,0.9513792991638184
1696958194764713200,5.976713134765625,-2.3667259216308594,-0.022582828998565674,0.9485797882080078
1696958194774726700,5.9867265625,0.9641933441162109,0.30981719493865967,0.5873469710350037
1696958194784740400,5.996740234375,1.7595252990722656,0.4712621569633484,0.29633355140686035
1696958194794753800,6.00675390625,-2.1109981536865234,-0.10120916366577148,0.9656675457954407
1696958194804767200,6.016767333984375,1.8121509552001953,-0.7232253551483154,0.9248596429824829
1696958194814780700,6.02678076171875,0.9856224060058594,0.08328449726104736,0.9645994901657104
1696958194824794000,6.036794189453125,-1.047903060913086,0.7829080820083618,0.2963581085205078
1696958194834807800,6.046807861328125,-0.17639541625976562,-0.1036224365234375,0.1562538743019104
1696958194844821200,6.0568212890625,2.1227636337280273,0.2792794108390808,0.3760565519332886
1696958194854834700,6.066834716796875,-2.5182242393493652,-0.14812332391738892,0.14861059188842773
1696958194864848100,6.07684814453125,1.6593828201293945,0.2999608516693115,0.2660439610481262
1696958194874861600,6.086861572265625,1.4403657913208008,0.2979291081428528,0.2510454058647156
1696958194884875300,6.096875244140625,-2.2478528022766113,-0.11483633518218994,0.21869778633117676
1696958194894888700,6.106888671875,0.6768054962158203,-0.3606688678264618,-0.6250378489494324
1696958194904902100,6.116902099609375,-0.03659820556640625,0.4327622652053833,-0.23977720737457275
1696958194914915600,6.12691552734375,-1.1503047943115234,-0.4182530343532562,-0.4406011700630188
1696958194924929000,6.136928955078125,1.1078662872314453,0.2564253807067871,-0.14584392309188843
1696958194934942700,6.146942626953125,1.726576805114746,0.23268252611160278,-0.2727113366127014
1696958194944956200,6.1569560546875,-3.6350722312927246,-0.22895371913909912,-0.6207946538925171
1696958194954969600,6.166969482421875,1.5156478881835938,-0.06180918216705322,-0.17557942867279053
1696958194964983000,6.176983154296875,0.3031654357910156,0.08326339721679688,-0.6199056506156921
1696958194974996500,6.18699658203125,-2.708665370941162,-0.3395020067691803,-0.5354000329971313
1696958194985010200,6.19701025390625,3.0373973846435547,0.28802019357681274,-0.35335826873779297
1696958194995023600,6.207023681640625,-1.1752090454101562,-0.020864903926849365,-0.35105425119400024
1696958195005037000,6.217037109375,-1.5836572647094727,-0.268882155418396,-0.3123776912689209
1696958195015050500,6.227050537109375,2.3579206466674805,-0.02226102352142334,-0.5992765426635742
1696958195025064000,6.23706396484375,-2.822978973388672,0.3656870722770691,-0.06832140684127808
1696958195035077400,6.247077392578125,1.785501480102539,-0.7764106392860413,-0.7417174577713013
1696958195045091000,6.257091064453125,-0.6748762130737305,0.126262366771698,-0.3412902355194092
1696958195055104500,6.2671044921875,-0.5486631393432617,0.5634504556655884,0.15707993507385254
1696958195065118000,6.277117919921875,-0.20354080200195312,-0.25688302516937256,-0.560840368270874
1696958195075131400,6.28713134765625,0.35142993927001953,-0.16972291469573975,-0.28489410877227783
1696958195085144800,6.297144775390625,-0.9010677337646484,-0.08742249011993408,-0.07174426317214966
1696958195095158500,6.307158447265625,-1.5203123092651367,0.4269377589225769,-0.30565762519836426
1696958195105172000,6.317171875,1.9103755950927734,0.5952961444854736,0.5238848924636841
1696958195115185400,6.327185302734375,-1.9364724159240723,-0.3024357259273529,-0.2806214690208435
1696958195125198800,6.33719873046875,-0.07763481140136719,0.1696189045906067,0.1837787628173828
1696958195135212300,6.34721240234375,1.681600570678711,0.5625022053718567,0.4729081392288208
1696958195145226000,6.35722607421875,-2.4897379875183105,-0.12500512599945068,-0.07148462533950806
1696958195155239400,6.367239501953125,-0.12297248840332031,0.021715998649597168,0.3784041404724121
1696958195165252900,6.3772529296875,1.2780704498291016,0.7715923190116882,0.36653679609298706
1696958195175266300,6.387266357421875,-2.481393814086914,-0.0382266640663147,0.08863317966461182
1696958195185279700,6.39727978515625,1.6631746292114258,-0.055801451206207275,0.20998001098632812
1696958195195293400,6.40729345703125,-0.31888771057128906,0.5784199237823486,0.012163519859313965
1696958195205307000,6.417306884765625,-2.2822160720825195,-0.11937099695205688,0.38212519884109497
1696958195215320300,6.4273203125,3.496213912963867,0.3502662181854248,0.15548038482666016
1696958195225333800,6.437333740234375,-2.8676328659057617,0.22546595335006714,0.12808048725128174
1696958195235347200,6.44734716796875,0.1879434585571289,-0.05812555551528931,0.5125355124473572
1696958195245361000,6.45736083984375,2.558192253112793,0.766117513179779,0.18178433179855347
1696958195255374300,6.467374267578125,-2.92938232421875,0.022974491119384766,0.14291220903396606
1696958195265387800,6.4773876953125,1.4502840042114258,0.21286475658416748,0.43159323930740356
1696958195275401200,6.487401123046875,0.37638187408447266,0.3652271032333374,0.17590469121932983
1696958195285414700,6.49741455078125,-1.3879613876342773,0.12287503480911255,0.21897882223129272
1696958195295428400,6.507428466796875,1.6783876419067383,-0.17733079195022583,0.27257782220840454
1696958195305441800,6.51744189453125,-0.7389001846313477,0.3993839621543884,-0.08404415845870972
1696958195315455200,6.527455322265625,-0.24032115936279297,0.14259260892868042,-0.10125714540481567
1696958195325468700,6.53746875,1.2846002578735352,0.06243222951889038,-0.22907423973083496
1696958195335482000,6.547482177734375,-1.2511730194091797,0.084231436252594,0.04620862007141113
1696958195345495600,6.55749560546875,0.5197925567626953,-0.22141635417938232,0.11685460805892944
1696958195355509200,6.56750927734375,1.9044723510742188,0.36976778507232666,-0.029956042766571045
1696958195365522700,6.577522705078125,-2.023608684539795,-0.08985233306884766,0.04715085029602051
1696958195375536000,6.5875361328125,1.0968313217163086,0.28396087884902954,0.4445446729660034
1696958195385549600,6.597549560546875,2.4992122650146484,0.21815723180770874,0.0924004316329956
1696958195395563000,6.60756298828125,-3.1604251861572266,-0.1301012635231018,0.1929548978805542
1696958195405576700,6.61757666015625,2.3090639114379883,0.08701658248901367,0.588792622089386
1696958195415590100,6.627590087890625,1.046748161315918,0.7936204075813293,-0.2374829649925232
1696958195425603600,6.637603515625,-2.726637840270996,-0.6391305327415466,-0.04736924171447754
1696958195435617000,6.647616943359375,1.9582157135009766,0.031932830810546875,0.37136465311050415
1696958195445630500,6.65763037109375,0.22381210327148438,0.971789538860321,0.04141134023666382
1696958195455644200,6.66764404296875,-0.9768161773681641,-0.44834622740745544,-0.11141550540924072
1696958195465657600,6.67765771484375,2.518876075744629,-0.30051255226135254,-0.373175710439682
1696958195475671000,6.687671142578125,-3.5417137145996094,0.423709511756897,0.37963175773620605
1696958195485684500,6.6976845703125,1.8618354797363281,-0.09594374895095825,0.32476216554641724
1696958195495698000,6.707697998046875,0.8825206756591797,0.3427305221557617,-0.450507789850235
1696958195505711600,6.717711669921875,-2.3500146865844727,-0.22079896926879883,0.36108678579330444
1696958195515725000,6.72772509765625,1.0963201522827148,0.6760961413383484,0.6407483220100403
1696958195525738500,6.737738525390625,1.308706283569336,-0.060597002506256104,-0.011057496070861816
1696958195535752000,6.747751953125,-4.338403701782227,-0.04667532444000244,0.26448488235473633
1696958195545765400,6.757765380859375,2.5058298110961914,0.7524216175079346,1.1733791828155518
1696958195555779000,6.767779052734375,-1.117837905883789,0.35969775915145874,0.49014508724212646
1696958195565792500,6.77779248046875,-2.783514976501465,0.4565216898918152,0.9625999927520752
1696958195575806000,6.787805908203125,3.7508230209350586,0.34516680240631104,0.5821067690849304
1696958195585819400,6.7978193359375,-5.610518932342529,0.5057936310768127,1.2159388065338135
1696958195595832800,6.807832763671875,2.392240524291992,0.17855197191238403,0.8804535865783691
1696958195605846500,6.817846435546875,-1.6088037490844727,0.6456395983695984,0.6051418781280518
1696958195615860000,6.82785986328125,-1.7968578338623047,0.19510293006896973,0.567253053188324
1696958195625873400,6.837873291015625,0.5056982040405273,0.16459858417510986,0.7096221446990967
1696958195635886800,6.847886962890625,0.14072513580322266,0.33452683687210083,0.464450865983963
1696958195645900300,6.857900390625,-1.4084577560424805,-0.33509233593940735,0.06571203470230103
1696958195655913700,6.867913818359375,0.3482789993286133,0.053173720836639404,0.34315064549446106
1696958195665927400,6.877927490234375,0.39980220794677734,0.10879784822463989,-0.08615976572036743
1696958195675940900,6.88794091796875,-1.9768333435058594,-0.2645914554595947,0.44705748558044434
1696958195685954300,6.897954345703125,4.158964157104492,0.16547393798828125,0.5037037134170532
1696958195695967700,6.9079677734375,-1.5908384323120117,0.11711645126342773,-0.2518981099128723
1696958195705981200,6.917981201171875,-0.1014862060546875,-0.0737733244895935,-0.058750927448272705
1696958195715995000,6.927994873046875,2.613201141357422,0.3055412173271179,0.1818651258945465
1696958195726008300,6.93800830078125,-3.333892345428467,0.07319456338882446,0.006339281797409058
1696958195736021800,6.948021728515625,2.7332210540771484,-0.2400943636894226,0.3593016564846039
1696958195746035200,6.95803515625,1.526951789855957,0.5733967423439026,0.10630011558532715
1696958195756048600,6.968048583984375,-2.243253707885742,-0.13616949319839478,-0.4189969003200531
1696958195766062300,6.978062255859375,2.225092887878418,0.18451160192489624,-0.369493305683136
1696958195776075800,6.98807568359375,-1.2498092651367188,-0.030164718627929688,-0.1554587334394455
1696958195786089200,6.998089111328125,-0.3635406494140625,-0.4526120126247406,-0.4138980507850647
1696958195796102700,7.0081025390625,2.6097373962402344,0.23998486995697021,-0.2482435703277588
1696958195806116000,7.0181162109375,-1.3012313842773438,0.21407955884933472,-0.8751243352890015
1696958195816129800,7.0281298828125,-0.5961313247680664,-0.3543080985546112,-0.714465856552124
1696958195826143200,7.038143310546875,2.7794198989868164,0.3284459710121155,-0.28203538060188293
1696958195836156700,7.04815673828125,-3.363631248474121,-0.3337787091732025,-0.595557451248169
1696958195846170000,7.058170166015625,2.2545604705810547,-0.2437610626220703,-0.06548285484313965
1696958195856183600,7.06818359375,0.5148544311523438,0.8094988465309143,-0.06651237607002258
1696958195866197200,7.078197265625,-0.8442583084106445,-0.1856270432472229,-0.698121190071106
1696958195876210700,7.088210693359375,1.4231786727905273,0.5544825792312622,0.025142908096313477
1696958195886224100,7.09822412109375,-0.12387466430664062,-0.11825680732727051,-0.4844042658805847
1696958195896237600,7.108237548828125,-2.298229217529297,-0.3886231482028961,0.26479944586753845
1696958195906251000,7.1182509765625,4.025201797485352,0.14870339632034302,-0.13628019392490387
1696958195916264700,7.1282646484375,-1.4563531875610352,-0.1644306182861328,-0.615566611289978
1696958195926278100,7.138278076171875,0.8169307708740234,0.2618945837020874,-0.4100572466850281
1696958195936291600,7.14829150390625,2.0149335861206055,0.3397331237792969,-0.9707460403442383
1696958195946305000,7.158304931640625,-3.9635486602783203,-0.40261110663414,-0.4248553216457367
1696958195956318500,7.168318359375,4.094085693359375,-0.32258012890815735,-0.06891840696334839
1696958195966332000,7.178331787109375,-1.3536128997802734,0.015687763690948486,-0.415527880191803
1696958195976345600,7.188345703125,0.30815696716308594,0.917693018913269,0.09163299202919006
1696958195986359000,7.198359130859375,1.0008678436279297,-0.15765798091888428,-0.504133939743042
1696958195996372500,7.20837255859375,-1.9640851020812988,0.2469092607498169,0.00396353006362915
1696958196006386000,7.218385986328125,2.2849273681640625,0.27769821882247925,0.2615925073623657
1696958196016399400,7.2283994140625,-1.9735078811645508,0.32740771770477295,-0.5657364130020142
1696958196026413000,7.2384130859375,1.630263328552246,0.5950795412063599,0.3111591637134552
1696958196036426500,7.248426513671875,-0.25118255615234375,0.029898345470428467,-0.3679679036140442
1696958196046440000,7.25843994140625,-0.8762674331665039,0.5935669541358948,0.41825297474861145
1696958196056453400,7.268453369140625,-0.0037374496459960938,-0.12048554420471191,-0.0014882087707519531
1696958196066466800,7.278466796875,0.5939865112304688,0.6604470014572144,-0.2996928095817566
1696958196076480500,7.28848046875,0.5982627868652344,0.6808428764343262,0.28360092639923096
1696958196086494000,7.298493896484375,-1.2330856323242188,0.15429949760437012,0.11188319325447083
1696958196096507400,7.30850732421875,1.045241355895996,0.7910776138305664,0.23183849453926086
1696958196106520800,7.318520751953125,-0.8202810287475586,-0.12179052829742432,-0.0510830283164978
1696958196116534300,7.3285341796875,-0.8464469909667969,1.220275640487671,0.6529144644737244
1696958196126548000,7.3385478515625,0.590062141418457,0.4940526485443115,0.533452033996582
1696958196136561400,7.3485615234375,-0.6104364395141602,0.9006898999214172,0.7135429978370667
1696958196146574800,7.358574951171875,0.5529003143310547,0.2580471634864807,0.6142445206642151
1696958196156588300,7.36858837890625,-0.7337522506713867,0.6986008286476135,0.07309421896934509
1696958196166601700,7.378601806640625,-0.6453151702880859,0.4626855254173279,0.3325537145137787
1696958196176615400,7.388615478515625,-0.5191793441772461,0.5073183178901672,0.6118112802505493
1696958196186628900,7.39862890625,0.3666963577270508,0.5633835792541504,0.2035081386566162
1696958196196642300,7.408642333984375,-0.8334684371948242,0.697321891784668,-0.3078373968601227
1696958196206655700,7.41865576171875,0.1201486587524414,0.477722704410553,0.37562865018844604
1696958196216669200,7.428669189453125,0.8991107940673828,0.6306915879249573,-0.44161003828048706
1696958196226683000,7.438682861328125,-2.753464698791504,0.7151392698287964,0.6700916290283203
1696958196236696300,7.4486962890625,3.226959228515625,0.7158364653587341,0.13690847158432007
1696958196246709800,7.458709716796875,-2.1706557273864746,0.5159088969230652,0.31766387820243835
1696958196256723200,7.46872314453125,0.8452854156494141,1.0231742858886719,0.6527169942855835
1696958196266736600,7.478736572265625,1.637070655822754,0.0351639986038208,-0.07623720169067383
1696958196276750300,7.488750244140625,-3.5947370529174805,1.2386605739593506,0.36935341358184814
1696958196286763800,7.498763671875,3.883713722229004,0.6657814979553223,0.30532774329185486
1696958196296777200,7.508777099609375,-3.747612953186035,0.6509205102920532,0.3611987233161926
1696958196306790700,7.518790771484375,2.555281639099121,0.7825355529785156,0.30730438232421875
1696958196316804000,7.52880419921875,-1.7562627792358398,0.2779279351234436,-0.4085647463798523
1696958196326817500,7.538817626953125,-0.06967449188232422,1.078523874282837,0.2694309651851654
1696958196336831200,7.548831298828125,1.092148780822754,0.40999680757522583,-0.557228684425354
1696958196346844700,7.5588447265625,-2.241152286529541,1.0180768966674805,-0.06601491570472717
1696958196356858000,7.568858154296875,1.9556045532226562,0.44271063804626465,-0.30113938450813293
1696958196366871600,7.57887158203125,-1.6566362380981445,1.0072855949401855,-0.18553829193115234
1696958196376885000,7.588885009765625,0.20157527923583984,0.4684353470802307,-0.43764612078666687
1696958196386898700,7.598898681640625,0.5458402633666992,1.0854134559631348,-0.30507200956344604
1696958196396912000,7.608912109375,-1.8639507293701172,0.4101961851119995,-0.2820645570755005
1696958196406925600,7.618925537109375,2.0024404525756836,0.8933391571044922,0.1204928457736969
1696958196416939000,7.62893896484375,-1.992525577545166,0.8830840587615967,0.29389896988868713
1696958196426952400,7.638952392578125,1.6349897384643555,0.9225776195526123,0.576482355594635
1696958196436966100,7.648966064453125,-1.4463224411010742,0.5518572330474854,0.5436629056930542
1696958196446979600,7.6589794921875,0.9372444152832031,0.7639307975769043,0.865479588508606
1696958196456993000,7.668992919921875,-0.31210994720458984,0.5981619358062744,0.7412658333778381
1696958196467006500,7.67900634765625,0.4675750732421875,0.4738330841064453,0.6716426610946655
1696958196477020000,7.68902001953125,-1.3491802215576172,0.905013918876648,0.5769137144088745
1696958196487033600,7.69903369140625,0.8333902359008789,0.8894466161727905,1.0335427522659302
1696958196497047000,7.709047119140625,-1.59124755859375,0.20910394191741943,0.45108041167259216
1696958196507060500,7.719060546875,0.01839733123779297,0.8454159498214722,0.5364437103271484
1696958196517074000,7.729073974609375,-0.8701410293579102,1.1647498607635498,0.07349404692649841
1696958196527087400,7.73908740234375,-0.4616384506225586,0.7557430267333984,0.5461024641990662
1696958196537101000,7.74910107421875,-1.0288476943969727,0.5703005790710449,0.28206348419189453
1696958196547114500,7.759114501953125,-0.36676979064941406,0.9232532978057861,0.2729633152484894
1696958196557128000,7.7691279296875,0.2507133483886719,1.0272139310836792,0.18488076329231262
1696958196567141400,7.779141357421875,-1.3266496658325195,1.1423367261886597,-0.24954479932785034
1696958196577154800,7.78915478515625,-0.7406320571899414,2.0761218070983887,-0.29278630018234253
1696958196587168500,7.79916845703125,0.2985553741455078,1.2881062030792236,1.3318461179733276
1696958196597182000,7.809181884765625,0.6462764739990234,0.7110337018966675,1.3354394435882568
1696958196607195400,7.8191953125,-1.5108203887939453,0.32352888584136963,0.678253173828125
1696958196617208800,7.829208740234375,-1.9186124801635742,1.781043529510498,1.0632445812225342
1696958196627222300,7.83922216796875,0.9625377655029297,1.8574388027191162,1.160611629486084
1696958196637235700,7.849235595703125,-0.8899335861206055,1.158505916595459,0.1490837037563324
1696958196647249400,7.85924951171875,-3.531235694885254,0.8432515859603882,1.1843822002410889
1696958196657262800,7.869262939453125,0.2757711410522461,1.2328206300735474,1.492793321609497
1696958196667276300,7.8792763671875,-1.4461288452148438,-0.3508431911468506,0.42755427956581116
1696958196677289700,7.889289794921875,-1.1808710098266602,0.18684720993041992,0.1390320062637329
1696958196687303200,7.89930322265625,0.3171672821044922,0.9687001705169678,-0.07594574987888336
1696958196697316900,7.90931689453125,-1.2137622833251953,0.913029670715332,-0.8702738881111145
1696958196707330300,7.919330322265625,-0.012355804443359375,-0.4572291374206543,-0.09440647065639496
1696958196717343700,7.92934375,2.1472225189208984,0.08182156085968018,-0.3917725086212158
1696958196727357200,7.939357177734375,-1.0847501754760742,-0.14727604389190674,-1.7612141370773315
1696958196737370600,7.94937060546875,2.1046571731567383,0.3478200435638428,-0.5826399326324463
1696958196747384300,7.95938427734375,2.5530052185058594,-0.5206356048583984,-1.6279901266098022
1696958196757397800,7.969397705078125,0.5340633392333984,0.5702966451644897,-1.370788335800171
1696958196767411200,7.9794111328125,1.3110170364379883,-0.271669864654541,-2.4173216819763184
1696958196777424600,7.989424560546875,1.5080804824829102,1.2230108976364136,-2.2929558753967285
1696958196787438000,7.99943798828125,1.7952461242675781,-0.6245487928390503,-2.638583183288574
1696958196797451800,8.00945166015625,1.197916030883789,-0.55381178855896,-2.0636186599731445
1696958196807465200,8.01946533203125,0.5731420516967773,-0.39036405086517334,-2.6003875732421875
1696958196817478700,8.029478759765626,1.5750961303710938,0.6880577802658081,-1.5851263999938965
1696958196827492000,8.0394921875,1.914891242980957,-0.577070951461792,-2.5777056217193604
1696958196837505500,8.049505615234375,0.22801685333251953,1.3399049043655396,-2.6549315452575684
1696958196847519200,8.059519287109374,0.7191944122314453,-0.6178056001663208,-2.402881622314453
1696958196857532700,8.06953271484375,-0.19045734405517578,-0.2635385990142822,-0.9930004477500916
1696958196867546000,8.079546142578126,0.7654504776000977,-1.0952179431915283,-1.2519192695617676
1696958196877559600,8.0895595703125,-0.18717002868652344,1.2992984056472778,-1.3581132888793945
1696958196887573000,8.099572998046876,1.098567008972168,0.5302169322967529,-1.3092869520187378
1696958196897586700,8.109586669921875,-0.29463863372802734,0.1309128999710083,-0.7593511343002319
1696958196907600100,8.11960009765625,-0.5043096542358398,0.027994871139526367,-0.5506867170333862
1696958196917613600,8.129613525390624,-0.9856538772583008,-0.39248156547546387,-0.35584965348243713
1696958196927627000,8.139626953125,-0.16604900360107422,0.19887006282806396,0.2501171827316284
1696958196937640400,8.149640380859376,0.06876659393310547,-0.137151837348938,0.21721862256526947
1696958196947654000,8.15965380859375,-0.6625957489013672,0.6439845561981201,0.0036500394344329834
1696958196957667600,8.16966748046875,-0.3932161331176758,-0.2319192886352539,-0.3529416620731354
1696958196967681000,8.179680908203125,-0.6405315399169922,0.5101833343505859,0.5012614130973816
1696958196977694500,8.189694580078125,-0.5145778656005859,-0.46989595890045166,0.2795613408088684
1696958196987708000,8.1997080078125,-1.4211626052856445,0.4880483150482178,0.625561535358429
1696958196997721300,8.209721435546875,1.4689407348632812,-0.5002884864807129,0.6925368905067444
1696958197007735000,8.219735107421876,-0.034903526306152344,-0.3770483732223511,0.3389093279838562
1696958197017748500,8.22974853515625,0.3283958435058594,-0.28745126724243164,0.3402337431907654
1696958197027762000,8.239761962890626,0.7722959518432617,-0.2255316972732544,-0.01647171378135681
1696958197037775400,8.249775390625,0.8662338256835938,-0.3631223440170288,0.5347408056259155
1696958197047788800,8.259788818359375,1.3375205993652344,-0.9561549425125122,0.1776735782623291
1696958197057802500,8.269802490234374,-1.394026756286621,0.22423303127288818,0.7103418111801147
1696958197067816000,8.27981591796875,3.2832565307617188,-0.46252381801605225,-0.14785736799240112
1696958197077829400,8.289829345703126,-4.193246364593506,-0.021756291389465332,0.07500836253166199
1696958197087842800,8.2998427734375,2.0532398223876953,-0.003006458282470703,0.12327033281326294
1696958197097856300,8.309856201171876,-1.4916620254516602,0.8532017469406128,-0.45466405153274536
1696958197107870000,8.319869873046875,-1.0199317932128906,0.42855405807495117,-0.26791128516197205
1696958197117883400,8.32988330078125,-0.5958671569824219,-0.4074035882949829,-0.28860998153686523
1696958197127896800,8.339896728515624,-3.002936840057373,0.25613629817962646,0.03077438473701477
1696958197137910300,8.34991015625,0.08743953704833984,0.2627674341201782,-0.2802076041698456
1696958197147923700,8.359923828125,-2.975809097290039,0.4008244276046753,-0.10664625465869904
1696958197157937400,8.3699375,0.5490837097167969,0.29138243198394775,-0.14773380756378174
1696958197167950800,8.379950927734376,-2.7828993797302246,0.20841073989868164,-0.39250409603118896
1696958197177964300,8.38996435546875,-0.12377643585205078,-0.012094616889953613,-0.027790307998657227
1696958197187977700,8.399977783203125,-1.021657943725586,-0.5185580253601074,0.5388447046279907
1696958197197991200,8.4099912109375,1.2554664611816406,0.4136497974395752,0.5852227210998535
1696958197208004900,8.4200048828125,-0.6303482055664062,0.622157096862793,0.6322828531265259
1696958197218018300,8.430018310546876,0.2309551239013672,0.1867363452911377,0.9138572812080383
1696958197228031700,8.44003173828125,1.2528743743896484,0.18228495121002197,0.7567750215530396
1696958197238045200,8.450045166015625,-2.3968567848205566,-0.18396735191345215,0.5398286581039429
1696958197248058600,8.46005859375,1.9476404190063477,0.36739206314086914,0.45609408617019653
1696958197258072000,8.470072021484375,-0.030672073364257812,0.39652347564697266,0.30434122681617737
1696958197268085800,8.480085693359374,-0.43262386322021484,-0.26302170753479004,0.7330541014671326
1696958197278099200,8.49009912109375,1.5515527725219727,0.2198925018310547,0.40232256054878235
1696958197288112600,8.500112548828126,-1.6541709899902344,0.027596116065979004,0.1812804937362671
1696958197298126000,8.5101259765625,0.9971237182617188,0.09723997116088867,0.598888635635376
1696958197308139500,8.520139404296875,1.4441184997558594,0.15136432647705078,0.48893648386001587
1696958197318153200,8.5301533203125,-1.130631446838379,-0.5473251342773438,0.13208207488059998
1696958197328166700,8.540166748046875,1.4861860275268555,-0.13889634609222412,0.9637714624404907
1696958197338180000,8.55018017578125,0.03014659881591797,0.14748454093933105,0.5913232564926147
1696958197348193500,8.560193603515625,-1.0789794921875,-0.2863163948059082,0.3742794394493103
1696958197358207000,8.57020703125,2.7565183639526367,0.47216081619262695,0.5496876239776611
1696958197368220700,8.580220703125,-1.8567514419555664,0.3264884948730469,0.39757412672042847
1696958197378234000,8.590234130859375,0.7231731414794922,-0.13064920902252197,0.4143446385860443
1696958197388247600,8.60024755859375,1.9643173217773438,-0.16523277759552002,0.6161736249923706
1696958197398261000,8.610260986328125,-1.8251757621765137,-0.4328669309616089,0.35716673731803894
1696958197408274400,8.6202744140625,0.5109939575195312,-0.26363635063171387,0.19133546948432922
1696958197418288000,8.6302880859375,1.7337398529052734,-0.04224395751953125,-0.41583871841430664
1696958197428301600,8.640301513671876,-3.818699836730957,0.612370491027832,-0.9472049474716187
1696958197438315000,8.65031494140625,3.1197643280029297,-0.4796159267425537,0.020631760358810425
1696958197448328400,8.660328369140625,-0.5092792510986328,-0.6685497760772705,-0.3442983627319336
1696958197458342000,8.670341796875,-2.4632205963134766,-0.17049908638000488,-1.055725336074829
1696958197468355600,8.68035546875,2.441556930541992,0.3520454168319702,-1.1269272565841675
1696958197478369000,8.690369140625,-0.32149600982666016,0.6955556869506836,-0.9288079738616943
1696958197488382500,8.700382568359375,-1.2098093032836914,-0.06957376003265381,-0.8711079955101013
1696958197498396000,8.71039599609375,1.0391063690185547,-0.15006089210510254,-0.8682621717453003
1696958197508409300,8.720409423828125,0.009241104125976562,0.2787219285964966,-0.7855768203735352
1696958197518423000,8.730423095703125,-0.053165435791015625,0.13618159294128418,-1.1391215324401855
1696958197528436500,8.7404365234375,-0.32571887969970703,0.19987857341766357,-1.138644814491272
1696958197538450000,8.750449951171875,0.8028335571289062,0.38194406032562256,-1.1265034675598145
1696958197548463400,8.76046337890625,-1.4741601943969727,-0.18610334396362305,-1.3431248664855957
1696958197558476800,8.770476806640625,0.15375614166259766,0.06393873691558838,-1.2262474298477173
1696958197568490200,8.780490234375,0.9849271774291992,0.15074634552001953,-0.4389015734195709
1696958197578504000,8.79050390625,-0.3559989929199219,-0.4434337615966797,-0.898317277431488
1696958197588517400,8.800517333984375,-1.4832382202148438,0.019493937492370605,-0.7400490045547485
1696958197598530800,8.81053076171875,1.7123394012451172,0.19233262538909912,-0.3032801151275635
1696958197608544300,8.820544189453125,-0.3899259567260742,-0.27605342864990234,-0.47583192586898804
1696958197618557700,8.8305576171875,-0.8673744201660156,-0.07854616641998291,-0.6978925466537476
1696958197628571100,8.840571044921875,0.08561038970947266,-0.1851130723953247,0.22113701701164246
1696958197638584600,8.85058447265625,1.255936622619629,0.11520195007324219,0.30389469861984253
1696958197648598000,8.860597900390625,-0.41046714782714844,-0.9108383655548096,-0.4474431872367859
1696958197658611500,8.870611572265625,-1.3942222595214844,-0.11092853546142578,-0.04545648396015167
1696958197668625000,8.880625,1.729691505432129,-0.21740305423736572,0.5535927414894104
1696958197678638300,8.890638427734375,-0.057163238525390625,-0.3025987148284912,-0.018464863300323486
1696958197688651800,8.90065185546875,-1.0513191223144531,-0.3029834032058716,-0.2899685204029083
1696958197698665200,8.910665283203125,0.2893524169921875,-0.18526160717010498,0.6705756187438965
1696958197708678700,8.9206787109375,1.1344871520996094,-0.21256136894226074,0.44667747616767883
1696958197718692000,8.930692138671875,-0.8516168594360352,-0.29293906688690186,-0.3252537250518799
1696958197728705500,8.94070556640625,-0.5198040008544922,-0.08824574947357178,0.5844594240188599
1696958197738719000,8.950718994140624,1.5460376739501953,-0.4464569091796875,0.692253589630127
1696958197748732400,8.960732421875,-0.03025054931640625,-0.7354917526245117,-0.22724749147891998
1696958197758745900,8.970745849609376,-0.876007080078125,0.0798492431640625,-0.10250060260295868
1696958197768759300,8.98075927734375,0.8606433868408203,0.2658374309539795,0.5712013244628906
1696958197778772700,8.990772705078125,1.7281951904296875,0.08866238594055176,0.3032519817352295
1696958197788786200,9.0007861328125,-0.5416994094848633,-0.5143905878067017,-0.5364814400672913
1696958197798799600,9.010799560546875,-0.49768543243408203,0.016768813133239746,-0.3082416355609894
1696958197808813000,9.02081298828125,0.7028169631958008,0.6233484745025635,0.7286087870597839
1696958197818826500,9.030826416015625,1.1165008544921875,-0.5416692495346069,-0.06002300977706909
1696958197828840000,9.04083984375,-1.8925175666809082,-0.021253228187561035,-0.5393003225326538
1696958197838853400,9.050853271484375,1.1752071380615234,-0.24549388885498047,0.6752653121948242
1696958197848866800,9.06086669921875,-0.2279977798461914,-0.45135068893432617,0.5385084748268127
1696958197858880300,9.07088037109375,-0.15614891052246094,-0.34612274169921875,-0.08347195386886597
1696958197868893700,9.080893798828125,-0.4662141799926758,0.42225658893585205,0.20872268080711365
1696958197878907100,9.0909072265625,-0.4891090393066406,-0.060288310050964355,0.6203924417495728
1696958197888920600,9.100920654296875,1.155923843383789,-0.8398928642272949,-0.540435791015625
1696958197898934000,9.11093408203125,-2.70322847366333,-0.4497939348220825,-0.5623246431350708
1696958197908947500,9.120947509765625,0.14684104919433594,0.10420018434524536,0.2613660395145416
1696958197918961000,9.1309609375,0.897364616394043,0.470078706741333,0.8080582618713379
1696958197928974300,9.140974365234374,-0.42878055572509766,-0.6582374572753906,-0.2390400916337967
1696958197938987800,9.15098779296875,-0.8957700729370117,-0.005663871765136719,-0.27345728874206543
1696958197949001200,9.161001220703126,-0.3247203826904297,0.22368061542510986,0.7277291417121887
1696958197959014700,9.1710146484375,1.2532587051391602,-0.2002934217453003,0.28222373127937317
1696958197969028000,9.181028076171875,-1.6218509674072266,-0.312960147857666,-0.708213210105896
1696958197979041500,9.19104150390625,-0.1076059341430664,-0.1394425630569458,0.4374579191207886
1696958197989055000,9.201054931640625,1.4125347137451172,-0.2759895324707031,0.10189664363861084
1696958197999068400,9.211068359375,-0.8895721435546875,-0.14391422271728516,-0.8452668190002441
1696958198009081900,9.221081787109375,-1.1119003295898438,0.1957383155822754,-0.8114787936210632
1696958198019095300,9.23109521484375,1.0606184005737305,0.0660703182220459,0.1539006233215332
1696958198029108700,9.241108642578125,0.11199951171875,-0.18533337116241455,-0.24269890785217285
1696958198039122200,9.2511220703125,-1.1977653503417969,-0.10332274436950684,-0.9824481010437012
1696958198049135600,9.261135498046874,0.3202066421508789,0.13690030574798584,-0.2819337248802185
1696958198059149000,9.271149169921875,0.7068090438842773,0.15845119953155518,0.22245222330093384
1696958198069162500,9.28116259765625,-0.12190628051757812,-0.46197617053985596,-0.8230438232421875
1696958198079176000,9.291176025390625,-0.8048133850097656,0.17394661903381348,-0.5801102519035339
1696958198089189400,9.301189453125,1.3429346084594727,0.012862443923950195,0.4630078077316284
1696958198099202800,9.311202880859375,0.383941650390625,-0.13295304775238037,-0.13280190527439117
1696958198109216300,9.32121630859375,-0.9887762069702148,-0.05408370494842529,-0.663685142993927
1696958198119229700,9.331229736328124,0.7819681167602539,0.08959877490997314,0.3060709536075592
1696958198129243100,9.3412431640625,0.851654052734375,-0.2022947072982788,0.09679687023162842
1696958198139256600,9.351256591796876,-0.675079345703125,-0.3979487419128418,-0.8122806549072266
1696958198149270000,9.36127001953125,0.23931026458740234,0.4604374170303345,-0.04923301935195923
1696958198159283500,9.371283447265625,1.6389923095703125,-0.052942752838134766,0.31086134910583496
1696958198169297000,9.381296875,-1.1274089813232422,-0.3491247892379761,-0.2282704859972
1696958198179310300,9.391310302734375,0.165496826171875,0.007773637771606445,-0.5960009098052979
1696958198189324000,9.401323974609374,-0.15017223358154297,0.15015089511871338,-0.027524948120117188
1696958198199337500,9.41133740234375,1.1452007293701172,-0.29291653633117676,-0.11098630726337433
1696958198209351000,9.421350830078126,-0.9984283447265625,0.05480968952178955,-0.6514191627502441
1696958198219364400,9.4313642578125,0.5044231414794922,-0.27571332454681396,-0.19650307297706604
1696958198229377800,9.441377685546875,0.6947736740112305,-0.23546648025512695,0.4654587507247925
1696958198239391200,9.45139111328125,-0.1768798828125,0.20760154724121094,-0.14216630160808563
1696958198249405000,9.461405029296875,-0.4008760452270508,-0.616154670715332,0.09108173847198486
1696958198259418400,9.47141845703125,1.0097923278808594,0.6451253890991211,0.4828305244445801
1696958198269431800,9.481431884765625,2.0828208923339844,-0.3207244873046875,-0.2563932538032532
1696958198279445200,9.4914453125,-3.867339611053467,0.08692622184753418,-0.442000150680542
1696958198289458700,9.501458740234375,2.894646644592285,-0.1528005599975586,0.37954655289649963
1696958198299472400,9.511472412109375,-0.6292686462402344,0.10425436496734619,-0.013657569885253906
1696958198309485800,9.52148583984375,-1.9756994247436523,-0.06439769268035889,-0.6791903972625732
1696958198319499300,9.531499267578125,1.149897575378418,0.003882765769958496,0.27525973320007324
1696958198329512700,9.5415126953125,0.7602987289428711,-0.19033527374267578,0.15348944067955017
1696958198339526100,9.551526123046875,-1.0338459014892578,-0.03131687641143799,-0.5769590735435486
1696958198349539800,9.561539794921876,-0.5772590637207031,-0.39850008487701416,-0.023233085870742798
1696958198359553300,9.57155322265625,2.358663558959961,0.34778153896331787,0.7657161951065063
1696958198369566700,9.581566650390625,-2.1725826263427734,-0.43184900283813477,0.13644981384277344
1696958198379580200,9.591580078125,0.3172483444213867,-0.07017254829406738,0.32597267627716064
1696958198389593600,9.601593505859375,2.692185401916504,0.4585394859313965,0.6341360807418823
1696958198399607300,9.611607177734374,-2.15092134475708,-0.048650145530700684,0.039814144372940063
1696958198409620700,9.621620849609375,0.14317989349365234,-0.11327338218688965,-0.07947918772697449
1696958198419634200,9.63163427734375,0.9841279983520508,0.4630388021469116,0.5857141017913818
1696958198429647600,9.641647705078125,-1.3216686248779297,-0.19440031051635742,0.427348792552948
1696958198439661000,9.6516611328125,-0.6593685150146484,0.10037708282470703,-0.031251609325408936
1696958198449674800,9.6616748046875,1.5215692520141602,0.14163053035736084,0.23874926567077637
1696958198459688200,9.671688232421875,-1.3542356491088867,0.04859578609466553,-0.26760363578796387
1696958198469701600,9.68170166015625,-0.7491416931152344,-0.13948583602905273,-0.082150399684906
1696958198479715000,9.691715087890625,1.0831775665283203,0.2562263011932373,0.005104631185531616
1696958198489728500,9.701728515625,-1.1272697448730469,0.1539783477783203,0.028426378965377808
1696958198499741700,9.71174169921875,-0.8523654937744141,-0.1782546043395996,0.25405576825141907
1696958198509755100,9.721755126953125,1.8641233444213867,0.3478076457977295,0.1036899983882904
1696958198519768600,9.7317685546875,-0.9169282913208008,0.05821645259857178,-0.20691899955272675
1696958198529782000,9.741781982421875,-0.5279617309570312,0.12815523147583008,-0.14155922830104828
1696958198539795500,9.75179541015625,2.359744071960449,0.4530634880065918,-0.052457064390182495
1696958198549809000,9.761808837890625,-2.6780343055725098,-0.010406970977783203,0.10007327795028687
1696958198559822300,9.771822265625,1.9776077270507812,-0.026447653770446777,-0.2147335708141327
1696958198569835800,9.781835693359374,0.23853588104248047,0.16190087795257568,-0.45334264636039734
1696958198579849200,9.79184912109375,-1.8221607208251953,0.14757120609283447,-0.03229495882987976
1696958198589862700,9.801862548828124,2.741257667541504,-0.1207195520401001,-0.4574965238571167
1696958198599876000,9.8118759765625,-1.6617927551269531,0.37292373180389404,-0.46850156784057617
1696958198609889500,9.8218896484375,-0.10477256774902344,-0.2222898006439209,-0.1190432757139206
1696958198619903000,9.831903076171875,0.6458206176757812,0.17318642139434814,-0.25748008489608765
1696958198629916400,9.84191650390625,-0.35431861877441406,0.46248459815979004,-0.32200324535369873
1696958198639929900,9.851929931640624,-0.530308723449707,-0.22687315940856934,-0.38152962923049927
1696958198649943300,9.861943359375,0.6084423065185547,0.17487430572509766,-0.21811607480049133
1696958198659956700,9.871956787109376,-1.4283781051635742,0.1651691198348999,-0.1292080283164978
1696958198669970200,9.88197021484375,0.16133403778076172,0.10175299644470215,-0.40854763984680176
1696958198679983600,9.891983642578126,1.1841411590576172,0.35455429553985596,-0.4452795088291168
1696958198689997000,9.9019970703125,-2.2259521484375,0.008946895599365234,0.25163277983665466
1696958198700010500,9.912010498046875,1.6263179779052734,0.17322587966918945,-0.36452096700668335
1696958198710024000,9.92202392578125,-0.7236137390136719,0.46450984477996826,-0.16226345300674438
1696958198720037400,9.932037353515625,-0.3395967483520508,0.14000260829925537,0.1898726522922516
1696958198730050800,9.94205078125,0.9754276275634766,0.06252264976501465,-0.4234852194786072
1696958198740064300,9.952064208984375,-0.6371603012084961,0.4901607036590576,-0.0821952223777771
1696958198750077700,9.96207763671875,1.1659231185913086,-0.011132001876831055,-0.12014667689800262
1696958198760091100,9.972091064453124,-0.28939151763916016,0.6591686010360718,-0.025310516357421875
1696958198770104600,9.9821044921875,-0.5133209228515625,-0.35909247398376465,0.22498807311058044
1696958198780118000,9.992117919921874,1.179800033569336,0.4579153060913086,-0.14718586206436157
1696958198790131500,10.00213134765625,-0.6531858444213867,0.1008002758026123,-0.2539982497692108
1696958198800145000,10.012144775390626,1.1118640899658203,0.32167482376098633,0.15421664714813232
1696958198810158300,10.022158447265625,0.2874879837036133,0.4556776285171509,0.15428778529167175
1696958198820171800,10.032171875,-0.8600950241088867,-0.028188347816467285,0.35678404569625854
1696958198830185200,10.042185302734374,1.3690519332885742,0.44483399391174316,0.5191414952278137
1696958198840198700,10.05219873046875,-0.36878108978271484,0.08181416988372803,0.3605329394340515
1696958198850212000,10.062212158203126,0.26279258728027344,0.2449558973312378,-0.044106483459472656
1696958198860225500,10.0722255859375,-0.6216402053833008,0.27930259704589844,0.1763247549533844
1696958198870239000,10.082239013671876,-0.05142688751220703,0.39364302158355713,0.3288784623146057
1696958198880252400,10.09225244140625,0.23554611206054688,-0.04925823211669922,-0.22210516035556793
1696958198890265900,10.102265869140625,-0.7971382141113281,0.18935048580169678,0.14297044277191162
1696958198900279300,10.112279296875,0.8106451034545898,0.07336854934692383,0.005060434341430664
1696958198910292700,10.122292724609375,-1.537684440612793,0.5111416578292847,-0.54903644323349
1696958198920306200,10.13230615234375,0.6596841812133789,0.1813105344772339,-0.12068137526512146
1696958198930319600,10.142319580078125,-0.4359760284423828,0.5559452772140503,0.35897406935691833
1696958198940333000,10.1523330078125,0.23872947692871094,-0.17459070682525635,-0.2727735936641693
1696958198950346500,10.162346435546874,-0.6456365585327148,0.5737920999526978,0.1554449200630188
1696958198960360000,10.17235986328125,0.3403310775756836,0.03935515880584717,0.2659894824028015
1696958198970373400,10.182373291015624,-0.3819704055786133,0.4625355005264282,-0.039110809564590454
1696958198980387000,10.192386962890625,0.6509675979614258,0.23951339721679688,-0.40290161967277527
1696958198990400300,10.202400146484376,-1.266775131225586,0.2846713066101074,-0.03494548797607422
1696958199000413400,10.212413330078125,1.5699005126953125,0.11111128330230713,-0.1258603036403656
1696958199010426600,10.222426513671875,-2.333181381225586,0.4217168092727661,-0.09677019715309143
1696958199020439600,10.232439453125,0.7018375396728516,0.23171591758728027,-0.2994246482849121
1696958199030452700,10.24245263671875,-0.18834972381591797,0.11148321628570557,-0.5304087400436401
1696958199040466000,10.2524658203125,-1.3113279342651367,-0.08914470672607422,-0.44336313009262085
1696958199050479000,10.26247900390625,0.9669132232666016,0.4638035297393799,-0.19346261024475098
1696958199060492500,10.272492431640625,-0.9424047470092773,0.5510165691375732,0.01715761423110962
1696958199070505700,10.282505615234374,1.004868507385254,-0.1379845142364502,-0.057398825883865356
1696958199080519200,10.292519287109375,-1.7264947891235352,0.3800053596496582,-0.03182193636894226
1696958199090532600,10.30253271484375,1.2596073150634766,0.14794683456420898,0.2922196388244629
1696958199100546000,10.312546142578125,-0.5117473602294922,0.34740114212036133,-0.1649707853794098
1696958199110559700,10.322559814453125,0.019652366638183594,0.16438817977905273,0.21925446391105652
1696958199120573200,10.3325732421875,-0.1811389923095703,-0.2331470251083374,0.09664860367774963
1696958199130587000,10.3425869140625,-0.1810321807861328,0.4634500741958618,-0.15642985701560974
1696958199140600600,10.3526005859375,1.1622591018676758,0.0757906436920166,-0.04639860987663269
1696958199150614300,10.3626142578125,-1.1392602920532227,-0.13523316383361816,0.26390016078948975
1696958199160627700,10.372627685546876,1.3817329406738281,0.007515311241149902,0.14755156636238098
1696958199170641400,10.382641357421875,-0.30358028411865234,0.1181936264038086,0.06852024793624878
1696958199180655000,10.392655029296876,0.7243452072143555,-0.08365857601165771,0.12247177958488464
1696958199190668800,10.402668701171875,1.4970216751098633,0.11868393421173096,0.1624237298965454
1696958199200682200,10.41268212890625,0.14564800262451172,0.49578046798706055,0.20427611470222473
1696958199210695700,10.42269580078125,-0.00275421142578125,-0.08476603031158447,0.27075454592704773
1696958199220709000,10.432709228515625,0.09289169311523438,0.1438359022140503,0.4052871763706207
1696958199230722600,10.44272265625,0.4368581771850586,0.1324145793914795,0.21456030011177063
1696958199240736000,10.452736083984375,0.12046241760253906,0.2596193552017212,-0.2671262323856354
1696958199250749400,10.46274951171875,0.45007991790771484,0.32341933250427246,-0.22538208961486816
1696958199260762600,10.4727626953125,-0.24379444122314453,0.4366492033004761,0.2588268518447876
1696958199270776000,10.482776123046875,-0.3577432632446289,-0.2411555051803589,-0.09509667754173279
1696958199280789500,10.49278955078125,-0.7630548477172852,0.41483938694000244,0.08914458751678467
1696958199290803000,10.502802978515625,1.2366580963134766,-0.0567784309387207,-0.27748996019363403
1696958199300816100,10.512816162109376,-1.8726000785827637,0.4243018627166748,-0.3431166708469391
1696958199310829600,10.52282958984375,1.3864450454711914,0.4731745719909668,0.041478872299194336
1696958199320843000,10.532843017578125,-0.7957420349121094,0.19431722164154053,0.09648489952087402
1696958199330856400,10.5428564453125,-0.7223901748657227,0.09704625606536865,0.26616349816322327
1696958199340870000,10.552869873046875,1.3058605194091797,-0.030013084411621094,-0.07012444734573364
1696958199350883000,10.562883056640626,-2.2432126998901367,0.43686819076538086,-0.1232762336730957
1696958199360896500,10.572896484375,1.9723424911499023,0.1519843339920044,0.10669437050819397
1696958199370910000,10.582909912109375,-1.893418312072754,0.2506293058395386,0.061304688453674316
1696958199380923400,10.59292333984375,1.7329978942871094,-0.010527253150939941,0.01805293560028076
1696958199390936800,10.602936767578125,-0.010122299194335938,0.12966716289520264,0.29409486055374146
1696958199400950000,10.612949951171874,-0.59844970703125,0.11544477939605713,0.05318877100944519
1696958199410963500,10.62296337890625,0.6792936325073242,0.5129809379577637,0.22931557893753052
1696958199420977000,10.632976806640626,-0.13031387329101562,-0.05013144016265869,0.1722671091556549
1696958199430990300,10.642990234375,0.027747154235839844,0.1250697374343872,-0.07168994843959808
1696958199441003500,10.65300341796875,-0.5220413208007812,0.17880761623382568,0.13791269063949585
1696958199451017000,10.663016845703124,1.0897445678710938,0.3306765556335449,0.14548718929290771
1696958199461030400,10.673030517578125,-1.6943626403808594,0.028175950050354004,-0.3015267550945282
1696958199471043800,10.6830439453125,-0.20409393310546875,0.1828157901763916,-0.24247196316719055
1696958199481057300,10.693057373046875,0.18834495544433594,0.5307365655899048,-0.2083621621131897
1696958199491070500,10.703070556640625,-1.269810676574707,-0.23425030708312988,-0.2655780613422394
1696958199501084000,10.713083984375,0.11432647705078125,0.2647150754928589,-0.06864748895168304
1696958199511097300,10.723097412109375,-0.2968778610229492,0.22597503662109375,0.038623154163360596
1696958199521110800,10.73311083984375,-1.1516151428222656,0.05838048458099365,0.03423789143562317
1696958199531124200,10.743124267578125,0.8341054916381836,0.3298346996307373,-0.13333851099014282
1696958199541137400,10.753137451171876,-0.4723224639892578,0.058304786682128906,-0.34252381324768066
1696958199551150800,10.76315087890625,-0.6819047927856445,0.29724299907684326,-0.31956011056900024
1696958199561164300,10.773164306640625,0.3043632507324219,0.21903550624847412,-0.22263312339782715
1696958199571177700,10.783177734375,-0.8721961975097656,0.005531191825866699,0.04835307598114014
1696958199581191200,10.793191162109375,1.2802858352661133,0.05988442897796631,-0.3472156524658203
1696958199591204600,10.80320458984375,-1.0693016052246094,0.26495158672332764,-0.20490393042564392
1696958199601218000,10.813218017578125,0.949793815612793,0.2626481056213379,-0.28687769174575806
1696958199611231500,10.8232314453125,-0.3762493133544922,-0.015871167182922363,-0.1294889897108078
1696958199621245000,10.833244873046874,0.11197471618652344,-0.219132661819458,0.07895281910896301
1696958199631258400,10.84325830078125,0.7759552001953125,0.33601534366607666,-0.5188654661178589
1696958199641271800,10.853271728515624,-0.8841485977172852,-0.009189963340759277,-0.14819058775901794
1696958199651285200,10.86328515625,2.214740753173828,0.07928252220153809,0.11953496932983398
1696958199661298700,10.873298583984376,-1.2311391830444336,-0.06362557411193848,-0.026197820901870728
1696958199671312100,10.88331201171875,1.1372261047363281,0.3470284938812256,0.28440529108047485
1696958199681325600,10.89332568359375,0.7525424957275391,-0.05502903461456299,-0.04063400626182556
1696958199691339000,10.903339111328124,-0.9505624771118164,0.09920310974121094,0.5838305354118347
1696958199701352400,10.9133525390625,2.239434242248535,0.16492819786071777,0.42648574709892273
1696958199711366000,10.923365966796876,-1.7465791702270508,-0.08302569389343262,0.27574869990348816
1696958199721379300,10.93337939453125,1.3591032028198242,0.3207813501358032,0.6382896304130554
1696958199731392800,10.943392822265626,0.1184835433959961,0.2811225652694702,0.4331003725528717
1696958199741406200,10.95340625,-0.45061492919921875,0.31916558742523193,0.19918310642242432
1696958199751419600,10.963419677734375,0.4588022232055664,-0.02884232997894287,0.5541623830795288
1696958199761433000,10.97343310546875,-1.224452018737793,0.06523668766021729,0.23497390747070312
1696958199771446500,10.983446533203125,0.8622493743896484,0.4034123420715332,0.37117621302604675
1696958199781460000,10.9934599609375,-0.8026657104492188,0.021227359771728516,-0.19123759865760803
1696958199791473400,11.003473388671875,-0.7433004379272461,0.369706392288208,0.4169279634952545
1696958199801486800,11.01348681640625,1.2992792129516602,0.41063761711120605,0.4359314739704132
1696958199811500300,11.023500244140624,-2.08718204498291,0.10001528263092041,0.08467140793800354
1696958199821513700,11.033513671875,0.22119426727294922,0.16021060943603516,0.6423916816711426
1696958199831527200,11.043527099609374,0.20656871795654297,0.07949233055114746,0.13928288221359253
1696958199841540600,11.05354052734375,-1.3329315185546875,0.467726469039917,0.14850923418998718
1696958199851554000,11.063553955078126,2.292722702026367,0.3909153938293457,0.14013364911079407
1696958199861567500,11.0735673828125,-2.725888729095459,0.08117544651031494,0.08424326777458191
1696958199871581000,11.083580810546875,1.5382375717163086,0.11128294467926025,0.2283099889755249
1696958199881594400,11.093594482421874,-0.911992073059082,0.30174922943115234,-0.11226201057434082
1696958199891607800,11.10360791015625,-0.6331577301025391,0.20674777030944824,-0.10445250570774078
1696958199901621200,11.113621337890624,0.9168224334716797,0.5632913112640381,-0.3099996745586395
1696958199911634700,11.123634765625,-1.5945978164672852,-0.09998810291290283,0.050662070512771606
1696958199921648000,11.133648193359376,0.564356803894043,0.08879554271697998,0.025150001049041748
1696958199931661600,11.14366162109375,-1.3010139465332031,-0.05853462219238281,-0.1553078144788742
1696958199941675000,11.153675048828125,1.0436029434204102,0.5563066005706787,-0.002032727003097534
1696958199951688400,11.1636884765625,-0.06782341003417969,0.25882017612457275,-0.19579961895942688
1696958199961702000,11.173701904296875,-1.974858283996582,0.15624701976776123,-0.2039269208908081
1696958199971715300,11.18371533203125,1.7094507217407227,0.2360401153564453,0.14621621370315552
1696958199981728800,11.193728759765625,-1.9411516189575195,-0.004439353942871094,-0.05260774493217468
1696958199991742200,11.2037421875,0.6244087219238281,0.05070817470550537,0.4637398421764374
1696958200001755600,11.213755615234374,1.263218879699707,0.5797795057296753,-0.17776893079280853
1696958200011768800,11.223768798828125,-1.7176513671875,0.07039904594421387,0.07201960682868958
1696958200021782300,11.2337822265625,1.8318805694580078,0.03289639949798584,0.20989727973937988
1696958200031795700,11.243795654296875,-1.3602094650268555,0.12651610374450684,0.2378164827823639
1696958200041809200,11.25380908203125,-0.11051082611083984,0.03922224044799805,0.8414238691329956
1696958200051822600,11.263822509765625,1.825042724609375,0.5069204568862915,0.3895248472690582
1696958200061836000,11.2738359375,-1.281646728515625,-0.5273427963256836,0.2971513569355011
1696958200071849500,11.283849365234374,0.799708366394043,0.20949232578277588,-0.1831466108560562
1696958200081863000,11.29386279296875,0.3146638870239258,0.03868675231933594,-0.24814599752426147
1696958200091876400,11.30387646484375,-1.2444572448730469,-0.3599346876144409,-0.28806737065315247
1696958200101889800,11.313889892578125,1.463059425354004,-0.04477238655090332,-0.011193901300430298
1696958200111903200,11.3239033203125,-1.1642084121704102,-0.04505419731140137,0.05071449279785156
1696958200121916700,11.333916748046875,0.47725963592529297,-0.4268484115600586,0.12010034918785095
1696958200131930000,11.34393017578125,0.6577615737915039,0.3568263053894043,-0.18973994255065918
1696958200141943600,11.353943603515624,-0.7873306274414062,-0.2730001211166382,-0.3520781993865967
1696958200151957000,11.36395703125,1.3027687072753906,0.1224515438079834,0.16382503509521484
1696958200161970400,11.373970458984376,0.7072391510009766,0.33865177631378174,-0.03591756522655487
1696958200171984000,11.38398388671875,-2.391533851623535,-0.620163083076477,0.22019541263580322
1696958200181997300,11.393997314453125,2.7371578216552734,0.3924139738082886,1.1062781810760498
1696958200192010800,11.4040107421875,-1.7422809600830078,0.2901158332824707,0.6719410419464111
1696958200202024200,11.414024169921875,-1.1032791137695312,0.545341968536377,0.9915624260902405
1696958200212037600,11.42403759765625,1.7428741455078125,0.8196474313735962,1.3575690984725952
1696958200222051000,11.434051025390625,-3.0312390327453613,-0.17637062072753906,0.00044095516204833984
1696958200232064500,11.444064453125,1.2333641052246094,-0.7470881938934326,0.17957442998886108
1696958200242077700,11.45407763671875,1.5744733810424805,0.30785346031188965,-0.7668644785881042
1696958200252091100,11.464091064453125,-2.276920795440674,-1.2202606201171875,-1.158386468887329
1696958200262104600,11.4741044921875,1.7184362411499023,-2.519331693649292,-0.6391609907150269
1696958200272118000,11.484117919921875,0.4388856887817383,1.2686151266098022,-2.0174813270568848
1696958200282131500,11.49413134765625,-3.849490165710449,-1.4088324308395386,-1.1421334743499756
1696958200292144600,11.50414453125,4.1742048263549805,-0.40789222717285156,0.08024045825004578
1696958200302158000,11.514157958984375,1.9855260848999023,0.039299964904785156,0.2642463743686676
1696958200312171500,11.524171630859374,-3.0043492317199707,-0.4528123140335083,-0.6820920705795288
1696958200322185000,11.53418505859375,3.3829336166381836,-0.545009970664978,0.23398073017597198
1696958200332198400,11.544198486328124,0.3167428970336914,0.4154320955276489,-0.09841638803482056
1696958200342211600,11.554211669921875,-0.0044765472412109375,0.335446834564209,-1.4413442611694336
1696958200352225000,11.56422509765625,1.2714653015136719,-0.16583871841430664,-0.6912107467651367
1696958200362238500,11.574238525390625,1.9331235885620117,-0.5896327495574951,0.4499480724334717
1696958200372252000,11.584251953125,-0.5039091110229492,-0.6867550611495972,-0.40587401390075684
1696958200382265000,11.59426513671875,0.027736663818359375,0.10006117820739746,-0.2641146183013916
1696958200392278500,11.604278564453125,1.0462312698364258,-0.5169061422348022,0.21447902917861938
1696958200402292000,11.6142919921875,-1.1544485092163086,-0.6659413576126099,-0.3753335475921631
1696958200412305400,11.624305419921875,-0.4537925720214844,-0.45898008346557617,-1.020277738571167
1696958200422318800,11.63431884765625,1.3256750106811523,-0.24143660068511963,0.18356625735759735
1696958200432332000,11.64433203125,0.07546329498291016,-0.4013326168060303,0.044556424021720886
1696958200442345500,11.654345458984375,-1.663924217224121,0.17024314403533936,-0.31077688932418823
1696958200452359000,11.66435888671875,0.7490310668945312,0.1747056245803833,0.4994179904460907
1696958200462372400,11.674372314453125,0.011838912963867188,-0.31828248500823975,0.43228670954704285
1696958200472385800,11.6843857421875,-2.1576709747314453,0.37890303134918213,-0.3681374490261078
1696958200482399000,11.69439892578125,0.743891716003418,0.4311612844467163,0.3336195945739746
1696958200492412400,11.704412353515625,0.21689128875732422,-0.5587573051452637,0.5354982614517212
1696958200502425900,11.71442578125,-1.5518102645874023,-0.34229958057403564,-0.027243629097938538
1696958200512439300,11.724439208984375,-0.4916515350341797,-0.2507495880126953,0.18865859508514404
1696958200522452500,11.734452392578126,-0.34679603576660156,0.5605101585388184,0.36275598406791687
1696958200532466000,11.7444658203125,0.1654644012451172,0.014508605003356934,0.18281054496765137
1696958200542479400,11.754479248046875,-1.5647716522216797,-0.36410415172576904,0.1517421305179596
1696958200552492800,11.764492919921874,0.4317893981933594,-0.30826902389526367,0.5504969358444214
1696958200562506200,11.77450634765625,1.0235538482666016,-0.3151087760925293,0.03478819131851196
1696958200572519400,11.78451953125,-2.386223316192627,-0.09989011287689209,0.24553778767585754
1696958200582532900,11.794532958984375,1.9539155960083008,0.1231691837310791,0.16503599286079407
1696958200592546300,11.80454638671875,-0.7026681900024414,-0.31776750087738037,0.5368678569793701
1696958200602559700,11.814559814453125,-0.20891380310058594,-0.12768495082855225,0.35140785574913025
1696958200612573200,11.8245732421875,-0.2225513458251953,-0.7659118175506592,0.20701172947883606
1696958200622586400,11.83458642578125,1.0587778091430664,-0.08511197566986084,0.42996275424957275
1696958200632599800,11.844599853515625,0.36838531494140625,-0.18548154830932617,-0.026174455881118774
1696958200642613200,11.85461328125,-1.4438323974609375,0.040517449378967285,0.34540650248527527
1696958200652626700,11.864626708984375,1.881241798400879,-0.06683933734893799,0.5934556722640991
1696958200662640000,11.87464013671875,-0.5126543045043945,-0.3328535556793213,0.6610357165336609
1696958200672653300,11.8846533203125,-0.32026195526123047,-0.08498001098632812,0.026063114404678345
1696958200682666800,11.894666748046875,-0.23336315155029297,-0.0005331039428710938,0.7851536870002747
1696958200692680200,11.90468017578125,1.2726430892944336,-0.2565387487411499,0.41928553581237793
1696958200702693600,11.914693603515625,-1.7649917602539062,-0.6613901853561401,-0.1560087502002716
1696958200712707000,11.92470703125,0.17455005645751953,0.1927872896194458,-0.2741643786430359
1696958200722720500,11.934720458984375,0.2509593963623047,0.24412930011749268,-0.021243274211883545
1696958200732734000,11.94473388671875,-0.8107891082763672,-0.2670745849609375,-0.24171175062656403
1696958200742747400,11.954747314453124,-0.10614776611328125,-0.30202317237854004,0.22303633391857147
1696958200752760800,11.9647607421875,-0.5982799530029297,0.000014781951904296875,0.3046151101589203
1696958200762774300,11.974774169921876,1.376800537109375,0.10921621322631836,-0.2559112310409546
1696958200772787700,11.98478759765625,-2.110328197479248,-0.017867207527160645,-0.2560635209083557
1696958200782801200,11.99480126953125,0.9672126770019531,-0.27108871936798096,0.33643224835395813
1696958200792814600,12.004814697265624,0.23379802703857422,0.24676191806793213,-0.13212287425994873
1696958200802828000,12.014828125,-1.1435251235961914,-0.06673729419708252,-0.4609357714653015
1696958200812841500,12.024841552734374,0.025098800659179688,0.10737502574920654,0.04678104817867279
1696958200822855000,12.03485498046875,1.0332212448120117,0.04997587203979492,0.4751071631908417
1696958200832868400,12.044868408203126,-0.4271860122680664,-0.5278455018997192,0.11032891273498535
1696958200842881800,12.0548818359375,-0.8229532241821289,-0.3446829319000244,0.7589001655578613
1696958200852895200,12.064895263671875,2.031890869140625,-0.35305535793304443,1.0570125579833984
1696958200862908700,12.07490869140625,-0.5438690185546875,-0.7217093706130981,0.3313264846801758
1696958200872922000,12.084922119140625,-1.2264289855957031,-2.9919791221618652,-0.6858246326446533
1696958200882935600,12.094935546875,1.2474088668823242,0.8361629247665405,-2.5431063175201416
1696958200892949000,12.104948974609375,-0.42804908752441406,1.1942558288574219,-2.7445638179779053
1696958200902962400,12.11496240234375,0.14648056030273438,-0.25184166431427,-1.729060173034668
1696958200912976000,12.124975830078125,0.1361837387084961,-1.652675986289978,-0.3598597049713135
1696958200922989300,12.1349892578125,1.9040946960449219,0.2531712055206299,-0.8027622699737549
1696958200933002800,12.145002685546874,-1.283400535583496,0.08476722240447998,-0.9787352681159973
1696958200943016200,12.15501611328125,-0.25315189361572266,0.012061834335327148,-1.0996164083480835
1696958200953029600,12.165029541015626,1.4821510314941406,-0.48871374130249023,-0.8977477550506592
1696958200963043000,12.17504296875,0.5176849365234375,-0.16063833236694336,-1.404007911682129
1696958200973056500,12.185056396484375,-0.7359676361083984,0.38230347633361816,-2.1132450103759766
1696958200983070000,12.195070068359374,1.5928268432617188,0.03676581382751465,-1.3068034648895264
1696958200993083400,12.20508349609375,-0.8196010589599609,-0.1410677433013916,0.42416495084762573
1696958201003096800,12.215096923828124,1.002488136291504,-0.7264124155044556,-0.7131161689758301
1696958201013110300,12.2251103515625,-1.8387126922607422,-0.11795878410339355,-1.1400760412216187
1696958201023123700,12.235123779296876,1.830678939819336,-0.19191157817840576,-0.46095341444015503
1696958201033137200,12.24513720703125,1.0615110397338867,-0.23472750186920166,-0.4233005940914154
1696958201043150600,12.255150634765625,-1.527052879333496,-0.13861942291259766,-0.9066612124443054
1696958201053164000,12.2651640625,0.37829017639160156,-0.5393538475036621,-0.08577269315719604
1696958201063177500,12.275177490234375,0.2529888153076172,-0.6752108335494995,0.3208938241004944
1696958201073191000,12.28519091796875,-1.669112205505371,-0.4647589921951294,-0.4133811295032501
1696958201083204400,12.295204345703125,0.8673124313354492,0.020375490188598633,-0.7059816122055054
1696958201093217800,12.3052177734375,1.696767807006836,0.006023406982421875,-0.05281694978475571
1696958201103231200,12.315231201171875,-0.3292522430419922,-0.8893614411354065,-0.745241641998291
1696958201113244700,12.32524462890625,-1.494786262512207,-0.8883212804794312,-0.2488318681716919
1696958201123258000,12.335258056640624,1.8922767639160156,-0.6776410341262817,0.6363233327865601
1696958201133271600,12.345271484375,0.13872241973876953,-0.6160546541213989,0.13339629769325256
1696958201143285000,12.355284912109376,-0.7937936782836914,0.09638196229934692,0.1593887209892273
1696958201153298400,12.36529833984375,1.8796625137329102,-0.5246573686599731,0.7801971435546875
1696958201163311900,12.375311767578125,0.6707792282104492,-0.5288001298904419,0.4355584979057312
1696958201173325300,12.3853251953125,-0.6689071655273438,-0.6383724212646484,-0.35925936698913574
1696958201183338500,12.39533837890625,-0.5143575668334961,-0.8216392397880554,0.40444105863571167
1696958201193352000,12.40535205078125,2.12033748626709,-0.45811283588409424,0.6556333303451538
1696958201203365400,12.415365478515625,-1.4879789352416992,-0.7231912612915039,-0.26321423053741455
1696958201213378800,12.42537890625,0.2933006286621094,-0.40787720680236816,-0.023009955883026123
1696958201223392300,12.435392333984375,1.0768060684204102,-0.3828314542770386,0.42995768785476685
1696958201233405400,12.445405517578125,-0.6702079772949219,-0.6347852945327759,0.17295780777931213
1696958201243419000,12.4554189453125,0.07719802856445312,-0.7453457713127136,-0.2805789113044739
1696958201253432300,12.465432373046875,-0.4676933288574219,-0.7200590372085571,0.4718022346496582
1696958201263445800,12.47544580078125,1.507370948791504,-0.7246534824371338,0.2547677159309387
1696958201273459000,12.485458984375,-1.6598072052001953,-0.7592491507530212,-0.2033659815788269
1696958201283472400,12.495472412109375,0.7479286193847656,-0.8454923629760742,-0.10879825055599213
1696958201293485800,12.50548583984375,1.090592384338379,-0.647200345993042,0.3937293291091919
1696958201303499300,12.515499267578125,-1.0673980712890625,-0.6415700912475586,-0.3945840299129486
1696958201313512700,12.5255126953125,-0.48171329498291016,-0.7068064212799072,0.04676027595996857
1696958201323526000,12.53552587890625,0.6858062744140625,-0.7458230257034302,0.41059017181396484
1696958201333539300,12.545539306640626,-0.6491050720214844,-0.8605715036392212,0.09724242985248566
1696958201343552800,12.555552734375,-1.3786993026733398,-0.8109773993492126,-0.5775231719017029
1696958201353566200,12.565566162109375,0.8756532669067383,-0.6468257904052734,-0.09163585305213928
