time,seconds_elapsed,z,y,x
1696965065392290600,0.13829052734375,0.041410934180021286,0.0213046595454216,-0.027562905102968216
1696965065402199000,0.148198974609375,0.033954303711652756,0.07882724702358246,-0.027562905102968216
1696965065412142600,0.158142578125,0.029693370684981346,0.0852186381816864,-0.004127778112888336
1696965065422122500,0.16812255859375,0.029693370684981346,0.05006595328450203,-0.005193010903894901
1696965065432138500,0.178138427734375,0.028628136962652206,0.05219641700387001,-0.008388710208237171
1696965065442189000,0.18818896484375,0.022236740216612816,0.02663082629442215,0.00226362026296556
1696965065452271900,0.19827197265625,0.029693370684981346,-0.0106523297727108,0.025698747485876083
1696965065462382300,0.20838232421875,0.031823836266994476,-0.02982652559876442,0.041677240282297134
1696965065472515600,0.218515625,0.021171506494283676,-0.04900071769952774,0.015046416781842709
1696965065482666000,0.228666015625,0.020106272771954536,-0.04154408723115921,0.047003407031297684
1696965065492827600,0.23882763671875,0.025432437658309937,-0.0319569893181324,0.05232957378029823
1696965065502994000,0.248993896484375,0.020106272771954536,-0.02876129187643528,0.053394805639982224
1696965065513122300,0.259122314453125,0.015845341607928276,-0.03408745676279068,0.031024912372231483
1696965065523136500,0.269136474609375,0.021171506494283676,-0.0031956990715116262,0.07363422960042953
1696965065533150700,0.279150634765625,0.022236740216612816,-0.03515268862247467,0.027829213067889214
1696965065543164700,0.28916455078125,0.023301972076296806,-0.0426093190908432,0.06830807030200958
1696965065553179000,0.299178955078125,0.027562905102968216,-0.0213046595454216,0.05232957378029823
1696965065563193000,0.309193115234375,0.029693370684981346,-0.04047885537147522,0.04593817517161369
1696965065573207300,0.319207275390625,0.037150003015995026,-0.03515268862247467,0.06404713541269302
1696965065583221500,0.329221435546875,0.042476166039705276,-0.04473978653550148,0.057655736804008484
1696965065593235700,0.339235595703125,0.038215234875679016,-0.01704372838139534,0.034220609813928604
1696965065603250000,0.34925,0.04673709720373154,-0.04900071769952774,0.07896039634943008
1696965065613264000,0.359263916015625,0.05632419511675835,-0.02023942768573761,0.043807707726955414
1696965065623278000,0.369278076171875,0.052063263952732086,-0.04047885537147522,0.050199106335639954
1696965065633292300,0.379292236328125,0.05632419511675835,-0.02023942768573761,0.050199106335639954
1696965065643306500,0.389306396484375,0.06484606117010117,-0.02769605815410614,0.06404713541269302
1696965065653320700,0.39932080078125,0.060585130006074905,-0.02663082629442215,0.026763979345560074
1696965065663335000,0.4093349609375,0.06591129302978516,-0.02556559257209301,0.06830807030200958
1696965065673348900,0.419348876953125,0.06378082931041718,-0.0053261648863554,0.029959678649902344
1696965065683363000,0.429363037109375,0.06271559745073318,-0.02876129187643528,0.041677240282297134
1696965065693377300,0.439377197265625,0.06804175674915314,-0.0031956990715116262,0.044872939586639404
1696965065703391500,0.4493916015625,0.06591129302978516,-0.0053261648863554,0.019307348877191544
1696965065713405700,0.45940576171875,0.061650361865758896,-0.0063913981430232525,0.033155377954244614
1696965065723420000,0.469419921875,0.06378082931041718,0.012782796286046505,0.024633513763546944
1696965065733433900,0.479433837890625,0.057389430701732635,-0.007456631399691105,0.017176883295178413
1696965065743448000,0.489447998046875,0.055258963257074356,0.01810896210372448,0.029959678649902344
1696965065753462300,0.499462158203125,0.05312849581241608,0.0021304660476744175,0.027829213067889214
1696965065763476500,0.5094765625,0.04673709720373154,0.02023942768573761,0.007589785382151604
1696965065773490700,0.51949072265625,0.047802332788705826,0.009587096981704235,0.051264338195323944
1696965065783505000,0.5295048828125,0.040345702320337296,0.01491326279938221,0.012915950268507004
1696965065793518800,0.539518798828125,0.03608476743102074,0.007456631399691105,0.027829213067889214
1696965065803533000,0.549532958984375,0.041410934180021286,0.0063913981430232525,0.047003407031297684
1696965065813547300,0.55954736328125,0.029693370684981346,-0.0063913981430232525,0.006524552125483751
1696965065823561500,0.5695615234375,0.029693370684981346,0.02023942768573761,0.043807707726955414
1696965065833575700,0.57957568359375,0.033954303711652756,-0.01917419396340847,0.037416309118270874
1696965065843590000,0.58958984375,0.026497671380639076,0.0010652330238372087,0.00226362026296556
1696965065853603800,0.599603759765625,0.031823836266994476,-0.00852186419069767,0.06937330216169357
1696965065863618000,0.6096181640625,0.030758604407310486,-0.01704372838139534,-0.008388710208237171
1696965065873632300,0.61963232421875,0.026497671380639076,-0.007456631399691105,0.034220609813928604
1696965065883646500,0.629646484375,0.035019535571336746,-0.01917419396340847,0.04274247586727142
1696965065893660700,0.63966064453125,0.030758604407310486,-0.0106523297727108,0.005459319334477186
1696965065903675000,0.6496748046875,0.031823836266994476,-0.0106523297727108,0.028894444927573204
1696965065913689000,0.659689208984375,0.03608476743102074,-0.01810896210372448,0.028894444927573204
1696965065923703000,0.669703125,0.03288906812667847,0.012782796286046505,0.0033288532868027687
1696965065933717200,0.67971728515625,0.03928046673536301,-0.01171756349503994,0.037416309118270874
1696965065943731500,0.6897314453125,0.038215234875679016,0.01917419396340847,0.005459319334477186
1696965065953745700,0.69974560546875,0.038215234875679016,0.004260932095348835,0.029959678649902344
1696965065963759900,0.709759765625,0.047802332788705826,0,0.029959678649902344
1696965065973774000,0.719774169921875,0.040345702320337296,0.02450035884976387,0.005459319334477186
1696965065983788300,0.729788330078125,0.042476166039705276,-0.0106523297727108,0.03954677656292915
1696965065993802500,0.739802490234375,0.050998032093048096,0.0021304660476744175,0.027829213067889214
1696965066003816700,0.749816650390625,0.041410934180021286,-0.0063913981430232525,0.012915950268507004
1696965066013831000,0.759830810546875,0.047802332788705826,-0.012782796286046505,0.04913387447595596
1696965066023845000,0.76984521484375,0.05312849581241608,-0.01810896210372448,0.029959678649902344
1696965066033859300,0.779859375,0.042476166039705276,-0.0213046595454216,0.012915950268507004
1696965066043873500,0.78987353515625,0.048867564648389816,-0.01384802907705307,0.061916667968034744
1696965066053887700,0.7998876953125,0.048867564648389816,-0.0319569893181324,0.011850717477500439
1696965066063902000,0.80990185546875,0.041410934180021286,-0.01171756349503994,0.034220609813928604
1696965066073916200,0.819916259765625,0.047802332788705826,-0.02236989326775074,0.044872939586639404
1696965066083930400,0.829930419921875,0.045671865344047546,-0.0063913981430232525,0.016111649572849274
1696965066093944600,0.839944580078125,0.03928046673536301,-0.01917419396340847,0.029959678649902344
1696965066103958800,0.849958740234375,0.04673709720373154,0.01171756349503994,0.033155377954244614
1696965066113973000,0.859972900390625,0.040345702320337296,-0.0106523297727108,0.016111649572849274
1696965066123987200,0.8699873046875,0.037150003015995026,0.0159784946590662,0.021437814459204674
1696965066134001400,0.88000146484375,0.045671865344047546,0.0031956990715116262,0.05659050494432449
1696965066144015600,0.890015625,0.03928046673536301,0.0106523297727108,-0.025432437658309937
1696965066154029800,0.90002978515625,0.038215234875679016,0.01491326279938221,0.053394805639982224
1696965066164044000,0.9100439453125,0.042476166039705276,0.01384802907705307,0.00226362026296556
1696965066174058200,0.920058349609375,0.038215234875679016,0.01491326279938221,0.020372580736875534
1696965066184072400,0.930072509765625,0.040345702320337296,0.0010652330238372087,0.018242115154862404
1696965066194086700,0.940086669921875,0.045671865344047546,0.0031956990715116262,0.015046416781842709
1696965066204101000,0.95010107421875,0.043541401624679565,0.0063913981430232525,0.004394086077809334
1696965066214115300,0.960115234375,0.045671865344047546,-0.0021304660476744175,0.012915950268507004
1696965066224129500,0.970129638671875,0.04673709720373154,0.007456631399691105,0.004394086077809334
1696965066234143700,0.980143798828125,0.045671865344047546,0.007456631399691105,-0.004127778112888336
1696965066244158000,0.990157958984375,0.04993279650807381,-0.0053261648863554,0.025698747485876083
1696965066254172200,1.000172119140625,0.052063263952732086,0.0063913981430232525,-0.014780107885599136
1696965066264186400,1.010186279296875,0.047802332788705826,0.01171756349503994,0.016111649572849274
1696965066274200600,1.02020068359375,0.05312849581241608,0.0010652330238372087,0.004394086077809334
1696965066284214800,1.03021484375,0.058454662561416626,0.0031956990715116262,0.012915950268507004
1696965066294229000,1.04022900390625,0.04993279650807381,-0.0021304660476744175,0.004394086077809334
1696965066304243200,1.0502431640625,0.055258963257074356,0.01491326279938221,0.016111649572849274
1696965066314257400,1.06025732421875,0.061650361865758896,-0.01171756349503994,0.031024912372231483
1696965066324271600,1.070271728515625,0.054193731397390366,0.01384802907705307,-0.015845341607928276
1696965066334285800,1.080285888671875,0.060585130006074905,-0.007456631399691105,0.05978620424866676
1696965066344300000,1.090300048828125,0.059519894421100616,0.02023942768573761,-0.009453942999243736
1696965066354314200,1.100314208984375,0.054193731397390366,-0.0031956990715116262,0.034220609813928604
1696965066364328400,1.110328369140625,0.060585130006074905,0.01491326279938221,0.03209014609456062
1696965066374342700,1.1203427734375,0.060585130006074905,0.0031956990715116262,0.022503048181533813
1696965066384356900,1.13035693359375,0.05312849581241608,0.01171756349503994,0.019307348877191544
1696965066394371000,1.14037109375,0.059519894421100616,0.0010652330238372087,0.037416309118270874
1696965066404385300,1.15038525390625,0.059519894421100616,0,0.020372580736875534
1696965066414399500,1.1603994140625,0.05312849581241608,-0.01704372838139534,0.017176883295178413
1696965066424413700,1.17041357421875,0.061650361865758896,-0.01171756349503994,0.04913387447595596
1696965066434428000,1.180427978515625,0.055258963257074356,-0.0053261648863554,-0.012649642303586006
1696965066444442400,1.1904423828125,0.05312849581241608,-0.03089175745844841,0.034220609813928604
1696965066454456600,1.20045654296875,0.059519894421100616,0.0010652330238372087,0.013981183059513569
1696965066464470800,1.210470703125,0.055258963257074356,-0.02023942768573761,0.019307348877191544
1696965066474485000,1.220485107421875,0.050998032093048096,-0.00852186419069767,0.0033288532868027687
1696965066484499200,1.230499267578125,0.057389430701732635,-0.01384802907705307,0.043807707726955414
1696965066494513400,1.240513427734375,0.054193731397390366,0.007456631399691105,-0.009453942999243736
1696965066504527600,1.250527587890625,0.050998032093048096,-0.02450035884976387,0.025698747485876083
1696965066514541800,1.260541748046875,0.059519894421100616,0.0063913981430232525,0.019307348877191544
1696965066524556000,1.27055615234375,0.052063263952732086,-0.0031956990715116262,0.007589785382151604
1696965066534570200,1.2805703125,0.05312849581241608,0,0.023568280041217804
1696965066544584400,1.29058447265625,0.059519894421100616,0.0010652330238372087,0.024633513763546944
1696965066554598700,1.3005986328125,0.050998032093048096,0.00852186419069767,0.0033288532868027687
1696965066564612900,1.31061279296875,0.05632419511675835,0.01171756349503994,0.034220609813928604
1696965066574627000,1.320626953125,0.059519894421100616,0.0063913981430232525,0.022503048181533813
1696965066584641300,1.330641357421875,0.050998032093048096,0.0213046595454216,0.009720250964164734
1696965066594655500,1.340655517578125,0.05632419511675835,0.0053261648863554,0.048068638890981674
1696965066604669700,1.350669677734375,0.059519894421100616,0.0106523297727108,0.010785484686493874
1696965066614684000,1.360683837890625,0.050998032093048096,0.01491326279938221,0.023568280041217804
1696965066624698000,1.370697998046875,0.05632419511675835,0.0021304660476744175,0.036351077258586884
1696965066634712300,1.38071240234375,0.058454662561416626,0.0053261648863554,0.022503048181533813
1696965066644726500,1.3907265625,0.052063263952732086,0.0021304660476744175,0.016111649572849274
1696965066654740700,1.40074072265625,0.058454662561416626,-0.0063913981430232525,0.051264338195323944
1696965066664755000,1.4107548828125,0.055258963257074356,0.007456631399691105,0.004394086077809334
1696965066674769200,1.42076904296875,0.050998032093048096,-0.007456631399691105,0.037416309118270874
1696965066684783600,1.43078369140625,0.05632419511675835,-0.0010652330238372087,0.034220609813928604
1696965066694797800,1.4407978515625,0.052063263952732086,0.0031956990715116262,0.013981183059513569
1696965066704812000,1.45081201171875,0.048867564648389816,-0.0021304660476744175,0.033155377954244614
1696965066714826200,1.460826171875,0.055258963257074356,0.0063913981430232525,0.03954677656292915
1696965066724840400,1.47084033203125,0.048867564648389816,0.007456631399691105,0.013981183059513569
1696965066734854700,1.480854736328125,0.04993279650807381,0.0053261648863554,0.037416309118270874
1696965066744868900,1.490868896484375,0.05312849581241608,-0.0053261648863554,0.04274247586727142
1696965066754883000,1.500883056640625,0.048867564648389816,0.01491326279938221,0.00226362026296556
1696965066764897300,1.510897216796875,0.052063263952732086,-0.0213046595454216,0.057655736804008484
1696965066774911500,1.520911376953125,0.059519894421100616,-0.0063913981430232525,0.017176883295178413
1696965066784925700,1.53092578125,0.052063263952732086,-0.01917419396340847,0.023568280041217804
1696965066794940000,1.54093994140625,0.057389430701732635,-0.01810896210372448,0.025698747485876083
1696965066804954000,1.5509541015625,0.059519894421100616,-0.02556559257209301,0.027829213067889214
1696965066814968300,1.56096826171875,0.05632419511675835,-0.0106523297727108,0.005459319334477186
1696965066824982500,1.570982421875,0.058454662561416626,-0.01704372838139534,0.026763979345560074
1696965066834996700,1.580996826171875,0.061650361865758896,-0.01491326279938221,0.016111649572849274
1696965066845011000,1.591010986328125,0.059519894421100616,-0.00852186419069767,0.0011983871227130294
1696965066855025200,1.601025146484375,0.06271559745073318,-0.0159784946590662,0.023568280041217804
1696965066865039400,1.611039306640625,0.06697652488946915,-0.007456631399691105,0.006524552125483751
1696965066875053600,1.621053466796875,0.061650361865758896,-0.01491326279938221,0.006524552125483751
1696965066885067800,1.63106787109375,0.06804175674915314,-0.02982652559876442,0.033155377954244614
1696965066895082000,1.64108203125,0.06804175674915314,-0.0031956990715116262,0.00226362026296556
1696965066905096200,1.65109619140625,0.061650361865758896,-0.02876129187643528,0.015046416781842709
1696965066915110400,1.6611103515625,0.07017222791910172,-0.02450035884976387,0.028894444927573204
1696965066925124900,1.671124755859375,0.06804175674915314,-0.012782796286046505,0.007589785382151604
1696965066935139000,1.68113916015625,0.06484606117010117,-0.03728315606713295,0.024633513763546944
1696965066945153300,1.6911533203125,0.0723026916384697,-0.01384802907705307,0.023568280041217804
1696965066955167500,1.70116748046875,0.07017222791910172,-0.0319569893181324,0.027829213067889214
1696965066965181700,1.711181640625,0.061650361865758896,0.0010652330238372087,-0.007323476951569319
1696965066975196200,1.721196044921875,0.0712374597787857,-0.03089175745844841,0.06404713541269302
1696965066985210400,1.73121044921875,0.06591129302978516,0.0063913981430232525,-0.014780107885599136
1696965066995224600,1.741224609375,0.058454662561416626,-0.01491326279938221,0.04274247586727142
1696965067005238800,1.75123876953125,0.0723026916384697,-0.0031956990715116262,0.03528584539890289
1696965067015253200,1.761253173828125,0.06271559745073318,-0.009587096981704235,0.0011983871227130294
1696965067025267500,1.771267333984375,0.055258963257074356,0.009587096981704235,0.029959678649902344
1696965067035281700,1.78128173828125,0.06697652488946915,-0.0053261648863554,0.04274247586727142
1696965067045295900,1.7912958984375,0.057389430701732635,0.0021304660476744175,-0.001997311832383275
1696965067055310300,1.801310302734375,0.057389430701732635,0.01491326279938221,0.058720968663692474
1696965067065324500,1.811324462890625,0.06378082931041718,0.0010652330238372087,0.013981183059513569
1696965067075338800,1.8213388671875,0.055258963257074356,0.0319569893181324,0.008655018173158169
1696965067085353000,1.83135302734375,0.055258963257074356,0.0159784946590662,0.044872939586639404
1696965067095367200,1.8413671875,0.058454662561416626,0.03089175745844841,0.010785484686493874
1696965067105381600,1.851381591796875,0.050998032093048096,0.01917419396340847,0.03528584539890289
1696965067115395800,1.861395751953125,0.05632419511675835,0.02556559257209301,0.017176883295178413
1696965067125410000,1.87141015625,0.05632419511675835,0.02663082629442215,0.036351077258586884
1696965067135424300,1.88142431640625,0.055258963257074356,0.02556559257209301,0.012915950268507004
1696965067145438700,1.891438720703125,0.057389430701732635,0.009587096981704235,0.023568280041217804
1696965067155453000,1.901452880859375,0.057389430701732635,0.01491326279938221,0.037416309118270874
1696965067165467100,1.911467041015625,0.054193731397390366,0.02023942768573761,0.019307348877191544
1696965067175481300,1.9214814453125,0.058454662561416626,-0.01384802907705307,0.029959678649902344
1696965067185495800,1.931495849609375,0.061650361865758896,0,0.03209014609456062
1696965067195510000,1.941510009765625,0.05312849581241608,0.004260932095348835,0.009720250964164734
1696965067205524200,1.951524169921875,0.058454662561416626,-0.007456631399691105,0.051264338195323944
1696965067215538400,1.961538330078125,0.06271559745073318,-0.007456631399691105,0.029959678649902344
1696965067225553000,1.971552978515625,0.05312849581241608,-0.0021304660476744175,0.016111649572849274
1696965067235567000,1.981567138671875,0.058454662561416626,0.0021304660476744175,0.06298190355300903
1696965067245581300,1.991581298828125,0.060585130006074905,-0.02556559257209301,0.009720250964164734
1696965067255595500,2.001595458984375,0.055258963257074356,-0.01810896210372448,0.027829213067889214
1696965067265610000,2.01160986328125,0.061650361865758896,-0.01384802907705307,0.054460037499666214
1696965067275624200,2.021624267578125,0.06378082931041718,-0.04793548583984375,0.018242115154862404
1696965067285638400,2.031638427734375,0.05632419511675835,-0.02769605815410614,0.019307348877191544
1696965067295652600,2.041652587890625,0.06591129302978516,-0.04473978653550148,0.051264338195323944
1696965067305667000,2.0516669921875,0.06271559745073318,-0.05432688444852829,-0.0030625448562204838
1696965067315681300,2.061681396484375,0.059519894421100616,-0.02769605815410614,0.03528584539890289
1696965067325695500,2.071695556640625,0.06591129302978516,-0.06178351491689682,0.036351077258586884
1696965067335709700,2.081709716796875,0.061650361865758896,-0.02769605815410614,0.0033288532868027687
1696965067345724200,2.09172412109375,0.061650361865758896,-0.04900071769952774,0.054460037499666214
1696965067355738400,2.10173828125,0.06591129302978516,-0.02663082629442215,0.018242115154862404
1696965067365752600,2.111752685546875,0.059519894421100616,-0.02556559257209301,0.031024912372231483
1696965067375766800,2.121766845703125,0.060585130006074905,-0.02023942768573761,0.047003407031297684
1696965067385781000,2.131781005859375,0.06804175674915314,-0.02023942768573761,0.04593817517161369
1696965067395795200,2.141795166015625,0.05632419511675835,-0.01810896210372448,0.037416309118270874
1696965067405809400,2.151809326171875,0.058454662561416626,-0.009587096981704235,0.06298190355300903
1696965067415824000,2.161823974609375,0.06271559745073318,-0.01917419396340847,0.066177599132061
1696965067425838000,2.171838134765625,0.04993279650807381,0.0031956990715116262,0.041677240282297134
1696965067435852300,2.181852294921875,0.058454662561416626,-0.01491326279938221,0.0981345921754837
1696965067445866500,2.191866455078125,0.06804175674915314,-0.02343512699007988,0.0768299326300621
1696965067455880700,2.201880615234375,0.055258963257074356,-0.01917419396340847,0.07150376588106155
1696965067465895000,2.21189501953125,0.060585130006074905,-0.02769605815410614,0.11411308497190475
1696965067475909000,2.2219091796875,0.06378082931041718,-0.01810896210372448,0.10026505589485168
1696965067485923300,2.23192333984375,0.05312849581241608,-0.02876129187643528,0.09493889659643173
1696965067495937500,2.2419375,0.06484606117010117,-0.02663082629442215,0.15991811454296112
1696965067505951700,2.25195166015625,0.06591129302978516,-0.01384802907705307,0.11411308497190475
1696965067515966000,2.261966064453125,0.05312849581241608,-0.03089175745844841,0.13648298382759094
1696965067525980200,2.271980224609375,0.06484606117010117,-0.007456631399691105,0.17909230291843414
1696965067535994400,2.281994384765625,0.06378082931041718,-0.0010652330238372087,0.13754820823669434
1696965067546008600,2.292008544921875,0.04673709720373154,0.02450035884976387,0.15459194779396057
1696965067556022800,2.302022705078125,0.060585130006074905,0.03515268862247467,0.20891882479190826
1696965067566037000,2.312037109375,0.054193731397390366,0.05113118514418602,0.14500483870506287
1696965067576051200,2.32205126953125,0.041410934180021286,0.0745663121342659,0.16843996942043304
1696965067586065400,2.3320654296875,0.04993279650807381,0.08308817446231842,0.20998406410217285
1696965067596079600,2.34207958984375,0.044606633484363556,0.09161003679037094,0.1311568170785904
1696965067606093800,2.35209375,0.037150003015995026,0.11611039936542511,0.18015754222869873
1696965067616108000,2.36210791015625,0.044606633484363556,0.09906667470932007,0.19187510013580322
1696965067626122200,2.372122314453125,0.03928046673536301,0.12356702983379364,0.10239552706480026
1696965067636136400,2.382136474609375,0.04673709720373154,0.09800143539905548,0.18867939710617065
1696965067646151000,2.39215087890625,0.047802332788705826,0.10439283400774002,0.1194392517209053
1696965067656165000,2.4021650390625,0.03928046673536301,0.12356702983379364,0.1087869256734848
1696965067666179300,2.412179443359375,0.03608476743102074,0.12250179797410965,0.10985215753316879
1696965067676193500,2.422193603515625,0.037150003015995026,0.1288931965827942,0.08002562820911407
1696965067686207700,2.432207763671875,0.033954303711652756,0.12037133425474167,0.05659050494432449
1696965067696222000,2.442221923828125,0.03608476743102074,0.14061075448989868,0.05232957378029823
1696965067706236200,2.452236083984375,0.038215234875679016,0.10332760214805603,0.027829213067889214
1696965067716250400,2.46225048828125,0.05312849581241608,0.14274121820926666,-0.029693370684981346
1696965067726264600,2.4722646484375,0.1671084314584732,0.06817491352558136,-0.006258244160562754
1696965067736278800,2.48227880859375,0.2523270845413208,0.10226237028837204,-0.06271559745073318
1696965067746293000,2.49229296875,0.2533923089504242,0.05752258375287056,-0.08615072071552277
1696965067756307200,2.50230712890625,0.17136935889720917,0.08415340632200241,-0.10958584398031235
1696965067766321400,2.5123212890625,0.0936073511838913,0.02023942768573761,-0.12769481539726257
1696965067776335600,2.522335693359375,0.054193731397390366,0.10226237028837204,-0.1671084314584732
1696965067786349800,2.532349853515625,0.045671865344047546,0.0106523297727108,-0.15965180099010468
1696965067796364000,2.542364013671875,0.047802332788705826,0.03515268862247467,-0.20545682311058044
1696965067806378200,2.552378173828125,0.050998032093048096,0.03728315606713295,-0.22782671451568604
1696965067816392700,2.562392822265625,0.06484606117010117,-0.02236989326775074,-0.20652204751968384
1696965067826407000,2.572406982421875,0.055258963257074356,0.007456631399691105,-0.2832188308238983
1696965067836421000,2.582421142578125,0.059519894421100616,-0.02982652559876442,-0.21717438101768494
1696965067846435300,2.592435302734375,0.061650361865758896,-0.007456631399691105,-0.2853493094444275
1696965067856449800,2.60244970703125,0.06378082931041718,-0.02343512699007988,-0.24593567848205566
1696965067866464000,2.612464111328125,0.060585130006074905,-0.004260932095348835,-0.2981320917606354
1696965067876478200,2.622478271484375,0.06378082931041718,-0.00852186419069767,-0.2544575333595276
1696965067886492400,2.632492431640625,0.06804175674915314,-0.0063913981430232525,-0.2736317217350006
1696965067896507000,2.6425068359375,0.06591129302978516,-0.01384802907705307,-0.2544575333595276
1696965067906521000,2.65252099609375,0.06910699605941772,-0.009587096981704235,-0.24913136661052704
1696965067916535300,2.662535400390625,0.0712374597787857,-0.01384802907705307,-0.24487043917179108
1696965067926549500,2.672549560546875,0.06484606117010117,-0.01171756349503994,-0.24487043917179108
1696965067936564000,2.68256396484375,0.07443315535783768,-0.03515268862247467,-0.21291345357894897
1696965067946578200,2.692578125,0.07549838721752167,-0.02663082629442215,-0.2118482142686844
1696965067956592400,2.70259228515625,0.06378082931041718,-0.03302222490310669,-0.20758728682994843
1696965067966606600,2.712606689453125,0.07336792349815369,-0.04154408723115921,-0.17030413448810577
1696965067976621000,2.72262109375,0.0723026916384697,-0.08628387749195099,-0.18202169239521027
1696965067986635300,2.73263525390625,0.05632419511675835,-0.05006595328450203,-0.1884130984544754
1696965067996649500,2.7426494140625,0.07017222791910172,-0.06604444980621338,-0.10745538026094437
1696965068006663700,2.75266357421875,0.06697652488946915,-0.09267527610063553,-0.16497796773910522
1696965068016678100,2.76267822265625,0.04673709720373154,-0.06710968166589737,-0.12876003980636597
1696965068026692400,2.7726923828125,0.059519894421100616,-0.0639139786362648,-0.07443315535783768
1696965068036706600,2.78270654296875,0.05632419511675835,-0.0958709716796875,-0.10532491654157639
1696965068046720800,2.792720703125,0.041410934180021286,-0.04580501839518547,-0.08721595257520676
1696965068056735200,2.8027353515625,0.050998032093048096,-0.0745663121342659,-0.023301972076296806
1696965068066749400,2.81274951171875,0.047802332788705826,-0.06604444980621338,-0.06697652488946915
1696965068076763600,2.822763671875,0.033954303711652756,-0.04047885537147522,-0.028628136962652206
1696965068086777900,2.83277783203125,0.043541401624679565,-0.05752258375287056,0.013981183059513569
1696965068096792000,2.8427919921875,0.042476166039705276,-0.04047885537147522,-0.015845341607928276
1696965068106806500,2.852806640625,0.029693370684981346,-0.02663082629442215,0.007589785382151604
1696965068116820700,2.86282080078125,0.045671865344047546,-0.04367455467581749,0.06298190355300903
1696965068126835000,2.8728349609375,0.043541401624679565,-0.03941362351179123,0.008655018173158169
1696965068136849200,2.88284912109375,0.033954303711652756,-0.01704372838139534,0.040612008422613144
1696965068146863600,2.892863525390625,0.048867564648389816,-0.03408745676279068,0.09387365728616714
1696965068156877800,2.9028779296875,0.050998032093048096,-0.04793548583984375,0.021437814459204674
1696965068166892000,2.91289208984375,0.03928046673536301,-0.02556559257209301,0.066177599132061
1696965068176906200,2.92290625,0.055258963257074356,-0.03941362351179123,0.09493889659643173
1696965068186920700,2.932920654296875,0.060585130006074905,-0.02982652559876442,0.054460037499666214
1696965068196935000,2.942934814453125,0.050998032093048096,-0.05965305119752884,0.061916667968034744
1696965068206949000,2.95294921875,0.060585130006074905,-0.02876129187643528,0.08428656309843063
1696965068216963300,2.96296337890625,0.06484606117010117,-0.04047885537147522,0.06937330216169357
1696965068226977800,2.972977783203125,0.057389430701732635,-0.03515268862247467,0.04913387447595596
1696965068236992000,2.982991943359375,0.06591129302978516,-0.04900071769952774,0.0768299326300621
1696965068247006200,2.993006103515625,0.06804175674915314,-0.02343512699007988,0.036351077258586884
1696965068257020400,3.0030205078125,0.060585130006074905,-0.03728315606713295,0.047003407031297684
1696965068267035000,3.013034912109375,0.06697652488946915,-0.03302222490310669,0.03528584539890289
1696965068277049000,3.023049072265625,0.06484606117010117,-0.02982652559876442,0.019307348877191544
1696965068287063300,3.033063232421875,0.060585130006074905,-0.04047885537147522,0.019307348877191544
1696965068297077500,3.043077392578125,0.06378082931041718,-0.04154408723115921,0.00226362026296556
1696965068307092000,3.053092041015625,0.061650361865758896,-0.04154408723115921,-0.016910573467612267
1696965068317106200,3.063106201171875,0.05632419511675835,-0.03728315606713295,-0.020106272771954536
1696965068327120400,3.073120361328125,0.059519894421100616,-0.03834838792681694,-0.03928046673536301
1696965068337134600,3.083134521484375,0.054193731397390366,-0.0426093190908432,-0.059519894421100616
1696965068347149000,3.093149169921875,0.04993279650807381,-0.04154408723115921,-0.0712374597787857
1696965068357163300,3.103163330078125,0.054193731397390366,-0.05006595328450203,-0.0712374597787857
1696965068367177500,3.113177490234375,0.050998032093048096,-0.0532616525888443,-0.11704248189926147
1696965068377191700,3.123191650390625,0.048867564648389816,-0.03728315606713295,-0.11704248189926147
1696965068387206000,3.133205810546875,0.055258963257074356,-0.06497921794652939,-0.11810771375894547
1696965068397220000,3.14322021484375,0.054193731397390366,-0.02982652559876442,-0.16178226470947266
1696965068407234300,3.153234375,0.057389430701732635,-0.0532616525888443,-0.14367330074310303
1696965068417248500,3.16324853515625,0.06271559745073318,-0.03089175745844841,-0.1681736707687378
1696965068427262700,3.1732626953125,0.06484606117010117,-0.01171756349503994,-0.17456506192684174
1696965068437277000,3.18327685546875,0.06378082931041718,-0.0010652330238372087,-0.18202169239521027
1696965068447291100,3.193291015625,0.0712374597787857,0.007456631399691105,-0.16071702539920807
1696965068457305600,3.2033056640625,0.07017222791910172,0.0213046595454216,-0.19800019264221191
1696965068467319800,3.21331982421875,0.0723026916384697,0.04367455467581749,-0.16604319214820862
1696965068477334000,3.223333984375,0.08082455396652222,0.03302222490310669,-0.16604319214820862
1696965068487348200,3.23334814453125,0.08188978582620621,0.0532616525888443,-0.17136935889720917
1696965068497362400,3.243362548828125,0.08402025699615479,0.05539211630821228,-0.15219517052173615
1696965068507376600,3.253376708984375,0.10639014840126038,0.05006595328450203,-0.14154283702373505
1696965068517390800,3.263390869140625,0.11278154700994492,0.07030537724494934,-0.13302096724510193
1696965068527405000,3.273405029296875,0.09786828607320786,0.06924014538526535,-0.12023817747831345
1696965068537419300,3.283419189453125,0.0936073511838913,0.08841434121131897,-0.07762885838747025
1696965068547433500,3.29343359375,0.09573781490325928,0.10226237028837204,-0.09147688746452332
1696965068557447700,3.30344775390625,0.08721595257520676,0.1384802907705307,-0.057389430701732635
1696965068567462000,3.3134619140625,0.0925421193242073,0.13421936333179474,-0.020106272771954536
1696965068577476000,3.32347607421875,0.08082455396652222,0.17363297939300537,-0.027562905102968216
1696965068587490300,3.333490234375,0.06484606117010117,0.17789392173290253,0.025698747485876083
1696965068597504500,3.34350439453125,0.06484606117010117,0.18641577661037445,0.043807707726955414
1696965068607518700,3.353518798828125,0.058454662561416626,0.20772044360637665,0.06830807030200958
1696965068617533000,3.363532958984375,0.045671865344047546,0.2130466103553772,0.07469946891069412
1696965068627547100,3.373547119140625,0.047802332788705826,0.20985090732574463,0.1407439112663269
1696965068637561300,3.383561279296875,0.041410934180021286,0.20026381313800812,0.151396244764328
1696965068647575600,3.393575439453125,0.029693370684981346,0.21517707407474518,0.15672241151332855
1696965068657589800,3.40358984375,0.033954303711652756,0.19493764638900757,0.23022349178791046
1696965068667604000,3.41360400390625,0.035019535571336746,0.14593692123889923,0.2163754552602768
1696965068677618200,3.4236181640625,0.025432437658309937,0.2023942768573761,0.22276686131954193
1696965068687632400,3.43363232421875,0.029693370684981346,0.0958709716796875,0.2983984053134918
1696965068697646800,3.443646728515625,0.031823836266994476,0.13315412402153015,0.25472384691238403
1696965068707661000,3.4536611328125,0.019041040912270546,0.1065233051776886,0.2973331809043884
1696965068717675300,3.46367529296875,0.015845341607928276,0.07243584841489792,0.2983984053134918
1696965068727689500,3.473689453125,0.014780107885599136,0.07350108027458191,0.30478981137275696
1696965068737703700,3.48370361328125,0.0009320789249613881,0.07989247888326645,0.28455036878585815
1696965068747718000,3.4937177734375,0.021171506494283676,0.04473978653550148,0.319703072309494
1696965068757732000,3.503732177734375,0.021171506494283676,0.07669677585363388,0.2877460718154907
1696965068767746300,3.513746337890625,0.007323476951569319,0.05539211630821228,0.28561559319496155
1696965068777760500,3.523760498046875,0.015845341607928276,0.04367455467581749,0.28455036878585815
1696965068787774700,3.533774658203125,0.037150003015995026,0.02236989326775074,0.25898477435112
1696965068797789000,3.543788818359375,0.050998032093048096,0.0159784946590662,0.25365862250328064
1696965068807803100,3.55380322265625,0.058454662561416626,-0.0053261648863554,0.24087581038475037
1696965068817817300,3.5638173828125,0.061650361865758896,-0.01810896210372448,0.23874534666538239
1696965068827831600,3.57383154296875,0.06484606117010117,-0.02023942768573761,0.20678836107254028
1696965068837845800,3.583845703125,0.08402025699615479,-0.06604444980621338,0.2142449915409088
1696965068847860000,3.59385986328125,0.10639014840126038,-0.05432688444852829,0.17589659988880157
1696965068857874200,3.603874267578125,0.11704248189926147,-0.07563154399394989,0.18761417269706726
1696965068867888400,3.613888427734375,0.12769481539726257,-0.07882724702358246,0.13435252010822296
1696965068877902800,3.62390283203125,0.14047759771347046,-0.10013190656900406,0.16630950570106506
1696965068887917000,3.6339169921875,0.13302096724510193,-0.08947957307100296,0.0991998240351677
1696965068897931300,3.64393115234375,0.145803764462471,-0.10865376889705658,0.1205044835805893
1696965068907945500,3.653945556640625,0.15219517052173615,-0.09267527610063553,0.08535179495811462
1696965068917960000,3.6639599609375,0.1553908735513687,-0.10013190656900406,0.058720968663692474
1696965068927974100,3.67397412109375,0.1575213372707367,-0.08308817446231842,0.053394805639982224
1696965068937988400,3.68398828125,0.1575213372707367,-0.0852186381816864,0.027829213067889214
1696965068948002600,3.69400244140625,0.15006470680236816,-0.06817491352558136,-0.0030625448562204838
1696965068958017000,3.70401708984375,0.14473854005336761,-0.04900071769952774,-0.008388710208237171
1696965068968031200,3.71403125,0.14047759771347046,-0.04900071769952774,-0.017975807189941406
1696965068978045400,3.72404541015625,0.13089050352573395,-0.02876129187643528,-0.061650361865758896
1696965068988059600,3.7340595703125,0.12130340933799744,-0.01384802907705307,-0.052063263952732086
1696965068998074000,3.74407421875,0.11917294561862946,-0.0021304660476744175,-0.06484606117010117
1696965069008088300,3.75408837890625,0.10745538026094437,-0.0031956990715116262,-0.08082455396652222
1696965069018102500,3.7641025390625,0.10212921351194382,0.01917419396340847,-0.09147688746452332
1696965069028116700,3.77411669921875,0.09999874979257584,0.0021304660476744175,-0.07336792349815369
1696965069038131200,3.784131103515625,0.0925421193242073,0.02450035884976387,-0.1138467788696289
1696965069048145400,3.7941455078125,0.08402025699615479,0.0053261648863554,-0.08828118443489075
1696965069058159600,3.80415966796875,0.08828118443489075,0.02876129187643528,-0.09680305421352386
1696965069068173800,3.814173828125,0.08188978582620621,0.0021304660476744175,-0.09147688746452332
1696965069078188300,3.824188232421875,0.07549838721752167,0.009587096981704235,-0.11597724258899689
1696965069088202500,3.834202392578125,0.08082455396652222,0.02236989326775074,-0.061650361865758896
1696965069098216700,3.844216796875,0.08082455396652222,0.0010652330238372087,-0.11597724258899689
1696965069108231000,3.85423095703125,0.07549838721752167,0.0053261648863554,-0.08402025699615479
1696965069118245400,3.864245361328125,0.08188978582620621,0.02663082629442215,-0.07762885838747025
1696965069128259600,3.874259521484375,0.08188978582620621,-0.0021304660476744175,-0.08402025699615479
1696965069138273800,3.884273681640625,0.0829550251364708,0.02556559257209301,-0.08082455396652222
1696965069148288000,3.8942880859375,0.08934641629457474,0.00852186419069767,-0.047802332788705826
1696965069158302500,3.904302490234375,0.08828118443489075,0.02663082629442215,-0.09147688746452332
1696965069168316700,3.914316650390625,0.09041165560483932,0.02023942768573761,-0.043541401624679565
1696965069178331000,3.924330810546875,0.09786828607320786,0.02982652559876442,-0.059519894421100616
1696965069188345000,3.934344970703125,0.09999874979257584,0.02769605815410614,-0.045671865344047546
1696965069198359600,3.944359619140625,0.10106398165225983,0.03834838792681694,-0.054193731397390366
1696965069208373800,3.954373779296875,0.11171631515026093,0.03089175745844841,-0.014780107885599136
1696965069218388000,3.964387939453125,0.11171631515026093,0.03941362351179123,-0.059519894421100616
1696965069228402200,3.974402099609375,0.1149120107293129,0.03728315606713295,-0.023301972076296806
1696965069238416600,3.984416748046875,0.12023817747831345,0.04367455467581749,-0.015845341607928276
1696965069248430800,3.994430908203125,0.12130340933799744,0.03728315606713295,-0.035019535571336746
1696965069258445000,4.004445068359375,0.12343387305736542,0.04047885537147522,-0.008388710208237171
1696965069268459300,4.014459228515625,0.12982527911663055,0.02876129187643528,-0.006258244160562754
1696965069278473500,4.024473388671875,0.12982527911663055,0.03941362351179123,-0.009453942999243736
1696965069288488000,4.034488037109375,0.13089050352573395,0.0213046595454216,-0.004127778112888336
1696965069298502100,4.044502197265625,0.1351514458656311,0.02236989326775074,0.011850717477500439
1696965069308516400,4.054516357421875,0.1362166702747345,0.01810896210372448,0.0001331541279796511
1696965069318530600,4.064530517578125,0.13195574283599854,0.00852186419069767,0.006524552125483751
1696965069328545000,4.074544921875,0.13728190958499908,0.0063913981430232525,0.031024912372231483
1696965069338559200,4.084559326171875,0.1351514458656311,0.0106523297727108,0.00226362026296556
1696965069348573400,4.094573486328125,0.12769481539726257,0.007456631399691105,0.015046416781842709
1696965069358587600,4.104587646484375,0.13302096724510193,0.0213046595454216,0.027829213067889214
1696965069368601900,4.114601806640625,0.13089050352573395,-0.0031956990715116262,0.005459319334477186
1696965069378616000,4.124615966796875,0.12343387305736542,0.02663082629442215,0.017176883295178413
1696965069388630300,4.13463037109375,0.12982527911663055,0.0053261648863554,0.031024912372231483
1696965069398644500,4.14464453125,0.12449911236763,0.02876129187643528,0.00226362026296556
1696965069408658700,4.15465869140625,0.11917294561862946,0.0106523297727108,0.019307348877191544
1696965069418673000,4.1646728515625,0.12449911236763,0.02450035884976387,0.025698747485876083
1696965069428687000,4.17468701171875,0.12023817747831345,0.02556559257209301,0.010785484686493874
1696965069438701300,4.184701416015625,0.12023817747831345,0.01171756349503994,0.015046416781842709
1696965069448716000,4.194716064453125,0.12769481539726257,0.01491326279938221,0.036351077258586884
1696965069458730000,4.20472998046875,0.12236864119768143,0.009587096981704235,-0.004127778112888336
1696965069468744000,4.214743896484375,0.12023817747831345,0.004260932095348835,0.023568280041217804
1696965069478758000,4.2247578125,0.12876003980636597,0.01810896210372448,0.026763979345560074
1696965069488771800,4.234771728515625,0.12236864119768143,-0.0010652330238372087,0.0001331541279796511
1696965069498785800,4.244785888671875,0.1255643367767334,0.0053261648863554,0.028894444927573204
1696965069508799700,4.2547998046875,0.13089050352573395,0.0106523297727108,0.012915950268507004
1696965069518813700,4.264813720703125,0.12449911236763,0.004260932095348835,0.006524552125483751
1696965069528828000,4.274827880859375,0.12662957608699799,0.01491326279938221,0.021437814459204674
1696965069538842000,4.284842041015625,0.13195574283599854,0.01491326279938221,0.020372580736875534
1696965069548856300,4.294856201171875,0.12449911236763,0.02023942768573761,-0.006258244160562754
1696965069558870500,4.30487060546875,0.13089050352573395,0.03728315606713295,0.025698747485876083
1696965069568885000,4.314885009765625,0.13302096724510193,0.01704372838139534,0.00226362026296556
1696965069578899200,4.324899169921875,0.12662957608699799,0.05006595328450203,-0.004127778112888336
1696965069588913700,4.33491357421875,0.13089050352573395,0.03834838792681694,0.027829213067889214
1696965069598928100,4.34492822265625,0.13195574283599854,0.03408745676279068,-0.029693370684981346
1696965069608942600,4.354942626953125,0.13302096724510193,0.04580501839518547,0.023568280041217804
1696965069618957000,4.36495703125,0.13728190958499908,0.03515268862247467,-0.010519175790250301
1696965069628971500,4.374971435546875,0.13302096724510193,0.04687025398015976,-0.007323476951569319
1696965069638986000,4.384986083984375,0.1351514458656311,0.02769605815410614,0.0033288532868027687
1696965069649000700,4.395000732421875,0.14047759771347046,0.03728315606713295,0.0001331541279796511
1696965069659015000,4.405014892578125,0.13408620655536652,0.02556559257209301,-0.017975807189941406
1696965069669029000,4.415029052734375,0.14047759771347046,0.03089175745844841,0.010785484686493874
1696965069679043300,4.425043212890625,0.14047759771347046,0.01810896210372448,-0.008388710208237171
1696965069689057500,4.4350576171875,0.13302096724510193,0.03515268862247467,-0.028628136962652206
1696965069699072300,4.445072265625,0.14047759771347046,0.0213046595454216,0.024633513763546944
1696965069709086200,4.455086181640625,0.13408620655536652,0.05752258375287056,-0.03928046673536301
1696965069719100000,4.465099853515625,0.13408620655536652,0.02556559257209301,0.010785484686493874
1696965069729113900,4.47511376953125,0.13834713399410248,0.05006595328450203,-0.008388710208237171
1696965069739127800,4.4851279296875,0.12876003980636597,0.04473978653550148,-0.017975807189941406
1696965069749141800,4.495141845703125,0.1351514458656311,0.03728315606713295,0.0011983871227130294
1696965069759155700,4.50515576171875,0.1351514458656311,0.03941362351179123,-0.004127778112888336
1696965069769170000,4.515169921875,0.12982527911663055,0.02769605815410614,-0.010519175790250301
1696965069779183900,4.525183837890625,0.13834713399410248,0.03089175745844841,0.018242115154862404
1696965069789198000,4.535197998046875,0.13195574283599854,0.01384802907705307,-0.010519175790250301
1696965069799212300,4.54521240234375,0.13195574283599854,0.007456631399691105,0.00226362026296556
1696965069809226500,4.5552265625,0.14047759771347046,0.007456631399691105,0.022503048181533813
1696965069819241000,4.565240966796875,0.1351514458656311,0.0010652330238372087,-0.022236740216612816
1696965069829255400,4.57525537109375,0.14047759771347046,-0.0053261648863554,0.027829213067889214
1696965069839269600,4.58526953125,0.13941237330436707,0.0021304660476744175,-0.004127778112888336
1696965069849284000,4.5952841796875,0.13834713399410248,-0.009587096981704235,-0.001997311832383275
1696965069859298600,4.605298583984375,0.14260807633399963,0.009587096981704235,0.022503048181533813
1696965069869313000,4.61531298828125,0.13834713399410248,0.00852186419069767,-0.013714875094592571
1696965069879327500,4.625327392578125,0.14367330074310303,0.009587096981704235,0.019307348877191544
1696965069889342000,4.635342041015625,0.1468690037727356,0.0063913981430232525,0.00226362026296556
1696965069899356400,4.6453564453125,0.14047759771347046,0.01917419396340847,0.006524552125483751
1696965069909370600,4.65537060546875,0.14473854005336761,0.02236989326775074,0.020372580736875534
1696965069919385000,4.665385009765625,0.145803764462471,-0.007456631399691105,0.008655018173158169
1696965069929399300,4.6753994140625,0.14473854005336761,0.02663082629442215,0.004394086077809334
1696965069939413500,4.68541357421875,0.15006470680236816,-0.0021304660476744175,0.031024912372231483
1696965069949427700,4.695427734375,0.14473854005336761,0,-0.008388710208237171
1696965069959442000,4.70544189453125,0.15326039493083954,0.0159784946590662,0.04593817517161369
1696965069969456000,4.7154560546875,0.14899946749210358,0.0031956990715116262,-0.006258244160562754
1696965069979470600,4.725470703125,0.14899946749210358,-0.0010652330238372087,0.028894444927573204
1696965069989484800,4.73548486328125,0.15112993121147156,0.02023942768573761,0.010785484686493874
1696965069999499000,4.7454990234375,0.14793424308300018,0.012782796286046505,0.023568280041217804
1696965070009513200,4.75551318359375,0.15006470680236816,0.0159784946590662,0.008655018173158169
1696965070019527400,4.76552734375,0.14793424308300018,0.0319569893181324,0.03528584539890289
1696965070029541600,4.775541748046875,0.145803764462471,0.01491326279938221,0.005459319334477186
1696965070039555800,4.785555908203125,0.15006470680236816,0.0319569893181324,0.027829213067889214
1696965070049570000,4.795570068359375,0.14367330074310303,0.009587096981704235,0.024633513763546944
1696965070059584300,4.805584228515625,0.15112993121147156,0.03302222490310669,0.007589785382151604
1696965070069598500,4.815598388671875,0.145803764462471,0.01384802907705307,0.044872939586639404
1696965070079612700,4.82561279296875,0.14899946749210358,0.01171756349503994,-0.001997311832383275
1696965070089627000,4.835626953125,0.15006470680236816,0.0213046595454216,0.044872939586639404
1696965070099641000,4.84564111328125,0.14899946749210358,0.004260932095348835,-0.0030625448562204838
1696965070109655300,4.8556552734375,0.15219517052173615,0.009587096981704235,0.040612008422613144
1696965070119669500,4.86566943359375,0.15006470680236816,0.0159784946590662,-0.001997311832383275
1696965070129683700,4.87568359375,0.15219517052173615,-0.007456631399691105,0.03528584539890289
1696965070139698000,4.885697998046875,0.15006470680236816,0.02023942768573761,-0.006258244160562754
1696965070149712100,4.895712158203125,0.15219517052173615,0,0.037416309118270874
1696965070159726300,4.905726318359375,0.15006470680236816,0.01704372838139534,-0.015845341607928276
1696965070169740500,4.915740478515625,0.15006470680236816,0.012782796286046505,0.037416309118270874
1696965070179754800,4.925754638671875,0.15219517052173615,0.02236989326775074,-0.0009320789249613881
1696965070189769000,4.93576904296875,0.14899946749210358,0.01704372838139534,0.015046416781842709
1696965070199783200,4.945783203125,0.15006470680236816,0.02556559257209301,0.009720250964164734
1696965070209797600,4.955797607421875,0.14899946749210358,0.02876129187643528,0.007589785382151604
1696965070219811800,4.965811767578125,0.15219517052173615,0.02450035884976387,0.016111649572849274
1696965070229826000,4.975825927734375,0.15112993121147156,0.03834838792681694,-0.0009320789249613881
1696965070239840300,4.98584033203125,0.15006470680236816,0.0213046595454216,0.028894444927573204
1696965070249854500,4.9958544921875,0.15112993121147156,0.04900071769952774,-0.007323476951569319
1696965070259868700,5.00586865234375,0.15006470680236816,0.01704372838139534,0.016111649572849274
1696965070269883000,5.0158828125,0.1564560979604721,0.02769605815410614,0.005459319334477186
1696965070279897000,5.02589697265625,0.15006470680236816,0.03408745676279068,0.0011983871227130294
1696965070289911300,5.035911376953125,0.15432563424110413,0.0319569893181324,0.017176883295178413
1696965070299925500,5.045925537109375,0.15326039493083954,0.02343512699007988,-0.008388710208237171
1696965070309939700,5.055939697265625,0.1553908735513687,0.02450035884976387,0.013981183059513569
1696965070319954000,5.065953857421875,0.15432563424110413,0.04473978653550148,0.0011983871227130294
1696965070329968000,5.075968017578125,0.15326039493083954,0.01171756349503994,0.004394086077809334
1696965070339982300,5.085982421875,0.1564560979604721,0.04687025398015976,0.004394086077809334
1696965070349996500,5.09599658203125,0.15112993121147156,0.01810896210372448,0.009720250964164734
1696965070360010800,5.1060107421875,0.1575213372707367,0.04473978653550148,-0.005193010903894901
1696965070370025000,5.11602490234375,0.15326039493083954,0.01491326279938221,0.017176883295178413
1696965070380039200,5.1260390625,0.15432563424110413,0.04473978653550148,-0.008388710208237171
1696965070390053400,5.136053466796875,0.15432563424110413,0.02450035884976387,0.020372580736875534
1696965070400067600,5.146067626953125,0.15432563424110413,0.02876129187643528,-0.015845341607928276
