time,seconds_elapsed,z,y,x
1696958308633206500,0.14720654296875,-0.00226362026296556,-0.03941362351179123,-0.03928046673536301
1696958308643110000,0.15710986328125,-0.010785484686493874,0.03302222490310669,0.005459319334477186
1696958308653047600,0.167047607421875,-0.020372580736875534,0.06284874677658081,-0.001997311832383275
1696958308663021300,0.177021240234375,-0.005459319334477186,0.0053261648863554,0.008655018173158169
1696958308673031000,0.187031005859375,0.007323476951569319,-0.009587096981704235,-0.004127778112888336
1696958308683075600,0.19707568359375,-0.022503048181533813,0.04367455467581749,0.0001331541279796511
1696958308693152500,0.207152587890625,-0.015046416781842709,0.04473978653550148,0.024633513763546944
1696958308703257600,0.217257568359375,0.0030625448562204838,-0.03089175745844841,0.018242115154862404
1696958308713386500,0.227386474609375,-0.009720250964164734,-0.007456631399691105,-0.043541401624679565
1696958308723533000,0.237532958984375,0.004127778112888336,-0.04473978653550148,0.08641702681779861
1696958308733692000,0.24769189453125,0.0009320789249613881,-0.02876129187643528,-0.060585130006074905
1696958308743856000,0.257856201171875,-0.008655018173158169,0.0213046595454216,0.033155377954244614
1696958308754005500,0.268005615234375,-0.007589785382151604,-0.06071828305721283,-0.028628136962652206
1696958308764019000,0.27801904296875,-0.004394086077809334,0.07137060910463333,0.016111649572849274
1696958308774032100,0.2880322265625,0.001997311832383275,-0.08734910935163498,-0.07336792349815369
1696958308784045600,0.298045654296875,-0.004394086077809334,0.009587096981704235,0.005459319334477186
1696958308794059000,0.30805908203125,-0.008655018173158169,0.0745663121342659,-0.010519175790250301
1696958308804072200,0.318072265625,-0.006524552125483751,0.004260932095348835,-0.06378082931041718
1696958308814085600,0.328085693359375,-0.008655018173158169,0.02236989326775074,-0.017975807189941406
1696958308824098800,0.338098876953125,-0.0033288532868027687,0.01810896210372448,-0.027562905102968216
1696958308834112300,0.3481123046875,0.0030625448562204838,0.012782796286046505,-0.033954303711652756
1696958308844125700,0.358125732421875,-0.019307348877191544,0.02236989326775074,-0.015845341607928276
1696958308854139000,0.368138916015625,-0.007589785382151604,0.03834838792681694,0.005459319334477186
1696958308864152300,0.37815234375,0.011584409512579441,-0.01491326279938221,-0.004127778112888336
1696958308874165500,0.38816552734375,-0.010785484686493874,0.004260932095348835,-0.022236740216612816
1696958308884179000,0.398178955078125,-0.013981183059513569,0.08415340632200241,0.023568280041217804
1696958308894192000,0.408192138671875,0.011584409512579441,0.0106523297727108,0.05232957378029823
1696958308904205600,0.41820556640625,-0.010785484686493874,-0.05432688444852829,-0.06378082931041718
1696958308914219000,0.428218994140625,-0.009720250964164734,0.08734910935163498,0.10026505589485168
1696958308924232200,0.438232177734375,-0.00226362026296556,0.03834838792681694,0.025698747485876083
1696958308934245600,0.44824560546875,-0.010785484686493874,0.01384802907705307,-0.033954303711652756
1696958308944258800,0.4582587890625,-0.004394086077809334,0.01810896210372448,0.12156971544027328
1696958308954272300,0.468272216796875,0.009453942999243736,0.0010652330238372087,-0.011584409512579441
1696958308964285700,0.47828564453125,-0.013981183059513569,0.10758853703737259,0.00226362026296556
1696958308974299000,0.488298828125,0.0030625448562204838,-0.08095771074295044,0.14500483870506287
1696958308984312300,0.498312255859375,0.0030625448562204838,0.03408745676279068,-0.047802332788705826
1696958308994325500,0.508325439453125,-0.022503048181533813,0.16617634892463684,0.07469946891069412
1696958309004339000,0.5183388671875,-0.0001331541279796511,-0.07989247888326645,0.058720968663692474
1696958309014352100,0.52835205078125,0.020106272771954536,-0.04900071769952774,0.07043853402137756
1696958309024365600,0.538365478515625,-0.018242115154862404,0.11930610239505768,0.033155377954244614
1696958309034379000,0.54837890625,-0.016111649572849274,0.03515268862247467,0.13435252010822296
1696958309044392200,0.55839208984375,0.0009320789249613881,0.01704372838139534,0.051264338195323944
1696958309054405600,0.568405517578125,-0.007589785382151604,0.00852186419069767,0.061916667968034744
1696958309064418800,0.578418701171875,-0.012915950268507004,0.02876129187643528,0.08322133123874664
1696958309074432300,0.588432373046875,0.0030625448562204838,0.02023942768573761,0.07576470077037811
1696958309084445700,0.59844580078125,-0.0033288532868027687,-0.02450035884976387,0.04274247586727142
1696958309094459000,0.608458984375,-0.0033288532868027687,-0.07350108027458191,0.03528584539890289
1696958309104472300,0.618472412109375,0.015845341607928276,-0.01491326279938221,0.08535179495811462
1696958309114485500,0.628485595703125,0.0009320789249613881,-0.0532616525888443,-0.026497671380639076
1696958309124499000,0.6384990234375,-0.020372580736875534,0.03941362351179123,0.0778951644897461
1696958309134512000,0.64851220703125,-0.005459319334477186,-0.009587096981704235,-0.021171506494283676
1696958309144525600,0.658525634765625,0.010519175790250301,-0.03408745676279068,0.04593817517161369
1696958309154539000,0.6685390625,-0.004394086077809334,-0.01384802907705307,-0.040345702320337296
1696958309164552200,0.67855224609375,-0.0001331541279796511,-0.01171756349503994,0.040612008422613144
1696958309174565600,0.688565673828125,-0.0011983871227130294,0.012782796286046505,-0.061650361865758896
1696958309184578800,0.698578857421875,-0.011850717477500439,0.06284874677658081,0.020372580736875534
1696958309194592300,0.70859228515625,0.007323476951569319,-0.01917419396340847,-0.05632419511675835
1696958309204605700,0.718605712890625,-0.011850717477500439,0.12463226169347763,0.017176883295178413
1696958309214619000,0.728618896484375,-0.023568280041217804,0.06071828305721283,-0.08082455396652222
1696958309224632300,0.73863232421875,-0.007589785382151604,0.09054480493068695,0.044872939586639404
1696958309234645500,0.7486455078125,0.008388710208237171,0.05752258375287056,-0.04993279650807381
1696958309244659000,0.758658935546875,-0.024633513763546944,0.1288931965827942,-0.033954303711652756
1696958309254672100,0.768672119140625,-0.009720250964164734,0.06710968166589737,0.04593817517161369
1696958309264685600,0.778685546875,-0.004394086077809334,0.04687025398015976,-0.06697652488946915
1696958309274699000,0.788698974609375,-0.013981183059513569,0.10332760214805603,0.024633513763546944
1696958309284712200,0.798712158203125,-0.010785484686493874,0.02343512699007988,0.00226362026296556
1696958309294725600,0.8087255859375,0.004127778112888336,0.03834838792681694,-0.004127778112888336
1696958309304738800,0.81873876953125,-0.007589785382151604,0.02236989326775074,-0.058454662561416626
1696958309314752300,0.828752197265625,-0.0001331541279796511,-0.0053261648863554,0.06830807030200958
1696958309324765700,0.838765625,0.006258244160562754,-0.06604444980621338,-0.09147688746452332
1696958309334779000,0.84877880859375,-0.011850717477500439,0.0639139786362648,0.019307348877191544
1696958309344792300,0.858792236328125,-0.008655018173158169,-0.03728315606713295,-0.03288906812667847
1696958309354805500,0.868805419921875,0.013714875094592571,-0.05432688444852829,-0.006258244160562754
1696958309364819000,0.87881884765625,-0.0001331541279796511,-0.02343512699007988,-0.07017222791910172
1696958309374832000,0.88883203125,-0.019307348877191544,0.08628387749195099,0.008655018173158169
1696958309384845600,0.898845458984375,-0.005459319334477186,-0.04473978653550148,-0.035019535571336746
1696958309394859000,0.90885888671875,-0.006524552125483751,0.0010652330238372087,-0.038215234875679016
1696958309404872200,0.9188720703125,-0.011850717477500439,-0.0213046595454216,0.0033288532868027687
1696958309414885600,0.9288857421875,-0.008655018173158169,-0.0159784946590662,-0.042476166039705276
1696958309424898800,0.93889892578125,-0.007589785382151604,0.02769605815410614,-0.006258244160562754
1696958309434912300,0.948912353515625,-0.009720250964164734,-0.09267527610063553,-0.029693370684981346
1696958309444925700,0.95892578125,0.0030625448562204838,-0.0319569893181324,0.00226362026296556
1696958309454939000,0.96893896484375,-0.006524552125483751,0.0010652330238372087,0.0001331541279796511
1696958309464952300,0.978952392578125,-0.013981183059513569,-0.09054480493068695,-0.044606633484363556
1696958309474965500,0.988965576171875,0.005193010903894901,-0.04580501839518547,0.054460037499666214
1696958309484979000,0.99897900390625,0.005193010903894901,-0.0213046595454216,-0.042476166039705276
1696958309494992100,1.0089921875,-0.029959678649902344,0.11184946447610855,0.010785484686493874
1696958309505005600,1.019005615234375,-0.013981183059513569,0.01704372838139534,0.023568280041217804
1696958309515019000,1.02901904296875,-0.017176883295178413,0.08841434121131897,-0.015845341607928276
1696958309525032200,1.0390322265625,-0.024633513763546944,0.1065233051776886,-0.0030625448562204838
1696958309535045600,1.049045654296875,-0.020372580736875534,-0.02982652559876442,0.036351077258586884
1696958309545058800,1.059058837890625,-0.007589785382151604,0.09693620353937149,-0.028628136962652206
1696958309555072300,1.069072265625,-0.017176883295178413,0.01171756349503994,0.033155377954244614
1696958309565085700,1.079085693359375,-0.015046416781842709,0.04367455467581749,-0.016910573467612267
1696958309575099000,1.089098876953125,0.0030625448562204838,0.05858781561255455,0.05978620424866676
1696958309585112300,1.0991123046875,-0.027829213067889214,0.1171756312251091,-0.0829550251364708
1696958309595125800,1.109125732421875,-0.026763979345560074,0.07776200771331787,0.13435252010822296
1696958309605139200,1.11913916015625,-0.034220609813928604,0.10332760214805603,-0.059519894421100616
1696958309615152400,1.12915234375,-0.024633513763546944,0.1480673849582672,0.023568280041217804
1696958309625165800,1.139165771484375,-0.026763979345560074,0.05965305119752884,0.053394805639982224
1696958309635179300,1.14917919921875,-0.020372580736875534,0.01384802907705307,0.004394086077809334
1696958309645192700,1.159192626953125,-0.024633513763546944,0.0532616525888443,-0.03288906812667847
1696958309655206100,1.1692060546875,-0.015046416781842709,-0.0063913981430232525,0.08535179495811462
1696958309665219300,1.17921923828125,0.0009320789249613881,-0.01491326279938221,-0.038215234875679016
1696958309675232800,1.189232666015625,-0.021437814459204674,0.03408745676279068,0.022503048181533813
1696958309685246200,1.19924609375,-0.028894444927573204,0.02663082629442215,0.00226362026296556
1696958309695259600,1.209259765625,-0.018242115154862404,-0.11184946447610855,-0.021171506494283676
1696958309705273000,1.219273193359375,-0.00226362026296556,0.07243584841489792,0.009720250964164734
1696958309715286300,1.229286376953125,-0.021437814459204674,-0.13528458774089813,-0.03288906812667847
1696958309725299700,1.2392998046875,-0.005459319334477186,-0.07350108027458191,-0.03608476743102074
1696958309735313200,1.249313232421875,0.004127778112888336,-0.0031956990715116262,0.09706936031579971
1696958309745326600,1.25932666015625,-0.023568280041217804,-0.01917419396340847,-0.1671084314584732
1696958309755339800,1.26933984375,-0.021437814459204674,0.02556559257209301,0.040612008422613144
1696958309765353200,1.279353271484375,-0.019307348877191544,-0.01384802907705307,-0.015845341607928276
1696958309775366700,1.28936669921875,-0.03528584539890289,0.10439283400774002,-0.09147688746452332
1696958309785380000,1.299380126953125,-0.017176883295178413,-0.0063913981430232525,0.043807707726955414
1696958309795393500,1.3093935546875,-0.036351077258586884,0.01810896210372448,-0.11810771375894547
1696958309805406700,1.31940673828125,-0.005459319334477186,0.02023942768573761,-0.023301972076296806
1696958309815420200,1.329420166015625,-0.018242115154862404,-0.04580501839518547,-0.08828118443489075
1696958309825433600,1.33943359375,-0.027829213067889214,0.03089175745844841,-0.060585130006074905
1696958309835447000,1.349447021484375,-0.026763979345560074,0.08734910935163498,-0.042476166039705276
1696958309845460500,1.35946044921875,-0.029959678649902344,0.05006595328450203,-0.06271559745073318
1696958309855473700,1.3694736328125,-0.018242115154862404,0.03302222490310669,-0.07975932210683823
1696958309865487000,1.379487060546875,-0.005459319334477186,0.10971900075674057,-0.023301972076296806
1696958309875500500,1.38950048828125,-0.03528584539890289,0.08628387749195099,-0.08828118443489075
1696958309885514000,1.399513916015625,-0.023568280041217804,0.007456631399691105,0.0001331541279796511
1696958309895527400,1.40952734375,-0.0033288532868027687,0.06710968166589737,-0.0723026916384697
1696958309905540600,1.41954052734375,-0.013981183059513569,0.0426093190908432,-0.03928046673536301
1696958309915554000,1.429553955078125,-0.008655018173158169,-0.04687025398015976,-0.06804175674915314
1696958309925567500,1.4395673828125,-0.0033288532868027687,-0.01171756349503994,-0.057389430701732635
1696958309935581000,1.449580810546875,-0.012915950268507004,-0.03515268862247467,-0.10639014840126038
1696958309945594000,1.459593994140625,-0.007589785382151604,0.04367455467581749,0.019307348877191544
1696958309955607600,1.469607666015625,-0.022503048181533813,0.01810896210372448,-0.13195574283599854
1696958309965621000,1.47962109375,-0.008655018173158169,-0.04793548583984375,-0.043541401624679565
1696958309975634400,1.489634521484375,0.011584409512579441,-0.1480673849582672,-0.07656362652778625
1696958309985647900,1.49964794921875,-0.012915950268507004,0.03834838792681694,-0.059519894421100616
1696958309995661000,1.5096611328125,-0.023568280041217804,0.02769605815410614,-0.06484606117010117
1696958310005674500,1.519674560546875,-0.016111649572849274,-0.12143656611442566,-0.0723026916384697
1696958310015688000,1.52968798828125,0.008388710208237171,-0.0053261648863554,0.004394086077809334
1696958310025701400,1.539701416015625,-0.004394086077809334,0.02769605815410614,-0.07017222791910172
1696958310035714800,1.54971484375,-0.060851436108350754,0.07989247888326645,-0.044606633484363556
1696958310045728000,1.55972802734375,-0.006524552125483751,-0.14593692123889923,0.021437814459204674
1696958310055741400,1.569741455078125,0.019041040912270546,-0.0159784946590662,-0.05312849581241608
1696958310065755000,1.5797548828125,-0.023568280041217804,-0.007456631399691105,-0.005193010903894901
1696958310075768300,1.589768310546875,-0.041677240282297134,0.07243584841489792,0.006524552125483751
1696958310085781500,1.599781494140625,-0.020372580736875534,0.0319569893181324,0.025698747485876083
1696958310095795000,1.609794921875,-0.026763979345560074,0.00852186419069767,-0.03288906812667847
1696958310105808400,1.619808349609375,-0.03528584539890289,0.06284874677658081,0.060851436108350754
1696958310115821800,1.62982177734375,-0.03209014609456062,0.007456631399691105,-0.009453942999243736
1696958310125835300,1.639835205078125,-0.026763979345560074,0.04367455467581749,-0.019041040912270546
1696958310135848400,1.649848388671875,-0.025698747485876083,-0.04367455467581749,0.053394805639982224
1696958310145862000,1.65986181640625,-0.036351077258586884,0.04580501839518547,-0.044606633484363556
1696958310155875300,1.669875244140625,-0.031024912372231483,0.03728315606713295,0.027829213067889214
1696958310165888800,1.679888671875,-0.029959678649902344,-0.04154408723115921,-0.045671865344047546
1696958310175902200,1.689902099609375,-0.033155377954244614,0.0159784946590662,0.051264338195323944
1696958310185915400,1.699915283203125,-0.041677240282297134,-0.03621792420744896,-0.040345702320337296
1696958310195928800,1.7099287109375,-0.033155377954244614,0.007456631399691105,-0.0030625448562204838
1696958310205942300,1.7199423828125,-0.029959678649902344,-0.06710968166589737,0.009720250964164734
1696958310215955700,1.729955810546875,-0.025698747485876083,-0.09800143539905548,-0.0030625448562204838
1696958310225969000,1.739968994140625,-0.028894444927573204,-0.07030537724494934,-0.017975807189941406
1696958310235982300,1.749982421875,-0.04274247586727142,-0.05113118514418602,0.026763979345560074
1696958310245995800,1.759995849609375,-0.03528584539890289,-0.03408745676279068,-0.042476166039705276
1696958310256009200,1.77000927734375,-0.033155377954244614,-0.07563154399394989,0.026763979345560074
1696958310266022700,1.780022705078125,-0.041677240282297134,-0.09161003679037094,-0.06804175674915314
1696958310276035800,1.790035888671875,-0.03848154470324516,0.01384802907705307,0.041677240282297134
1696958310286049300,1.80004931640625,-0.047003407031297684,-0.04154408723115921,-0.055258963257074356
1696958310296062700,1.810062744140625,-0.03954677656292915,-0.05539211630821228,-0.019041040912270546
1696958310306076200,1.820076171875,-0.034220609813928604,-0.11930610239505768,-0.001997311832383275
1696958310316089600,1.830089599609375,-0.037416309118270874,-0.05432688444852829,-0.057389430701732635
1696958310326102800,1.840102783203125,-0.047003407031297684,-0.02769605815410614,-0.008388710208237171
1696958310336116200,1.8501162109375,-0.050199106335639954,-0.07882724702358246,-0.020106272771954536
1696958310346129700,1.860129638671875,-0.043807707726955414,-0.009587096981704235,-0.031823836266994476
1696958310356143000,1.87014306640625,-0.044872939586639404,-0.03941362351179123,-0.004127778112888336
1696958310366156300,1.88015625,-0.0555252730846405,-0.0010652330238372087,-0.048867564648389816
1696958310376169700,1.890169677734375,-0.040612008422613144,-0.02023942768573761,0.03209014609456062
1696958310386183200,1.90018310546875,-0.050199106335639954,-0.05645735189318657,-0.07549838721752167
1696958310396196600,1.910196533203125,-0.0555252730846405,-0.03089175745844841,0.020372580736875534
1696958310406210000,1.9202099609375,-0.054460037499666214,0.02876129187643528,-0.042476166039705276
1696958310416223200,1.93022314453125,-0.048068638890981674,-0.01384802907705307,0.03954677656292915
1696958310426236700,1.940236572265625,-0.051264338195323944,-0.05965305119752884,-0.055258963257074356
1696958310436250000,1.95025,-0.051264338195323944,0.02663082629442215,0.041677240282297134
1696958310446263600,1.960263671875,-0.0555252730846405,0.01491326279938221,-0.010519175790250301
1696958310456277000,1.970277099609375,-0.05659050494432449,0.0031956990715116262,0.00226362026296556
1696958310466290200,1.980290283203125,-0.05659050494432449,0.0053261648863554,0.028894444927573204
1696958310476303600,1.9903037109375,-0.053394805639982224,0.01384802907705307,0.019307348877191544
1696958310486317000,2.000317138671875,-0.053394805639982224,0.01704372838139534,0.027829213067889214
1696958310496330500,2.01033056640625,-0.06404713541269302,-0.01491326279938221,0.010785484686493874
1696958310506344000,2.020343994140625,-0.050199106335639954,-0.004260932095348835,0.06937330216169357
1696958310516357000,2.030357177734375,-0.048068638890981674,-0.04473978653550148,0.013981183059513569
1696958310526370600,2.04037060546875,-0.067242830991745,0.04473978653550148,0.0555252730846405
1696958310536384000,2.050384033203125,-0.058720968663692474,-0.04473978653550148,0.067242830991745
1696958310546397400,2.0603974609375,-0.043807707726955414,-0.01704372838139534,0.053394805639982224
1696958310556410600,2.07041064453125,-0.06404713541269302,-0.04154408723115921,0.0033288532868027687
1696958310566424000,2.080424072265625,-0.05232957378029823,-0.08734910935163498,0.1205044835805893
1696958310576437500,2.0904375,-0.03954677656292915,-0.12037133425474167,0.012915950268507004
1696958310586451000,2.100450927734375,-0.053394805639982224,-0.05539211630821228,0.043807707726955414
1696958310596464400,2.11046435546875,-0.05978620424866676,-0.08308817446231842,0.0991998240351677
1696958310606477600,2.1204775390625,-0.051264338195323944,-0.0532616525888443,0.018242115154862404
1696958310616491000,2.130490966796875,-0.053394805639982224,-0.07882724702358246,0.04913387447595596
1696958310626504400,2.14050439453125,-0.067242830991745,-0.02023942768573761,0.04274247586727142
1696958310636518000,2.150517822265625,-0.053394805639982224,-0.02663082629442215,0.058720968663692474
1696958310646531300,2.16053125,-0.053394805639982224,-0.05645735189318657,0.022503048181533813
1696958310656544500,2.17054443359375,-0.06404713541269302,0.0106523297727108,0.028894444927573204
1696958310666558000,2.180557861328125,-0.061916667968034744,-0.012782796286046505,0.066177599132061
1696958310676571400,2.1905712890625,-0.03954677656292915,-0.06284874677658081,0.005459319334477186
1696958310686584800,2.200584716796875,-0.051264338195323944,-0.11184946447610855,0.027829213067889214
1696958310696598000,2.210597900390625,-0.057655736804008484,0.03621792420744896,0.066177599132061
1696958310706611500,2.220611572265625,-0.044872939586639404,-0.10439283400774002,0.03848154470324516
1696958310716625000,2.230625,-0.05232957378029823,0.03302222490310669,0.007589785382151604
1696958310726638300,2.240638427734375,-0.06511236727237701,-0.03834838792681694,0.08322133123874664
1696958310736651800,2.25065185546875,-0.054460037499666214,0.012782796286046505,0.018242115154862404
1696958310746665000,2.2606650390625,-0.050199106335639954,0.0106523297727108,0.07150376588106155
1696958310756678400,2.270678466796875,-0.06404713541269302,-0.02450035884976387,-0.005193010903894901
1696958310766691800,2.28069189453125,-0.05232957378029823,0.05539211630821228,0.08535179495811462
1696958310776705300,2.290705322265625,-0.047003407031297684,-0.05645735189318657,0.029959678649902344
1696958310786718700,2.30071875,-0.061916667968034744,0.01171756349503994,0.015046416781842709
1696958310796732000,2.31073193359375,-0.05659050494432449,0.004260932095348835,0.08109086751937866
1696958310806745300,2.320745361328125,-0.04913387447595596,-0.0159784946590662,-0.011584409512579441
1696958310816758800,2.3307587890625,-0.0555252730846405,0.0053261648863554,0.053394805639982224
1696958310826772200,2.340772216796875,-0.05978620424866676,0.00852186419069767,0.007589785382151604
1696958310836785400,2.350785400390625,-0.048068638890981674,-0.0031956990715116262,0.04274247586727142
1696958310846798800,2.360798828125,-0.05232957378029823,-0.05006595328450203,-0.022236740216612816
1696958310856812300,2.370812255859375,-0.04913387447595596,-0.02556559257209301,0.050199106335639954
1696958310866825700,2.38082568359375,-0.044872939586639404,-0.06710968166589737,-0.011584409512579441
1696958310876839200,2.390839111328125,-0.054460037499666214,0.0159784946590662,0.007589785382151604
1696958310886852400,2.400852294921875,-0.04913387447595596,-0.02450035884976387,0.005459319334477186
1696958310896865800,2.41086572265625,-0.043807707726955414,-0.04047885537147522,0.012915950268507004
1696958310906879200,2.420879150390625,-0.057655736804008484,0.02556559257209301,-0.013714875094592571
1696958310916892700,2.430892578125,-0.05978620424866676,0.02663082629442215,0.0001331541279796511
1696958310926906000,2.440906005859375,-0.04274247586727142,-0.05006595328450203,0.013981183059513569
1696958310936919600,2.45091943359375,-0.04593817517161369,-0.04047885537147522,-0.026497671380639076
1696958310946933000,2.46093310546875,-0.053394805639982224,0.02023942768573761,-0.020106272771954536
1696958310956946400,2.470946533203125,-0.036351077258586884,-0.09800143539905548,0.004394086077809334
1696958310966959900,2.4809599609375,-0.029959678649902344,-0.10758853703737259,-0.038215234875679016
1696958310976973000,2.49097314453125,-0.043807707726955414,-0.0063913981430232525,0.009720250964164734
1696958310986986500,2.500986572265625,-0.06404713541269302,0.04367455467581749,-0.03608476743102074
1696958310997000000,2.511,-0.044872939586639404,0.02343512699007988,0.010785484686493874
1696958311007013400,2.521013427734375,-0.03528584539890289,-0.0745663121342659,-0.06591129302978516
1696958311017026800,2.53102685546875,-0.04593817517161369,0.03408745676279068,-0.024367205798625946
1696958311027040300,2.541040283203125,-0.033155377954244614,-0.012782796286046505,0.0001331541279796511
1696958311037053700,2.5510537109375,-0.03528584539890289,-0.02450035884976387,-0.0925421193242073
1696958311047067100,2.561067138671875,-0.036351077258586884,0.0159784946590662,0.033155377954244614
1696958311057080600,2.57108056640625,-0.03209014609456062,-0.01704372838139534,-0.07869409024715424
1696958311067094000,2.581093994140625,-0.020372580736875534,0.02876129187643528,0.006524552125483751
1696958311077107500,2.591107421875,-0.037416309118270874,-0.0213046595454216,-0.06804175674915314
1696958311087121000,2.601120849609375,-0.022503048181533813,0.05113118514418602,0.033155377954244614
1696958311097134300,2.61113427734375,-0.021437814459204674,-0.03089175745844841,-0.0712374597787857
1696958311107147800,2.621147705078125,-0.028894444927573204,0.04793548583984375,0.008655018173158169
1696958311117161200,2.6311611328125,-0.010785484686493874,-0.03515268862247467,0.008655018173158169
1696958311127174700,2.641174560546875,-0.031024912372231483,0.0745663121342659,-0.054193731397390366
1696958311137188000,2.65118798828125,-0.024633513763546944,0.0021304660476744175,0.029959678649902344
1696958311147201500,2.661201416015625,-0.0001331541279796511,-0.07137060910463333,-0.004127778112888336
1696958311157215000,2.671215087890625,-0.016111649572849274,0.007456631399691105,-0.045671865344047546
1696958311167228400,2.681228515625,-0.0033288532868027687,-0.07669677585363388,0.04274247586727142
1696958311177241900,2.691241943359375,-0.004394086077809334,-0.03408745676279068,-0.025432437658309937
1696958311187255300,2.70125537109375,-0.006524552125483751,-0.01491326279938221,0.0011983871227130294
1696958311197268700,2.711268798828125,0.0030625448562204838,-0.05006595328450203,0.03528584539890289
1696958311207282200,2.7212822265625,-0.0011983871227130294,-0.06924014538526535,-0.020106272771954536
1696958311217295600,2.731295654296875,0.008388710208237171,-0.05113118514418602,0.008655018173158169
1696958311227309000,2.74130908203125,0.006258244160562754,-0.08947957307100296,-0.010519175790250301
1696958311237322500,2.751322509765625,0.004127778112888336,-0.01384802907705307,-0.001997311832383275
1696958311247336000,2.7613359375,-0.0001331541279796511,0.007456631399691105,-0.009453942999243736
1696958311257349400,2.771349365234375,0.0030625448562204838,0.03089175745844841,0.0001331541279796511
1696958311267362800,2.78136279296875,-0.0001331541279796511,0.07243584841489792,0.010785484686493874
1696958311277376300,2.791376220703125,0.004127778112888336,0.03302222490310669,-0.016910573467612267
1696958311287389700,2.8013896484375,0.006258244160562754,0.05752258375287056,0.021437814459204674
1696958311297403100,2.811403076171875,0.007323476951569319,0.03834838792681694,-0.027562905102968216
1696958311307416600,2.82141650390625,0.007323476951569319,0.04154408723115921,-0.007323476951569319
1696958311317430000,2.831429931640625,0.012649642303586006,0.02343512699007988,0.013981183059513569
1696958311327443500,2.841443359375,0.007323476951569319,0.05752258375287056,-0.028628136962652206
1696958311337457000,2.851456787109375,0.024367205798625946,-0.0031956990715116262,0.015046416781842709
1696958311347470300,2.86147021484375,0.023301972076296806,-0.03621792420744896,-0.030758604407310486
1696958311357483800,2.87148388671875,0.029693370684981346,0.012782796286046505,0.0001331541279796511
1696958311367497200,2.881497314453125,0.024367205798625946,-0.04367455467581749,-0.025432437658309937
1696958311377510700,2.8915107421875,0.022236740216612816,0.0319569893181324,-0.027562905102968216
1696958311387524000,2.901524169921875,0.033954303711652756,-0.02876129187643528,0.013981183059513569
1696958311397537500,2.91153759765625,0.028628136962652206,0.007456631399691105,-0.03928046673536301
1696958311407551000,2.921551025390625,0.030758604407310486,0.02343512699007988,-0.0030625448562204838
1696958311417564400,2.931564453125,0.033954303711652756,-0.02876129187643528,-0.009453942999243736
1696958311427577900,2.941577880859375,0.037150003015995026,0.004260932095348835,-0.0030625448562204838
1696958311437591000,2.951591064453125,0.030758604407310486,0.01384802907705307,-0.027562905102968216
1696958311447604500,2.9616044921875,0.037150003015995026,-0.0159784946590662,0.012915950268507004
1696958311457618000,2.971617919921875,0.03928046673536301,-0.0021304660476744175,-0.006258244160562754
1696958311467631400,2.98163134765625,0.037150003015995026,-0.0010652330238372087,0.015046416781842709
1696958311477644800,2.991644775390625,0.050998032093048096,-0.07137060910463333,-0.019041040912270546
1696958311487658000,3.001657958984375,0.035019535571336746,0.0319569893181324,0.034220609813928604
1696958311497671400,3.01167138671875,0.040345702320337296,-0.012782796286046505,0.009720250964164734
1696958311507684900,3.021684814453125,0.035019535571336746,-0.012782796286046505,-0.0009320789249613881
1696958311517698300,3.0316982421875,0.042476166039705276,0.04580501839518547,0.08322133123874664
1696958311527711700,3.041711669921875,0.035019535571336746,-0.02236989326775074,-0.03288906812667847
1696958311537725000,3.051724853515625,0.041410934180021286,0.07989247888326645,0.09387365728616714
1696958311547738400,3.06173828125,0.04993279650807381,-0.04580501839518547,0.005459319334477186
1696958311557751800,3.071751708984375,0.035019535571336746,0.04154408723115921,0.033155377954244614
1696958311567765200,3.08176513671875,0.040345702320337296,0.04793548583984375,0.067242830991745
1696958311577778400,3.0917783203125,0.04673709720373154,-0.0159784946590662,0.018242115154862404
1696958311587792000,3.1017919921875,0.044606633484363556,0.0532616525888443,0.033155377954244614
1696958311597805300,3.111805419921875,0.050998032093048096,-0.02982652559876442,0.025698747485876083
1696958311607818800,3.12181884765625,0.061650361865758896,-0.05113118514418602,0.012915950268507004
1696958311617832200,3.131832275390625,0.06697652488946915,-0.06497921794652939,0.066177599132061
1696958311627845400,3.141845458984375,0.047802332788705826,-0.01384802907705307,-0.025432437658309937
1696958311637858800,3.15185888671875,0.055258963257074356,0.02556559257209301,0.09067796170711517
1696958311647872300,3.161872314453125,0.06378082931041718,-0.07350108027458191,-0.028628136962652206
1696958311657885700,3.1718857421875,0.06378082931041718,0.0010652330238372087,0.0768299326300621
1696958311667899100,3.181899169921875,0.06378082931041718,0,-0.006258244160562754
1696958311677912300,3.191912353515625,0.05312849581241608,0.02236989326775074,0.041677240282297134
1696958311687925800,3.20192578125,0.058454662561416626,0.06817491352558136,0.04274247586727142
1696958311697939200,3.211939208984375,0.050998032093048096,0.01704372838139534,0.016111649572849274
1696958311707952600,3.22195263671875,0.050998032093048096,0.10226237028837204,0.029959678649902344
1696958311717965800,3.2319658203125,0.060585130006074905,0.0159784946590662,0.03209014609456062
1696958311727979300,3.241979248046875,0.061650361865758896,0.03302222490310669,0.0001331541279796511
1696958311737992700,3.25199267578125,0.06804175674915314,0.0021304660476744175,0.023568280041217804
1696958311748006100,3.262006103515625,0.07656362652778625,-0.03408745676279068,-0.015845341607928276
1696958311758019600,3.27201953125,0.061650361865758896,0.06924014538526535,0.03848154470324516
1696958311768032800,3.28203271484375,0.061650361865758896,-0.04154408723115921,-0.03608476743102074
1696958311778046200,3.292046142578125,0.06591129302978516,0.06284874677658081,0.04593817517161369
1696958311788059600,3.3020595703125,0.07549838721752167,-0.05113118514418602,-0.026497671380639076
1696958311798073000,3.312072998046875,0.07017222791910172,0.007456631399691105,-0.028628136962652206
1696958311808086500,3.32208642578125,0.07443315535783768,0.03728315606713295,0.07576470077037811
1696958311818099700,3.332099609375,0.07656362652778625,-0.03089175745844841,-0.09893351793289185
1696958311828113200,3.342113037109375,0.07443315535783768,0.03834838792681694,0.10026505589485168
1696958311838126600,3.352126708984375,0.055258963257074356,0.04580501839518547,-0.04993279650807381
1696958311848140000,3.36214013671875,0.07443315535783768,0.03834838792681694,0.023568280041217804
1696958311858153200,3.3721533203125,0.07336792349815369,0.02023942768573761,-0.013714875094592571
1696958311868166700,3.382166748046875,0.06697652488946915,0.06817491352558136,0.013981183059513569
1696958311878180000,3.39218017578125,0.07656362652778625,-0.02982652559876442,0.007589785382151604
1696958311888193500,3.402193603515625,0.058454662561416626,0.09374050796031952,0.012915950268507004
1696958311898207000,3.41220703125,0.06271559745073318,0.04473978653550148,-0.014780107885599136
1696958311908220200,3.42222021484375,0.07336792349815369,0.02023942768573761,0.043807707726955414
1696958311918233600,3.432233642578125,0.061650361865758896,0.03941362351179123,-0.043541401624679565
1696958311928247000,3.4422470703125,0.058454662561416626,0.06817491352558136,0.015046416781842709
1696958311938260500,3.452260498046875,0.07443315535783768,0.03089175745844841,-0.0030625448562204838
1696958311948274000,3.46227392578125,0.060585130006074905,0.03302222490310669,-0.023301972076296806
1696958311958287400,3.472287353515625,0.054193731397390366,0.11184946447610855,-0.005193010903894901
1696958311968300800,3.48230078125,0.06484606117010117,0.0106523297727108,0.018242115154862404
1696958311978314200,3.492314208984375,0.07336792349815369,-0.0010652330238372087,-0.027562905102968216
1696958311988327700,3.50232763671875,0.06697652488946915,0.03515268862247467,0.004394086077809334
1696958311998341000,3.512341064453125,0.060585130006074905,0.05432688444852829,0.027829213067889214
1696958312008354600,3.5223544921875,0.06910699605941772,-0.0213046595454216,-0.031823836266994476
1696958312018368000,3.532367919921875,0.06910699605941772,0.01384802907705307,0.036351077258586884
1696958312028381400,3.54238134765625,0.058454662561416626,0.07030537724494934,-0.0030625448562204838
1696958312038395000,3.552394775390625,0.06271559745073318,0.05645735189318657,0.025698747485876083
1696958312048408300,3.562408203125,0.061650361865758896,0.009587096981704235,0.004394086077809334
1696958312058421800,3.572421875,0.060585130006074905,0.10226237028837204,0.06511236727237701
1696958312068435200,3.582435302734375,0.06697652488946915,-0.01810896210372448,-0.024367205798625946
1696958312078448600,3.59244873046875,0.06271559745073318,-0.012782796286046505,0.037416309118270874
1696958312088462000,3.602462158203125,0.06271559745073318,0.02556559257209301,0.027829213067889214
1696958312098475500,3.6124755859375,0.059519894421100616,0.03834838792681694,0.010785484686493874
1696958312108489000,3.622489013671875,0.06910699605941772,-0.0319569893181324,0.022503048181533813
1696958312118502400,3.63250244140625,0.0723026916384697,-0.004260932095348835,0.018242115154862404
1696958312128515800,3.642515869140625,0.06484606117010117,0.0053261648863554,-0.027562905102968216
1696958312138529300,3.652529296875,0.058454662561416626,0.0532616525888443,0.058720968663692474
1696958312148542700,3.662542724609375,0.061650361865758896,0.02450035884976387,-0.047802332788705826
1696958312158556200,3.67255615234375,0.0712374597787857,0.004260932095348835,0.036351077258586884
1696958312168569600,3.682569580078125,0.06591129302978516,0.03408745676279068,-0.008388710208237171
1696958312178583000,3.6925830078125,0.05632419511675835,0.07137060910463333,0.016111649572849274
1696958312188596500,3.702596435546875,0.06591129302978516,0.02769605815410614,0.0011983871227130294
1696958312198610000,3.71260986328125,0.0723026916384697,0.02769605815410614,0.023568280041217804
1696958312208623400,3.722623291015625,0.06804175674915314,0.03941362351179123,0.0001331541279796511
1696958312218636800,3.73263671875,0.06697652488946915,0.03302222490310669,0.0011983871227130294
1696958312228650200,3.742650146484375,0.07017222791910172,0.0213046595454216,0.026763979345560074
1696958312238663700,3.75266357421875,0.07656362652778625,0.01171756349503994,-0.026497671380639076
1696958312248677000,3.762677001953125,0.06804175674915314,0.05645735189318657,0.043807707726955414
1696958312258690600,3.772690673828125,0.06484606117010117,0.06924014538526535,-0.031823836266994476
1696958312268704000,3.7827041015625,0.06697652488946915,0.06817491352558136,0.054460037499666214
1696958312278717400,3.792717529296875,0.060585130006074905,0.05965305119752884,-0.07443315535783768
1696958312288731000,3.80273095703125,0.06910699605941772,0.11291470378637314,0.05232957378029823
1696958312298744300,3.812744384765625,0.0712374597787857,0.0063913981430232525,-0.03928046673536301
1696958312308757800,3.8227578125,0.06804175674915314,0.03408745676279068,-0.033954303711652756
1696958312318771200,3.832771240234375,0.0712374597787857,0.04687025398015976,0.020372580736875534
1696958312328784600,3.84278466796875,0.0723026916384697,0.06071828305721283,-0.05632419511675835
1696958312338797800,3.8527978515625,0.07656362652778625,-0.012782796286046505,0.015046416781842709
1696958312348811300,3.862811279296875,0.07336792349815369,-0.01810896210372448,-0.06378082931041718
1696958312358824700,3.87282470703125,0.08508548885583878,0.0010652330238372087,0.011850717477500439
1696958312368838100,3.882838134765625,0.07443315535783768,-0.04900071769952774,-0.048867564648389816
1696958312378851600,3.8928515625,0.0723026916384697,-0.004260932095348835,0.0001331541279796511
1696958312388864800,3.90286474609375,0.07656362652778625,-0.02876129187643528,-0.021171506494283676
1696958312398878200,3.912878173828125,0.07336792349815369,0.03728315606713295,0.010785484686493874
1696958312408891600,3.9228916015625,0.0723026916384697,-0.02982652559876442,-0.033954303711652756
1696958312418905000,3.932905029296875,0.07549838721752167,-0.0021304660476744175,0.015046416781842709
1696958312428918300,3.942918212890625,0.06484606117010117,0.09161003679037094,0.004394086077809334
1696958312438931700,3.952931640625,0.06271559745073318,-0.009587096981704235,-0.010519175790250301
1696958312448945200,3.962945068359375,0.06378082931041718,0.0319569893181324,0.025698747485876083
1696958312458958600,3.97295849609375,0.06484606117010117,0.05539211630821228,0.012915950268507004
1696958312468972000,3.982971923828125,0.060585130006074905,0.02450035884976387,-0.016910573467612267
1696958312478985200,3.992985107421875,0.061650361865758896,0.05113118514418602,0.04593817517161369
1696958312488998700,4.00299853515625,0.06910699605941772,-0.02556559257209301,-0.025432437658309937
1696958312499012000,4.01301220703125,0.060585130006074905,0.04367455467581749,0.028894444927573204
1696958312509025500,4.023025634765625,0.057389430701732635,0.04367455467581749,0.029959678649902344
1696958312519039000,4.0330390625,0.05632419511675835,0.06178351491689682,-0.027562905102968216
1696958312529052200,4.04305224609375,0.06484606117010117,0.05432688444852829,0.067242830991745
1696958312539065600,4.053065673828125,0.0712374597787857,-0.0745663121342659,-0.057389430701732635
1696958312549079000,4.0630791015625,0.06271559745073318,0.09267527610063553,0.08215609937906265
1696958312559092500,4.073092529296875,0.06271559745073318,-0.03089175745844841,0.005459319334477186
1696958312569105700,4.083105712890625,0.058454662561416626,-0.00852186419069767,-0.026497671380639076
1696958312579119000,4.093119140625,0.06697652488946915,0.06497921794652939,0.10452599078416824
1696958312589132500,4.103132568359375,0.06591129302978516,-0.04793548583984375,-0.055258963257074356
1696958312599146000,4.11314599609375,0.06484606117010117,0.01917419396340847,0.08109086751937866
1696958312609159400,4.123159423828125,0.06697652488946915,-0.01491326279938221,-0.0009320789249613881
1696958312619172600,4.133172607421875,0.05312849581241608,0.07030537724494934,0.015046416781842709
1696958312629186000,4.14318603515625,0.061650361865758896,0.01704372838139534,0.028894444927573204
1696958312639199500,4.153199462890625,0.052063263952732086,0.05539211630821228,0.006524552125483751
