time,seconds_elapsed,z,y,x
1696962063873760800,0.1457607421875,1.068613052368164,0.12105309963226318,-0.3195752501487732
1696962063883634000,0.155634033203125,1.8198356628417969,-0.25344717502593994,-0.4383361339569092
1696962063893538600,0.16553857421875,0.5784120559692383,-0.059087157249450684,-0.23826538026332855
1696962063903477500,0.1754775390625,2.0056047439575195,-0.05690348148345947,-0.10087406635284424
1696962063913452500,0.18545263671875,0.02932453155517578,-0.5125730037689209,0.021454155445098877
1696962063923463700,0.195463623046875,2.9404172897338867,-0.13321566581726074,-0.28625375032424927
1696962063933509600,0.205509521484375,-0.5505352020263672,-0.45037269592285156,-0.1378244310617447
1696962063943587600,0.215587646484375,2.2359819412231445,0.2285304069519043,-0.1253589540719986
1696962063953693700,0.225693603515625,1.8752241134643555,-0.3450683355331421,-0.274275004863739
1696962063963823400,0.2358232421875,-1.3743939399719238,-0.0898129940032959,0.011532396078109741
1696962063973971000,0.245970947265625,3.962643623352051,-0.2692265510559082,-0.0832912027835846
1696962063984130000,0.256130126953125,-1.7240962982177734,-0.026818394660949707,-0.30110663175582886
1696962063994294500,0.26629443359375,2.4178409576416016,-0.23665869235992432,-0.22733508050441742
1696962064004439000,0.27643896484375,0.45201778411865234,0.17978453636169434,-0.07114775478839874
1696962064014452500,0.286452392578125,-0.07716655731201172,-0.6604665517807007,-0.38299816846847534
1696962064024465700,0.296465576171875,1.6021480560302734,-0.02886176109313965,-0.16535255312919617
1696962064034479000,0.30647900390625,-0.36152076721191406,-0.10035645961761475,-0.15626966953277588
1696962064044492500,0.316492431640625,0.28339385986328125,-0.408929705619812,-0.19166727364063263
1696962064054506000,0.326506103515625,1.2047672271728516,0.013144493103027344,0.02995552122592926
1696962064064519200,0.336519287109375,-0.2839241027832031,-0.17938923835754395,-0.36451882123947144
1696962064074532600,0.34653271484375,0.27138233184814453,-0.06832396984100342,0.3206585645675659
1696962064084546000,0.356546142578125,2.170633316040039,0.2057790756225586,0.13692303001880646
1696962064094559500,0.3665595703125,-0.5604324340820312,-0.5637320280075073,-0.38456547260284424
1696962064104573000,0.376572998046875,0.6960382461547852,0.29671669006347656,0.1855686455965042
1696962064114586000,0.386586181640625,1.0656862258911133,-0.12504780292510986,0.2120746523141861
1696962064124599600,0.396599609375,-0.7235574722290039,0.019077658653259277,-0.11238536983728409
1696962064134613000,0.406613037109375,1.763911247253418,-0.1217641830444336,0.19582246243953705
1696962064144626400,0.41662646484375,-0.7347965240478516,0.08848249912261963,0.5770617723464966
1696962064154640000,0.426639892578125,2.2259464263916016,0.36903655529022217,-0.13379910588264465
1696962064164653000,0.436653076171875,-1.2884759902954102,0.08670413494110107,0.1307051181793213
1696962064174666500,0.44666650390625,0.6249656677246094,-0.006886005401611328,0.25429415702819824
1696962064184680000,0.456679931640625,0.5024938583374023,-0.10541141033172607,0.3248344957828522
1696962064194693400,0.466693359375,-0.945277214050293,0.3311537504196167,-0.12434381246566772
1696962064204706600,0.47670654296875,1.2706899642944336,-0.275585412979126,0.22093459963798523
1696962064214720000,0.486719970703125,-0.8506860733032227,0.3021053075790405,0.09969255328178406
1696962064224733400,0.4967333984375,0.6290159225463867,-0.25892531871795654,-0.059368282556533813
1696962064234747000,0.506746826171875,-0.42958831787109375,0.24308907985687256,-0.2493738979101181
1696962064244760300,0.51676025390625,0.6806488037109375,-0.14680063724517822,-0.0579046756029129
1696962064254773500,0.5267734375,0.3192567825317383,-0.22877585887908936,-0.05169713497161865
1696962064264787000,0.536786865234375,0.31682682037353516,-0.16368615627288818,-0.19203361868858337
1696962064274800400,0.54680029296875,0.5450592041015625,-0.11351466178894043,-0.09996892511844635
1696962064284813800,0.556813720703125,1.0455360412597656,0.1131676435470581,0.20508244633674622
1696962064294827300,0.5668271484375,0.17022705078125,-0.18075132369995117,-0.1978805661201477
1696962064304840400,0.57684033203125,0.9135847091674805,-0.04176795482635498,-0.1795041710138321
1696962064314854000,0.58685400390625,0.5909690856933594,0.06655478477478027,0.1589338481426239
1696962064324867300,0.596867431640625,0.2645730972290039,-0.04486656188964844,-0.2921612858772278
1696962064334880800,0.606880859375,1.1862201690673828,-0.18778777122497559,0.0924224704504013
1696962064344894000,0.61689404296875,-0.03470897674560547,-0.1715015172958374,-0.36535489559173584
1696962064354907400,0.626907470703125,0.3278675079345703,-0.014204740524291992,-0.24458231031894684
1696962064364920800,0.6369208984375,1.301778793334961,-0.12353718280792236,-0.15399345755577087
1696962064374934300,0.646934326171875,-1.230595588684082,-0.47005605697631836,-0.38126301765441895
1696962064384947700,0.65694775390625,1.4655275344848633,-0.1484076976776123,-0.3198883533477783
1696962064394961000,0.6669609375,-0.37685394287109375,-0.3015437126159668,-0.28062164783477783
1696962064404974300,0.676974365234375,-0.1260213851928711,0.27245402336120605,-0.1789472997188568
1696962064414987800,0.68698779296875,1.7151947021484375,-0.4702807664871216,-0.21674491465091705
1696962064425001200,0.697001220703125,-1.4851922988891602,0.3131366968154907,0.16399241983890533
1696962064435014700,0.7070146484375,2.405520439147949,-0.4062070846557617,0.019710570573806763
1696962064445028400,0.7170283203125,-0.8102197647094727,0.1307293176651001,0.1815103441476822
1696962064455042000,0.7270419921875,1.8348846435546875,-0.35331737995147705,0.2582884430885315
1696962064465056000,0.737055908203125,-0.6741104125976562,0.14821207523345947,0.22253477573394775
1696962064475069400,0.7470693359375,-0.0981149673461914,0.10246646404266357,0.6089318990707397
1696962064485083000,0.757082763671875,1.3677597045898438,-0.13555049896240234,0.3820444345474243
1696962064495096000,0.767095947265625,-0.8760271072387695,0.09045052528381348,0.0343841016292572
1696962064505109500,0.777109619140625,0.41645336151123047,0.07501041889190674,0.10024264454841614
1696962064515123000,0.787123046875,0.08511161804199219,0.013028264045715332,0.0074235498905181885
1696962064525136400,0.797136474609375,-0.45957088470458984,0.060111284255981445,-0.17160993814468384
1696962064535149800,0.80714990234375,-0.22626876831054688,0.023793339729309082,0.0767812430858612
1696962064545163000,0.8171630859375,-0.19020652770996094,0.06632542610168457,0.23559537529945374
1696962064555176400,0.827176513671875,-0.2869081497192383,-0.12519526481628418,-0.243409663438797
1696962064565190000,0.83718994140625,-0.4156484603881836,0.13200032711029053,0.013867735862731934
1696962064575203300,0.847203369140625,-0.211669921875,0.2772786617279053,0.21881946921348572
1696962064585216500,0.857216552734375,0.05587291717529297,0.11326074600219727,0.10750529170036316
1696962064595230000,0.86722998046875,-0.2382659912109375,-0.13801515102386475,0.1808149218559265
1696962064605243400,0.877243408203125,0.3135700225830078,-0.06010293960571289,0.1212388277053833
1696962064615256800,0.8872568359375,0.11557960510253906,-0.029880166053771973,-0.07349823415279388
1696962064625270300,0.897270263671875,0.5212774276733398,0.11773896217346191,0.011994689702987671
1696962064635283500,0.907283447265625,-0.4460878372192383,-0.14787077903747559,-0.011695519089698792
1696962064645297000,0.917296875,0.03244209289550781,-0.13518071174621582,0.15920451283454895
1696962064655310300,0.927310302734375,0.6522798538208008,0.1708834171295166,-0.3910466730594635
1696962064665323800,0.93732373046875,-0.37811946868896484,-0.2109905481338501,-0.3764663338661194
1696962064675337200,0.947337158203125,0.9048357009887695,-0.015596270561218262,-0.06311352550983429
1696962064685350400,0.957350341796875,-0.16605567932128906,-0.12347686290740967,-0.43084418773651123
1696962064695363800,0.96736376953125,-0.055710792541503906,0.171555757522583,-0.04517406225204468
1696962064705377300,0.977377197265625,1.1868705749511719,-0.5011947154998779,-0.023860394954681396
1696962064715390700,0.987390625,-1.2240867614746094,0.2582656145095825,-0.3561024069786072
1696962064725404000,0.99740380859375,2.1541271209716797,-0.19204235076904297,0.0699339509010315
1696962064735417300,1.007417236328125,-1.2335758209228516,0.0268326997756958,0.047975778579711914
1696962064745430800,1.0174306640625,1.2391948699951172,-0.06686031818389893,0.05132380127906799
1696962064755444200,1.0274443359375,0.7387971878051758,0.3020559549331665,0.00707477331161499
1696962064765457700,1.037457763671875,-0.47345447540283203,-0.3622763156890869,0.32190901041030884
1696962064775470800,1.047470947265625,1.8695898056030273,-0.1283797025680542,0.022345691919326782
1696962064785484300,1.057484375,-0.5819168090820312,0.30168938636779785,0.02515318989753723
1696962064795497700,1.067497802734375,0.34418487548828125,-0.5177040100097656,0.15166553854942322
1696962064805511200,1.07751123046875,0.31731319427490234,0.2540520429611206,0.11184892058372498
1696962064815524600,1.087524658203125,0.49488353729248047,-0.4012528657913208,-0.21299436688423157
1696962064825538000,1.0975380859375,-0.515446662902832,0.5159097909927368,0.00512424111366272
1696962064835551500,1.107551513671875,1.857569694519043,-0.15861034393310547,0.3659806251525879
1696962064845565000,1.11756494140625,-1.7943992614746094,0.030514955520629883,0.10623076558113098
1696962064855578400,1.127578369140625,1.2783594131469727,0.3822476863861084,0.17802730202674866
1696962064865592000,1.137592041015625,0.05246543884277344,-0.1235893964767456,0.18857818841934204
1696962064875605500,1.14760546875,-1.2538213729858398,0.3181893825531006,0.26017874479293823
1696962064885619000,1.157618896484375,2.1095142364501953,0.09000694751739502,0.09585660696029663
1696962064895632400,1.16763232421875,-3.212338924407959,0.19532251358032227,0.22066792845726013
1696962064905645800,1.177645751953125,1.8059568405151367,0.0675884485244751,0.6619935035705566
1696962064915659300,1.1876591796875,-0.7781963348388672,-0.12504398822784424,0.3951304852962494
1696962064925673000,1.1976728515625,-0.8955936431884766,0.2625201940536499,0.3863406181335449
1696962064935686400,1.207686279296875,2.1329002380371094,-0.21109330654144287,0.23996949195861816
1696962064945699800,1.217699951171875,-1.8323907852172852,0.08454728126525879,0.0911923348903656
1696962064955713300,1.22771337890625,0.8331823348999023,-0.09609067440032959,0.31267017126083374
1696962064965726700,1.237726806640625,-0.2899751663208008,0.16857147216796875,-0.08376464247703552
1696962064975740400,1.247740478515625,-0.3497610092163086,-0.35595905780792236,0.38638952374458313
1696962064985753900,1.25775390625,1.3491325378417969,0.4510011672973633,-0.12476298213005066
1696962064995767300,1.267767333984375,-1.1611299514770508,-0.26555967330932617,0.28704389929771423
1696962065005780700,1.27778076171875,1.0667409896850586,-0.16747534275054932,0.02899351716041565
1696962065015794200,1.287794189453125,-0.048763275146484375,0.08276116847991943,0.24144083261489868
1696962065025808000,1.297807861328125,-0.08219337463378906,-0.11237084865570068,0.015060007572174072
1696962065035821300,1.3078212890625,0.726536750793457,-0.21678411960601807,0.20867511630058289
1696962065045834800,1.317834716796875,0.4259052276611328,0.000910639762878418,-0.0037306249141693115
1696962065055848200,1.32784814453125,-0.23794841766357422,-0.6182960271835327,0.06135976314544678
1696962065065861600,1.337861572265625,1.2657594680786133,0.021868228912353516,-0.12705697119235992
1696962065075875300,1.347875244140625,-0.04126930236816406,-0.0022603273391723633,-0.3545416593551636
1696962065085888800,1.357888671875,0.45798683166503906,-0.060320258140563965,0.30856853723526
1696962065095902200,1.367902099609375,1.1111745834350586,0.020984172821044922,0.34797874093055725
1696962065105915600,1.37791552734375,-0.6945486068725586,-0.5255237817764282,0.3831636905670166
1696962065115929000,1.38792919921875,1.9450922012329102,0.00442051887512207,0.10508450865745544
1696962065125942800,1.39794287109375,-0.8982334136962891,0.04738414287567139,0.037361711263656616
1696962065135956200,1.407956298828125,0.33531761169433594,0.019334077835083008,0.4295656979084015
1696962065145969700,1.4179697265625,0.3000011444091797,0.30978405475616455,0.04261168837547302
1696962065155983000,1.427983154296875,-0.9813318252563477,-0.20815503597259521,0.0950620174407959
1696962065165996500,1.43799658203125,0.6763038635253906,0.10697460174560547,0.14467471837997437
1696962065176010000,1.448010009765625,-1.0831050872802734,-0.2793954610824585,0.26698607206344604
1696962065186023400,1.4580234375,0.5035419464111328,0.24372649192810059,0.218028724193573
1696962065196036900,1.468036865234375,0.2819070816040039,0.19784092903137207,0.31038689613342285
1696962065206050300,1.47805029296875,-0.9667425155639648,0.28928864002227783,0.4981439709663391
1696962065216063700,1.488063720703125,1.3427238464355469,-0.44712018966674805,0.2500019967556
1696962065226077200,1.4980771484375,-2.163201332092285,0.3052603006362915,0.42867615818977356
1696962065236090600,1.508090576171875,1.6479425430297852,-0.09678947925567627,0.6367998719215393
1696962065246104000,1.51810400390625,0.0907449722290039,0.09375572204589844,0.2406160831451416
1696962065256117500,1.528117431640625,-0.571746826171875,0.020654797554016113,0.3254324197769165
1696962065266131000,1.538130859375,1.2783727645874023,0.039427876472473145,0.1351575255393982
1696962065276144400,1.548144287109375,-0.8953933715820312,-0.07180202007293701,-0.3721778690814972
1696962065286157800,1.55815771484375,-0.23297691345214844,-0.3437689542770386,-0.006356775760650635
1696962065296171300,1.568171142578125,1.0775022506713867,0.21856534481048584,-0.10072213411331177
1696962065306184700,1.578184814453125,-0.7240514755249023,-0.15719938278198242,-0.47700822353363037
1696962065316198100,1.5881982421875,0.5134735107421875,-0.38431882858276367,0.14275509119033813
1696962065326211600,1.598211669921875,0.5292215347290039,0.5477086305618286,0.6221869587898254
1696962065336225000,1.60822509765625,0.7257804870605469,-0.46161949634552,0.07366910576820374
1696962065346238500,1.618238525390625,-0.8403568267822266,0.042499423027038574,0.2057143747806549
1696962065356252000,1.628251953125,1.8833675384521484,-0.07717633247375488,0.3872111439704895
1696962065366265300,1.638265380859375,-1.665548324584961,-0.3934682607650757,0.012260794639587402
1696962065376278800,1.64827880859375,1.234360694885254,0.17457568645477295,0.10134652256965637
1696962065386292200,1.658292236328125,0.0037784576416015625,-0.28981196880340576,-0.0799635648727417
1696962065396305700,1.6683056640625,-0.4537029266357422,0.14851582050323486,-0.13173148036003113
1696962065406319000,1.678319091796875,1.792088508605957,-0.2791053056716919,-0.265180379152298
1696962065416332500,1.68833251953125,-1.846804141998291,-0.06184232234954834,0.007597595453262329
1696962065426346000,1.698345947265625,1.6687908172607422,-0.2059156894683838,0.2918058931827545
1696962065436359400,1.708359375,-0.25476932525634766,-0.04059791564941406,0.08071956038475037
1696962065446372900,1.718372802734375,-0.2678184509277344,-0.17621839046478271,-0.04265156388282776
1696962065456386300,1.72838623046875,0.6392440795898438,0.2922099828720093,0.4919879734516144
1696962065466399700,1.738399658203125,0.1355123519897461,-0.24002456665039062,0.07688787579536438
1696962065476413200,1.7484130859375,-0.27460289001464844,0.10689437389373779,0.14270812273025513
1696962065486426600,1.758426513671875,0.04644012451171875,-0.177512526512146,-0.15811017155647278
1696962065496440000,1.768440185546875,-0.7823324203491211,0.46992504596710205,0.5836124420166016
1696962065506453500,1.77845361328125,1.5990257263183594,-0.4006305932998657,-0.0034921765327453613
1696962065516467000,1.788467041015625,-2.7870492935180664,0.17309808731079102,0.1340583860874176
1696962065526480400,1.79848046875,2.09653377532959,0.3492765426635742,0.3233853578567505
1696962065536493800,1.808493896484375,-1.7443957328796387,0.024479389190673828,-0.03516480326652527
1696962065546507300,1.81850732421875,-0.19668102264404297,-0.09208083152770996,0.036552608013153076
1696962065556520700,1.828520751953125,1.02935791015625,-0.2728457450866699,0.07411357760429382
1696962065566534100,1.8385341796875,-2.2970876693725586,0.4828224182128906,0.3585154712200165
1696962065576547600,1.848547607421875,2.5080013275146484,-0.1299806833267212,0.3992103636264801
1696962065586561000,1.85856103515625,-1.916975498199463,-0.07357871532440186,0.1636057198047638
1696962065596574500,1.868574462890625,0.9654941558837891,-0.07839632034301758,-0.23187118768692017
1696962065606588000,1.878587890625,0.4035167694091797,-0.26578283309936523,-0.36861610412597656
1696962065616601300,1.888601318359375,-1.6336641311645508,0.07484984397888184,0.3993675112724304
1696962065626614800,1.89861474609375,3.6641359329223633,0.0508880615234375,-0.02914261817932129
1696962065636628200,1.908628173828125,-2.1399316787719727,-0.5156447887420654,0.15084877610206604
1696962065646641700,1.9186416015625,1.4400386810302734,0.060923218727111816,0.4902734160423279
1696962065656655000,1.928655029296875,2.1333208084106445,0.18401098251342773,0.2477951943874359
1696962065666668800,1.938668701171875,-1.7286300659179688,-0.20203733444213867,0.07949656248092651
1696962065676682200,1.94868212890625,1.5447511672973633,-0.2941608428955078,0.7643312215805054
1696962065686695700,1.95869580078125,0.7123346328735352,0.29056572914123535,0.3733367323875427
1696962065696709000,1.968709228515625,-0.2589893341064453,-0.14881694316864014,0.15336987376213074
1696962065706722600,1.97872265625,1.3484230041503906,0.09468185901641846,-0.11151927709579468
1696962065716736300,1.988736328125,-1.3367748260498047,-0.28064870834350586,-0.15845990180969238
1696962065726749700,1.998749755859375,-0.26724815368652344,-0.17242681980133057,-0.05244338512420654
1696962065736763100,2.00876318359375,0.8687324523925781,-0.09288275241851807,-0.3460862934589386
1696962065746776600,2.018776611328125,-0.9989995956420898,-0.23289144039154053,0.10513654351234436
1696962065756790000,2.0287900390625,1.1080131530761719,-0.025844573974609375,-0.10419502854347229
1696962065766803700,2.0388037109375,-1.084794044494629,0.05009186267852783,0.35118281841278076
1696962065776817200,2.048817138671875,0.18839359283447266,-0.03767657279968262,0.9428250789642334
1696962065786830600,2.05883056640625,1.9705677032470703,0.3252042531967163,-0.004585862159729004
1696962065796844000,2.068843994140625,-2.7963614463806152,-0.19456052780151367,0.29885172843933105
1696962065806857500,2.078857421875,1.4646244049072266,0.02517223358154297,0.5969061851501465
1696962065816871200,2.08887109375,0.08499717712402344,0.17471086978912354,-0.3950209617614746
1696962065826884600,2.098884521484375,-2.6378936767578125,-0.24346590042114258,-0.23133888840675354
1696962065836898000,2.10889794921875,1.5942907333374023,-0.012964129447937012,0.11168131232261658
1696962065846911500,2.118911376953125,-1.111598014831543,-0.16951513290405273,-0.13415217399597168
1696962065856925000,2.128925048828125,-0.6822605133056641,0.24001896381378174,-0.01528477668762207
1696962065866938600,2.138938720703125,0.756464958190918,0.38003063201904297,0.23088768124580383
1696962065876952000,2.1489521484375,-1.0544633865356445,-0.3163132667541504,0.025514543056488037
1696962065886965500,2.158965576171875,0.6001596450805664,-0.06546640396118164,0.03995257616043091
1696962065896979000,2.16897900390625,-0.06067371368408203,-0.036041855812072754,0.17118629813194275
1696962065906992400,2.178992431640625,0.2493133544921875,-0.10559892654418945,0.21875154972076416
1696962065917005800,2.189005859375,1.0108757019042969,0.2542499303817749,0.14185160398483276
1696962065927019500,2.19901953125,-0.39093971252441406,-0.26724791526794434,0.05930137634277344
1696962065937033000,2.209032958984375,-0.5279226303100586,-0.11909687519073486,0.04126685857772827
1696962065947046400,2.21904638671875,1.8110723495483398,0.15459156036376953,-0.11641019582748413
1696962065957059800,2.229059814453125,-0.6387462615966797,-0.39601147174835205,0.09823447465896606
1696962065967073300,2.2390732421875,0.942169189453125,-0.02269601821899414,-0.08716946840286255
1696962065977087000,2.2490869140625,0.4613180160522461,-0.3305925130844116,0.1032213568687439
1696962065987100400,2.259100341796875,0.005886077880859375,-0.08820390701293945,0.5028942823410034
1696962065997113900,2.26911376953125,0.9406557083129883,-0.1265941858291626,0.015473008155822754
1696962066007127300,2.279127197265625,-1.2000131607055664,-0.24278295040130615,-0.04616671800613403
1696962066017140700,2.289140625,1.0943307876586914,0.2439950704574585,0.0905371606349945
1696962066027154400,2.299154541015625,0.09803009033203125,-0.13985991477966309,-0.452621191740036
1696962066037167900,2.30916796875,-0.9234523773193359,-0.3977872133255005,-0.25265219807624817
1696962066047181300,2.319181396484375,1.2228403091430664,0.015137791633605957,0.06001913547515869
1696962066057194800,2.32919482421875,-0.10374927520751953,-0.20415103435516357,-0.013363152742385864
1696962066067208200,2.339208251953125,-0.27462100982666016,-0.18281948566436768,-0.19437193870544434
1696962066077222000,2.349221923828125,-0.34958744049072266,0.300783634185791,0.5109668970108032
1696962066087235300,2.3592353515625,0.8256855010986328,-0.4050765037536621,0.19117042422294617
1696962066097248800,2.369248779296875,-1.157449722290039,0.1778935194015503,-0.16720786690711975
1696962066107262200,2.37926220703125,0.660496711730957,0.06646323204040527,0.26948878169059753
1696962066117275600,2.389275634765625,-0.28668689727783203,0.13592231273651123,0.14957910776138306
1696962066127289300,2.399289306640625,-0.38082408905029297,0.006100654602050781,0.10133704543113708
1696962066137302800,2.409302734375,0.1265268325805664,-0.3472076654434204,-0.08558836579322815
1696962066147316200,2.419316162109375,-0.613286018371582,-0.09905314445495605,0.18169444799423218
1696962066157329700,2.42932958984375,0.6914949417114258,0.304126501083374,-0.053226351737976074
1696962066167343000,2.439343017578125,-1.152562141418457,-0.20660114288330078,-0.09477341175079346
1696962066177356800,2.449356689453125,0.26396751403808594,0.40548133850097656,0.36999815702438354
1696962066187370200,2.459370361328125,0.17742156982421875,-0.2686041593551636,0.09858903288841248
1696962066197383700,2.4693837890625,-1.8371353149414062,0.12324798107147217,0.30638357996940613
1696962066207397000,2.479397216796875,2.3927383422851562,-0.35317277908325195,-0.06590420007705688
1696962066217410600,2.48941064453125,-1.7534494400024414,0.11803042888641357,0.11527323722839355
1696962066227424300,2.49942431640625,1.573868751525879,0.3006380796432495,0.1468506157398224
1696962066237437700,2.509437744140625,0.28902530670166016,-0.6919757127761841,-0.19945028424263
1696962066247451100,2.519451171875,-1.1106033325195312,-0.36569154262542725,0.3398032784461975
1696962066257464600,2.529464599609375,1.1793670654296875,0.5104141235351562,0.26546600461006165
1696962066267478000,2.53947802734375,0.28221988677978516,0.14020097255706787,-0.05132073163986206
1696962066277491500,2.549491455078125,0.8200216293334961,-0.5926204919815063,-0.1615929901599884
1696962066287505200,2.559505126953125,-0.49999141693115234,-0.273018479347229,-0.04627025127410889
1696962066297518600,2.5695185546875,0.8995532989501953,0.3675497770309448,0.04079589247703552
1696962066307532000,2.579531982421875,0.7771186828613281,-0.6352169513702393,-0.27367544174194336
1696962066317545500,2.58954541015625,-0.05662345886230469,-0.27710914611816406,0.033986032009124756
1696962066327559000,2.599558837890625,1.0653657913208008,0.42353391647338867,0.532761812210083
1696962066337572600,2.609572509765625,-0.6474313735961914,-0.36053287982940674,-0.07192456722259521
1696962066347586000,2.6195859375,1.3019142150878906,-0.004848837852478027,-0.3312988877296448
1696962066357599500,2.629599609375,-0.33957767486572266,-0.23341751098632812,-0.31047523021698
1696962066367613000,2.639613037109375,-0.12862396240234375,-0.07647454738616943,0.04302677512168884
1696962066377626400,2.64962646484375,2.1629295349121094,-0.22344863414764404,-0.6398746967315674
1696962066387640000,2.65964013671875,-2.9324893951416016,-0.363611102104187,-0.24389764666557312
1696962066397653500,2.669653564453125,1.827056884765625,0.09459435939788818,-0.2947506904602051
1696962066407667000,2.6796669921875,-0.9709949493408203,-0.02320098876953125,-0.27072831988334656
1696962066417680400,2.689680419921875,-0.051422119140625,-0.4057368040084839,-0.5221412181854248
1696962066427693800,2.69969384765625,0.1547985076904297,0.46308743953704834,-0.06380632519721985
1696962066437707500,2.70970751953125,-0.40913963317871094,-0.15213119983673096,0.0342574417591095
1696962066447721000,2.719720947265625,-0.2354278564453125,-0.06952548027038574,-0.30233511328697205
1696962066457734400,2.729734375,-0.019775390625,-0.1589677333831787,-0.341666579246521
1696962066467747800,2.739747802734375,-0.6971368789672852,-0.09427905082702637,-0.4793277978897095
1696962066477761300,2.74976123046875,0.231201171875,0.24230873584747314,-0.596991240978241
1696962066487775000,2.75977490234375,-0.4564781188964844,-0.1575549840927124,0.1406325101852417
1696962066497788400,2.769788330078125,-0.4645395278930664,0.2841770648956299,0.3397660255432129
1696962066507801900,2.7798017578125,1.0501470565795898,-0.19839870929718018,0.001951366662979126
1696962066517815300,2.789815185546875,-1.1158580780029297,-0.21367192268371582,-0.12211135029792786
1696962066527828700,2.799828857421875,0.7971334457397461,0.316365122795105,0.030659765005111694
1696962066537842400,2.809842529296875,-0.45139598846435547,-0.0266035795211792,-0.2732025682926178
1696962066547856000,2.81985595703125,-1.0087642669677734,-0.2657618522644043,0.028552889823913574
1696962066557869300,2.829869384765625,1.3577241897583008,-0.13501453399658203,0.1289433240890503
1696962066567882800,2.8398828125,-0.6904067993164062,-0.08691740036010742,-0.17453841865062714
1696962066577896200,2.849896240234375,0.19970226287841797,-0.08820605278015137,0.05816608667373657
1696962066587909600,2.85990966796875,1.5784969329833984,0.347137451171875,-0.2222641557455063
1696962066597923300,2.86992333984375,-1.0955705642700195,-0.6338917016983032,0.2599630653858185
1696962066607936800,2.879936767578125,1.342391014099121,0.1046212911605835,0.3586021661758423
1696962066617950200,2.8899501953125,0.6029329299926758,-0.15870332717895508,-0.050674229860305786
1696962066627963600,2.899963623046875,-0.5455589294433594,-0.15323328971862793,0.13139617443084717
1696962066637977000,2.90997705078125,2.2972335815429688,-0.04017770290374756,0.3165806233882904
1696962066647990800,2.91999072265625,-1.7258477210998535,-0.299221396446228,0.14593574404716492
1696962066658004200,2.930004150390625,2.165914535522461,-0.03699851036071777,-0.090656578540802
1696962066668017700,2.940017578125,-0.34740638732910156,-0.10014581680297852,-0.0002796053886413574
1696962066678031000,2.950031005859375,0.2550020217895508,0.012639522552490234,0.19214951992034912
1696962066688044500,2.96004443359375,1.6150293350219727,-0.0807110071182251,-0.1736641228199005
1696962066698058200,2.970058349609375,-1.6271686553955078,-0.4235783815383911,0.03756710886955261
1696962066708071700,2.98007177734375,1.5482254028320312,-0.18908703327178955,0.3151054382324219
1696962066718085000,2.990085205078125,0.4599170684814453,0.3951144218444824,-0.23574641346931458
1696962066728098600,3.0000986328125,-0.48256587982177734,-0.4634460210800171,-0.2146095186471939
1696962066738112000,3.010112060546875,0.7228813171386719,0.37359297275543213,0.20115822553634644
1696962066748125700,3.020125732421875,-0.6021175384521484,-0.27405810356140137,-0.1491641402244568
1696962066758139100,3.03013916015625,-0.2752828598022461,0.3514888286590576,0.5862585306167603
1696962066768152600,3.040152587890625,1.9316797256469727,-0.5299680233001709,0.03889358043670654
1696962066778166000,3.050166015625,-2.0088534355163574,0.15852832794189453,-0.22881704568862915
1696962066788179500,3.060179443359375,0.891047477722168,0.1381063461303711,0.06725892424583435
1696962066798193200,3.070193115234375,-0.39578914642333984,0.13555753231048584,-0.11910343170166016
1696962066808206600,3.08020654296875,-0.963099479675293,0.14282989501953125,-0.14643169939517975
1696962066818220000,3.090219970703125,0.21019649505615234,-0.30880987644195557,-0.10613387823104858
1696962066828233500,3.1002333984375,-1.7435259819030762,0.1738346815109253,-0.013715475797653198
1696962066838247000,3.110246826171875,2.182220458984375,-0.26746833324432373,-0.40870076417922974
1696962066848260600,3.120260498046875,-2.5803136825561523,0.07974982261657715,-0.25373727083206177
1696962066858274000,3.130274169921875,0.6933469772338867,0.12754619121551514,0.06030207872390747
1696962066868287500,3.14028759765625,-0.19627761840820312,-0.22454214096069336,-0.14817428588867188
1696962066878301000,3.150301025390625,-1.1039047241210938,-0.07763361930847168,-0.2952313721179962
1696962066888314400,3.160314453125,1.0777082443237305,0.08654510974884033,0.01501128077507019
1696962066898327800,3.170327880859375,-0.6406354904174805,0.18100714683532715,0.21036496758460999
1696962066908341500,3.180341552734375,1.324197769165039,-0.32634079456329346,0.13469919562339783
1696962066918355000,3.19035498046875,-0.7576704025268555,-0.11353647708892822,0.0014961659908294678
1696962066928368400,3.200368408203125,1.6466436386108398,0.10832583904266357,0.20847097039222717
1696962066938381800,3.2103818359375,0.19436931610107422,-0.3415876626968384,0.06634443998336792
1696962066948395300,3.220395263671875,-0.09778881072998047,-0.11961531639099121,0.04905754327774048
1696962066958409000,3.230408935546875,0.40386104583740234,0.028858542442321777,0.17610222101211548
1696962066968422400,3.24042236328125,0.732060432434082,-0.28148436546325684,0.15762141346931458
1696962066978435800,3.250435791015625,-0.13468360900878906,-0.28676581382751465,-0.1824052780866623
1696962066988449300,3.26044921875,1.3461990356445312,0.08702504634857178,0.14427193999290466
1696962066998462700,3.270462646484375,-0.49158573150634766,-0.14177417755126953,-0.10273399949073792
1696962067008476400,3.280476318359375,0.36939048767089844,-0.14483153820037842,0.11026987433433533
1696962067018489900,3.29048974609375,0.9656734466552734,-0.19090604782104492,0.014447003602981567
1696962067028503300,3.30050341796875,-1.1673059463500977,-0.32170236110687256,-0.3073580861091614
1696962067038516700,3.310516845703125,0.6465129852294922,0.42868804931640625,-0.3968280255794525
1696962067048530200,3.3205302734375,-0.45346641540527344,-0.23101377487182617,-0.029705733060836792
1696962067058543900,3.3305439453125,-0.18456077575683594,0.103668212890625,0.24734288454055786
1696962067068557300,3.340557373046875,0.17920780181884766,0.09645771980285645,-0.005295068025588989
1696962067078570800,3.35057080078125,-0.7333498001098633,0.031662821769714355,-0.03376823663711548
1696962067088584200,3.360584228515625,0.04728984832763672,0.40053606033325195,-0.00019499659538269043
1696962067098597600,3.37059765625,-0.12932968139648438,-0.3720998764038086,0.04847472906112671
1696962067108611300,3.380611328125,-1.1369829177856445,0.13184678554534912,-0.09858381748199463
1696962067118624800,3.390624755859375,1.0014286041259766,0.1798950433731079,-0.15904183685779572
1696962067128638200,3.40063818359375,-1.3085041046142578,-0.15617895126342773,0.20838230848312378
1696962067138651600,3.410651611328125,0.39055442810058594,0.1347501277923584,-0.13810034096240997
1696962067148665000,3.4206650390625,-0.5323772430419922,0.16163814067840576,-0.24200043082237244
1696962067158678800,3.4306787109375,-1.0280370712280273,-0.20754098892211914,0.0405200719833374
1696962067168692200,3.440692138671875,0.899749755859375,0.10122764110565186,0.13621997833251953
1696962067178705700,3.45070556640625,0.19933700561523438,-0.12632644176483154,-0.2960200905799866
1696962067188719000,3.460718994140625,0.6474475860595703,-0.16618764400482178,0.13970178365707397
1696962067198732500,3.470732666015625,-0.15237903594970703,0.12732577323913574,0.5308088064193726
1696962067208746000,3.48074609375,0.3157033920288086,-0.0035512447357177734,0.35117465257644653
1696962067218759700,3.490759765625,0.4242591857910156,-0.12050807476043701,0.14776435494422913
1696962067228773000,3.500773193359375,-0.05014991760253906,-0.15229344367980957,-0.18905967473983765
1696962067238786600,3.51078662109375,1.3539628982543945,-0.20996785163879395,0.20403170585632324
1696962067248800000,3.520800048828125,0.055530548095703125,-0.2108217477798462,-0.22868648171424866
1696962067258813400,3.5308134765625,0.09312725067138672,-0.1927281618118286,-0.13922743499279022
1696962067268827100,3.5408271484375,1.1056222915649414,0.0325392484664917,0.13765805959701538
1696962067278840600,3.550840576171875,-0.4071941375732422,-0.3312720060348511,-0.23189575970172882
1696962067288854000,3.56085400390625,1.1462888717651367,-0.27034521102905273,0.059842705726623535
1696962067298867500,3.570867431640625,0.1689586639404297,0.0029338598251342773,-0.006652534008026123
1696962067308881000,3.580880859375,-0.7777385711669922,-0.2384892702102661,0.09504365921020508
1696962067318894600,3.59089453125,1.943014144897461,0.042052388191223145,0.09038332104682922
1696962067328908000,3.600907958984375,-1.110112190246582,-0.3343544006347656,-0.14215447008609772
1696962067338921500,3.61092138671875,0.025157928466796875,-0.0125579833984375,0.1361311376094818
1696962067348935000,3.620934814453125,0.4171295166015625,0.667932391166687,0.07445359230041504
1696962067358948400,3.6309482421875,-0.6063270568847656,-0.31576812267303467,-0.5988446474075317
1696962067368962000,3.640962158203125,-1.8133020401000977,-0.062026023864746094,-0.32536986470222473
1696962067378975500,3.6509755859375,0.9436254501342773,0.10105443000793457,-0.21060645580291748
1696962067388989000,3.660989013671875,-1.4332237243652344,0.21706867218017578,-0.41234904527664185
1696962067399002400,3.67100244140625,-0.7128467559814453,-0.0865478515625,0.05470624566078186
1696962067409015800,3.681015869140625,0.440673828125,0.46235477924346924,0.3164333403110504
1696962067419029500,3.691029541015625,-0.8411188125610352,-0.21678519248962402,-0.06447920203208923
1696962067429043000,3.70104296875,-0.18460369110107422,-0.08922135829925537,-0.22570443153381348
1696962067439056400,3.711056396484375,0.24593162536621094,-0.14645826816558838,-0.03894808888435364
1696962067449069800,3.72106982421875,-0.44786739349365234,0.1432631015777588,-0.23381903767585754
1696962067459083300,3.731083251953125,0.6663532257080078,-0.1563025712966919,-0.09343366324901581
1696962067469097000,3.741096923828125,-0.7974987030029297,-0.16505086421966553,0.16801771521568298
1696962067479110400,3.7511103515625,0.7759895324707031,0.17955482006072998,-0.2558326721191406
1696962067489123800,3.761123779296875,-0.03341960906982422,0.024805903434753418,-0.255617618560791
1696962067499137300,3.77113720703125,0.12389469146728516,-0.3530740737915039,-0.318795382976532
1696962067509150700,3.781150634765625,-0.6693525314331055,-0.1627894639968872,0.17292392253875732
1696962067519164200,3.7911640625,1.5535602569580078,0.09291219711303711,0.1080879271030426
1696962067529177900,3.801177734375,-0.5953207015991211,-0.620612382888794,-0.3736637234687805
1696962067539191300,3.81119140625,0.4376411437988281,0.34419095516204834,0.3635813295841217
1696962067549204700,3.821204833984375,1.7510700225830078,-0.067535400390625,0.26549217104911804
1696962067559218200,3.83121826171875,-1.5126762390136719,0.1261148452758789,-0.3256623446941376
1696962067569231600,3.841231689453125,2.0748043060302734,-0.19669127464294434,-0.08249235153198242
1696962067579245000,3.8512451171875,-0.9930047988891602,-0.1721785068511963,0.10785171389579773
1696962067589258500,3.861258544921875,1.2881927490234375,-0.1900804042816162,-0.1009022444486618
1696962067599272000,3.87127197265625,0.08140182495117188,-0.10989212989807129,-0.02969294786453247
1696962067609285400,3.881285400390625,-1.1662063598632812,0.1938706636428833,0.4515753984451294
1696962067619298800,3.891298828125,1.7802934646606445,0.03593754768371582,0.28908589482307434
1696962067629312300,3.901312255859375,-1.4110755920410156,-0.3565213680267334,-0.5212544202804565
1696962067639325700,3.91132568359375,-1.1926651000976562,0.14493560791015625,0.15507090091705322
1696962067649339100,3.921339111328125,2.5617246627807617,-0.1342846155166626,-0.35989052057266235
1696962067659352600,3.9313525390625,-3.417457103729248,0.008472800254821777,-0.2491845190525055
1696962067669366000,3.941365966796875,2.1957521438598633,0.10299861431121826,-0.14546090364456177
1696962067679379500,3.95137939453125,-0.8765344619750977,0.020275473594665527,0.08390229940414429
1696962067689393000,3.961392822265625,-0.8369150161743164,0.0184706449508667,0.14949461817741394
1696962067699406300,3.97140625,0.4369230270385742,0.032537102699279785,0.13984912633895874
1696962067709419800,3.981419677734375,-0.66357421875,0.22136163711547852,-0.018703043460845947
1696962067719433200,3.99143310546875,0.26520729064941406,0.087158203125,0.17156070470809937
1696962067729446700,4.00144677734375,-0.3042020797729492,-0.25198912620544434,-0.17242324352264404
1696962067739460000,4.011460205078125,0.2506265640258789,0.4201178550720215,-0.11919331550598145
1696962067749473500,4.0214736328125,0.07334041595458984,-0.11214077472686768,0.09858527779579163
1696962067759487000,4.031487060546875,-1.1840648651123047,-0.29081273078918457,-0.20543622970581055
1696962067769500400,4.04150048828125,-0.4261913299560547,0.6052882671356201,-0.014479607343673706
1696962067779513900,4.051513916015625,0.348785400390625,-0.4065887928009033,-0.5124830603599548
1696962067789527300,4.06152734375,-1.9553613662719727,-0.2780148983001709,-0.44029247760772705
1696962067799540700,4.071540771484375,1.1360578536987305,0.07428896427154541,-0.2671978175640106
1696962067809554200,4.08155419921875,-0.7345571517944336,0.1251392364501953,-0.054181843996047974
1696962067819567600,4.091567626953125,-0.9247541427612305,0.009649515151977539,0.080116868019104
1696962067829581000,4.1015810546875,2.189065933227539,-0.537671685218811,0.28221455216407776
1696962067839594500,4.111594482421875,-1.7018089294433594,0.36810457706451416,0.08908060193061829
1696962067849608000,4.12160791015625,2.6700172424316406,0.19021928310394287,0.25790926814079285
1696962067859621400,4.131621337890625,-0.26099300384521484,-0.4493938684463501,0.2237246334552765
1696962067869634800,4.141634765625,1.1535711288452148,0.21209001541137695,0.2097647786140442
1696962067879648300,4.151648193359375,1.4137086868286133,0.10930347442626953,0.3440569341182709
1696962067889661700,4.16166162109375,0.08140754699707031,0.10534238815307617,0.39825451374053955
1696962067899675100,4.171675048828125,0.5589313507080078,-0.5968458652496338,-0.235373854637146
1696962067909688800,4.181688720703125,-1.7553186416625977,-0.04757678508758545,-0.038013845682144165
1696962067919702300,4.191702392578125,1.780238151550293,0.40158867835998535,-0.3777150511741638
1696962067929715700,4.2017158203125,-1.3775224685668945,-0.5720274448394775,-0.5823656916618347
1696962067939729200,4.211729248046875,-0.42356204986572266,0.12830495834350586,-0.4327240586280823
1696962067949742600,4.22174267578125,1.1266155242919922,-0.10638570785522461,-0.20710822939872742
1696962067959756300,4.23175634765625,-2.1640625,0.028076887130737305,-0.1334899514913559
1696962067969769700,4.241769775390625,2.5723724365234375,-0.0791541337966919,-0.11799895763397217
1696962067979783200,4.251783203125,-2.006584644317627,-0.2729073762893677,-0.2258259505033493
1696962067989796600,4.261796630859375,-0.3677663803100586,0.7002166509628296,0.3097017705440521
1696962067999810000,4.27181005859375,2.099567413330078,0.0929725170135498,0.626803457736969
1696962068009823500,4.281823486328125,-1.8912248611450195,-0.11384725570678711,0.06602159142494202
1696962068019837200,4.291837158203125,1.0329656600952148,0.2635762691497803,0.1423841416835785
1696962068029850600,4.3018505859375,-0.17359638214111328,-0.05969846248626709,0.16457238793373108
1696962068039864000,4.311864013671875,-0.3216390609741211,-0.08612704277038574,-0.22047030925750732
1696962068049877500,4.32187744140625,0.12819290161132812,0.1834324598312378,-0.1624971330165863
1696962068059891000,4.331890869140625,-1.1098003387451172,-0.1518024206161499,0.0992872416973114
1696962068069904600,4.341904541015625,-0.30951690673828125,0.17845845222473145,-0.00047537684440612793
1696962068079918000,4.35191796875,0.8764076232910156,-0.16080760955810547,-0.072625070810318
1696962068089931500,4.361931640625,-1.4962635040283203,0.14219212532043457,-0.1840674877166748
1696962068099945000,4.371945068359375,2.2440567016601562,0.12350320816040039,-0.07459357380867004
1696962068109958400,4.38195849609375,-2.1385750770568848,-0.8077614307403564,0.23362213373184204
1696962068119972000,4.39197216796875,1.1871109008789062,0.4896841049194336,0.35147133469581604
1696962068129985500,4.401985595703125,0.8979578018188477,-0.2809406518936157,0.08222764730453491
1696962068139999000,4.4119990234375,-2.1633262634277344,0.15988755226135254,0.4621375799179077
1696962068150012400,4.422012451171875,3.3422298431396484,0.020021796226501465,-0.15474353730678558
1696962068160025900,4.43202587890625,-1.9750523567199707,0.06785750389099121,-0.12107199430465698
1696962068170039600,4.44203955078125,1.5461196899414062,-0.24208605289459229,-0.021601945161819458
1696962068180053000,4.452052978515625,-0.005259513854980469,-0.412051796913147,0.07902228832244873
1696962068190066400,4.46206640625,0.1659832000732422,0.11291897296905518,0.3884379267692566
1696962068200080000,4.472079833984375,1.3847236633300781,-0.10252439975738525,0.5264983773231506
1696962068210093300,4.48209326171875,-0.9463186264038086,-0.5214352607727051,0.13023141026496887
1696962068220107000,4.49210693359375,1.0489044189453125,-0.07180142402648926,-0.02588963508605957
1696962068230120400,4.502120361328125,-0.23410320281982422,-0.1605842113494873,-0.21855668723583221
1696962068240134000,4.5121337890625,-0.09967899322509766,0.1495528221130371,-0.3308863341808319
1696962068250147300,4.522147216796875,0.7611408233642578,-0.07733011245727539,0.07238563895225525
1696962068260160800,4.532160888671875,0.1001119613647461,-0.10481691360473633,-0.0079764723777771
1696962068270174500,4.542174560546875,-0.535614013671875,0.15728724002838135,0.06327122449874878
1696962068280188000,4.55218798828125,1.24371337890625,0.05960404872894287,0.01482093334197998
1696962068290201300,4.562201416015625,-2.3669261932373047,0.36453092098236084,0.23976802825927734
1696962068300214800,4.57221484375,1.72430419921875,-0.08444774150848389,-0.17510363459587097
1696962068310228200,4.582228271484375,-1.9443116188049316,0.14408695697784424,0.23648017644882202
1696962068320241700,4.59224169921875,0.6688165664672852,-0.033104896545410156,0.0684916079044342
1696962068330255400,4.60225537109375,0.17586326599121094,-0.09070920944213867,-0.3484538495540619
1696962068340268800,4.612268798828125,-1.641042709350586,0.019879579544067383,-0.19317159056663513
1696962068350282200,4.6222822265625,0.657252311706543,0.15110480785369873,-0.2261253297328949
1696962068360295700,4.632295654296875,-0.09487628936767578,0.033172607421875,-0.2788596749305725
1696962068370309000,4.64230908203125,0.1779775619506836,-0.44618725776672363,0.05477288365364075
1696962068380322800,4.65232275390625,0.1965169906616211,0.14966070652008057,0.458117812871933
1696962068390336300,4.662336181640625,1.5103893280029297,0.13791513442993164,0.40108948945999146
1696962068400349700,4.672349609375,0.16839027404785156,0.09504294395446777,0.10997691750526428
1696962068410363100,4.682363037109375,0.9469432830810547,-0.31156182289123535,0.21525830030441284
1696962068420376600,4.69237646484375,0.8203849792480469,-0.1108325719833374,0.167533278465271
1696962068430390300,4.702390380859375,-0.4575653076171875,-0.5901566743850708,-0.11704200506210327
1696962068440403700,4.71240380859375,1.584120750427246,0.4442453384399414,-0.21687324345111847
1696962068450417200,4.722417236328125,0.3476886749267578,-0.08701729774475098,-0.23566100001335144
1696962068460430600,4.7324306640625,0.21289348602294922,-0.11376237869262695,0.5658334493637085
1696962068470444000,4.742444091796875,1.6320438385009766,-0.4286205768585205,-0.3629070520401001
1696962068480457700,4.752457763671875,-2.4624624252319336,0.3003922700881958,-0.29078221321105957
1696962068490471200,4.76247119140625,2.227055549621582,-0.5209388732910156,0.19906646013259888
1696962068500484600,4.772484619140625,-0.7406158447265625,-0.025960683822631836,-0.09174630045890808
1696962068510498000,4.782498046875,-0.5285024642944336,-0.2453681230545044,0.012913286685943604
1696962068520511500,4.792511474609375,-0.03438568115234375,0.2673969268798828,0.29670214653015137
1696962068530525200,4.802525146484375,0.5681486129760742,-0.29069530963897705,0.08217936754226685
1696962068540538600,4.81253857421875,-1.310943603515625,0.30329763889312744,0.2730834484100342
1696962068550552000,4.822552001953125,1.3590927124023438,-0.0517805814743042,0.014044255018234253
1696962068560565500,4.8325654296875,-1.463174819946289,-0.28379571437835693,-0.412705659866333
1696962068570579000,4.842578857421875,-0.3270072937011719,0.22019422054290771,-0.0835256278514862
1696962068580592600,4.852592529296875,-0.9036998748779297,-0.02557516098022461,0.016348838806152344
1696962068590606000,4.862606201171875,-0.06999588012695312,0.3337777853012085,0.31733644008636475
1696962068600619500,4.87261962890625,0.41814231872558594,-0.09689855575561523,0.2547713816165924
1696962068610633000,4.882633056640625,-1.4992294311523438,-0.42315006256103516,0.23841166496276855
1696962068620646400,4.892646484375,1.3812541961669922,0.396687388420105,0.15251943469047546
1696962068630659800,4.902659912109375,-0.47574615478515625,0.121390700340271,0.015547513961791992
1696962068640673500,4.912673583984375,0.08393669128417969,-0.0504148006439209,-0.055406153202056885
1696962068650687000,4.92268701171875,0.1798563003540039,-0.09394776821136475,-0.27781254053115845
1696962068660700400,4.932700439453125,-0.45183467864990234,0.24458813667297363,0.032928138971328735
1696962068670713900,4.9427138671875,0.7347698211669922,-0.5953755378723145,0.04411238431930542
1696962068680727300,4.952727294921875,-0.47618961334228516,-0.052864789962768555,0.43866416811943054
1696962068690741000,4.962740966796875,0.29920387268066406,0.4428708553314209,-0.29430171847343445
1696962068700754400,4.97275439453125,1.1155643463134766,-0.31644415855407715,0.06713321805000305
1696962068710767900,4.982767822265625,-1.3620882034301758,-0.4166494607925415,-0.005172044038772583
1696962068720781300,4.99278125,2.114865303039551,-0.26150596141815186,-0.366282194852829
1696962068730794800,5.002794677734375,-0.7423629760742188,-0.0022519826889038086,-0.29055488109588623
1696962068740808400,5.012808349609375,1.7869377136230469,0.018364310264587402,0.28115010261535645
1696962068750822000,5.02282177734375,0.5313329696655273,-0.34372949600219727,0.18071484565734863
1696962068760835300,5.03283544921875,0.2572183609008789,0.4821726083755493,0.4677368402481079
1696962068770848800,5.042848876953125,1.3321914672851562,-0.25409889221191406,0.3594578802585602
1696962068780862200,5.0528623046875,-0.22420787811279297,0.14657437801361084,0.494038850069046
1696962068790876000,5.0628759765625,0.9662761688232422,-0.1276092529296875,-0.06555315852165222
1696962068800889300,5.072889404296875,-1.152918815612793,0.15629088878631592,0.10354375839233398
1696962068810902800,5.08290283203125,0.6608505249023438,-0.1339350938796997,-0.007365405559539795
1696962068820916200,5.092916259765625,-0.3631582260131836,0.3830082416534424,-0.2658156454563141
1696962068830929700,5.1029296875,-1.1844196319580078,-0.8299852013587952,-0.06049731373786926
1696962068840943000,5.112943115234375,-0.12517452239990234,0.24520742893218994,-0.3579866886138916
1696962068850956500,5.12295654296875,-1.0234107971191406,0.4650019407272339,-0.7528038620948792
1696962068860970000,5.132969970703125,0.39383888244628906,-0.3005152940750122,-0.3631340563297272
1696962068870983400,5.1429833984375,-1.0740995407104492,-0.6496016979217529,-0.3978673219680786
1696962068880996900,5.152996826171875,-0.1252765655517578,0.2612196207046509,-0.46489417552948
1696962068891010300,5.16301025390625,-0.30155372619628906,-0.19419002532958984,0.06752955913543701
1696962068901023700,5.173023681640625,1.0707015991210938,-0.28318464756011963,0.017127782106399536
1696962068911037200,5.183037109375,-1.225473403930664,0.17792224884033203,0.29316186904907227
1696962068921050600,5.193050537109375,0.545257568359375,0.1829155683517456,0.13723519444465637
1696962068931064000,5.20306396484375,0.4773588180541992,0.04964637756347656,-0.2243204116821289
1696962068941077500,5.213077392578125,-0.44173717498779297,-0.6400610208511353,-0.19662804901599884
1696962068951091000,5.223091064453125,0.7111902236938477,0.2213045358657837,-0.039387911558151245
1696962068961104400,5.2331044921875,0.1262655258178711,-0.25688064098358154,-0.10880117118358612
1696962068971117800,5.243117919921875,-0.26605796813964844,0.4622286558151245,0.2865467965602875
1696962068981131300,5.25313134765625,0.9483127593994141,-0.503174901008606,0.2578432261943817
1696962068991144700,5.263144775390625,-1.5008268356323242,-0.44097399711608887,0.06312295794487
1696962069001158100,5.273158203125,1.1644668579101562,0.08015978336334229,0.37076497077941895
1696962069011171600,5.283171630859375,0.908473014831543,-0.09575331211090088,-0.27877360582351685
1696962069021185000,5.29318505859375,-0.7140655517578125,-0.34165966510772705,0.2835928499698639
1696962069031198500,5.303198486328125,2.87186336517334,-0.2211529016494751,0.4233916699886322
1696962069041212000,5.3132119140625,-0.43735313415527344,-0.3103048801422119,0.18860086798667908
1696962069051225300,5.323225341796875,1.3746232986450195,0.10465109348297119,0.42649751901626587
1696962069061238800,5.33323876953125,0.13875770568847656,-0.12576520442962646,0.6145169734954834
1696962069071252200,5.343252197265625,1.0411005020141602,-0.4285796880722046,-0.2602432072162628
1696962069081265700,5.353265625,-0.04560661315917969,-0.4248164892196655,-0.7448417544364929
1696962069091279000,5.363279052734375,-1.0634231567382812,0.12702572345733643,0.3190098702907562
1696962069101292500,5.37329248046875,3.2166099548339844,-0.5545456409454346,-0.1610330045223236
1696962069111306000,5.383305908203125,-3.9110522270202637,-0.4664125442504883,-0.008320838212966919
1696962069121319400,5.3933193359375,2.845902442932129,-0.17705142498016357,-0.2326633334159851
1696962069131332900,5.403332763671875,-0.5383281707763672,0.40767407417297363,0.2722373604774475
1696962069141346300,5.41334619140625,-0.46103954315185547,-0.8029124736785889,-0.5261608958244324
1696962069151359700,5.42335986328125,1.352036476135254,0.24469518661499023,-0.1570778638124466
1696962069161373200,5.433373291015625,0.6037206649780273,-0.05087435245513916,0.3544835150241852
1696962069171386600,5.44338671875,-1.1705360412597656,-0.6409132480621338,0.9851312637329102
1696962069181400000,5.453400146484375,2.90860652923584,-0.03280162811279297,0.1978757083415985
1696962069191413500,5.46341357421875,-2.8610501289367676,0.7601368427276611,-0.3914518356323242
1696962069201427000,5.473427001953125,0.24677181243896484,-0.4715029001235962,0.7352887392044067
1696962069211440400,5.4834404296875,-1.0957221984863281,0.2887500524520874,-0.0677591860294342
1696962069221454000,5.4934541015625,-3.913297653198242,0.07735419273376465,-0.8840577602386475
1696962069231467500,5.503467529296875,-1.3229265213012695,0.622112512588501,-1.1194907426834106
1696962069241481000,5.51348095703125,-3.0113697052001953,-0.3055466413497925,-0.8290911912918091
1696962069251494400,5.523494384765625,-1.7092065811157227,-0.4193159341812134,-0.395813524723053
1696962069261507800,5.5335078125,0.10135269165039062,-0.5257230997085571,-0.15956827998161316
1696962069271521500,5.543521484375,0.3492431640625,-0.0373842716217041,0.19952937960624695
1696962069281535000,5.553534912109375,0.5967187881469727,0.3750321865081787,-0.11637730896472931
1696962069291548400,5.56354833984375,-2.7838759422302246,0.2644613981246948,0.8473025560379028
1696962069301561900,5.573561767578125,0.3236656188964844,-0.5843182802200317,0.03110957145690918
1696962069311575300,5.5835751953125,-0.42800140380859375,-0.29180431365966797,0.18068096041679382
1696962069321589000,5.593589111328125,2.621333122253418,-0.8537089824676514,0.3097524642944336
1696962069331602400,5.6036025390625,0.13437557220458984,-0.019436120986938477,0.004405766725540161
1696962069341615900,5.613615966796875,0.7688837051391602,0.24443292617797852,-0.29400548338890076
1696962069351629300,5.62362939453125,0.059528350830078125,-0.07930684089660645,0.048878252506256104
1696962069361642800,5.633642822265625,-0.46681785583496094,-0.8918952941894531,-0.18057070672512054
1696962069371656200,5.64365625,-1.0633296966552734,-0.64328932762146,-0.261262446641922
1696962069381670000,5.653669921875,2.241243362426758,-0.19801855087280273,0.05687585473060608
1696962069391683300,5.663683349609375,0.2671518325805664,-0.3724794387817383,0.27315494418144226
1696962069401696800,5.67369677734375,-0.6754236221313477,-0.6586607694625854,0.34749332070350647
1696962069411710200,5.683710205078125,2.1552915573120117,0.2565114498138428,0.12328675389289856
1696962069421723600,5.6937236328125,0.0283966064453125,-0.35419249534606934,-0.3646446466445923
1696962069431737300,5.7037373046875,-1.061558723449707,-0.04292702674865723,0.5902761220932007
1696962069441750800,5.713750732421875,3.7723751068115234,-0.5724506378173828,-0.06588050723075867
1696962069451764200,5.72376416015625,-1.2353324890136719,0.3518017530441284,-0.009801268577575684
1696962069461777700,5.733777587890625,1.1041021347045898,-0.46551406383514404,-0.06856873631477356
1696962069471791000,5.743791015625,0.7430524826049805,-0.18465936183929443,-0.050701141357421875
1696962069481804800,5.7538046875,0.4112110137939453,-0.10052871704101562,-0.2476002424955368
1696962069491818200,5.763818359375,-0.25398921966552734,-0.3442416191101074,0.023190855979919434
1696962069501831700,5.773831787109375,0.3245077133178711,-0.03864622116088867,0.25687143206596375
1696962069511845000,5.78384521484375,2.8517112731933594,-0.35402488708496094,-0.26743659377098083
1696962069521858600,5.793858642578125,-2.6317267417907715,-0.6374999284744263,-0.17969822883605957
1696962069531872300,5.803872314453125,0.5997905731201172,-0.18831801414489746,-0.5474901795387268
1696962069541885700,5.8138857421875,0.8950700759887695,0.13418686389923096,0.2667903006076813
1696962069551899100,5.823899169921875,-0.19219589233398438,-0.4510685205459595,-0.1959851235151291
1696962069561912600,5.83391259765625,-1.749887466430664,-0.38077080249786377,-0.13885731995105743
1696962069571926000,5.843926025390625,2.149001121520996,0.705581784248352,1.28883957862854
1696962069581939700,5.853939697265625,0.8103618621826172,-0.4301670789718628,0.8577042818069458
1696962069591953200,5.863953125,-1.8304777145385742,0.09706485271453857,0.09257054328918457
1696962069601966600,5.873966552734375,1.0361137390136719,-0.7009081840515137,0.7717872858047485
1696962069611980000,5.88397998046875,-1.2221784591674805,0.016497135162353516,0.7405696511268616
1696962069621993500,5.893993408203125,0.44756603240966797,-0.07610058784484863,-0.37542015314102173
1696962069632007200,5.904007080078125,-1.6416330337524414,-0.797777533531189,-0.7270112037658691
1696962069642020600,5.9140205078125,-1.5998048782348633,-1.5832325220108032,-0.2079014778137207
1696962069652034000,5.924033935546875,-0.5916824340820312,-0.5149611234664917,-0.7293946743011475
1696962069662047500,5.934047607421875,-2.4446139335632324,0.5406721830368042,-0.4213225543498993
1696962069672061000,5.94406103515625,3.315688133239746,-0.15980803966522217,0.12518304586410522
1696962069682074400,5.954074462890625,-1.069509506225586,-0.824134886264801,0.199354887008667
1696962069692088000,5.964088134765625,-0.6033220291137695,-0.20450890064239502,-0.04201444983482361
1696962069702101500,5.9741015625,0.7175312042236328,0.0034132003784179688,0.11959800124168396
1696962069712115000,5.984114990234375,-0.07729339599609375,-0.4101454019546509,0.018906861543655396
1696962069722128400,5.99412841796875,-0.09596633911132812,-0.12887752056121826,-0.29827842116355896
1696962069732141800,6.004141845703125,0.2772531509399414,0.5866587162017822,-0.03106030821800232
1696962069742155500,6.014155517578125,2.2694997787475586,-0.9872631430625916,0.2773270308971405
1696962069752169000,6.0241689453125,-0.06284618377685547,-0.8484439849853516,-0.5050780177116394
1696962069762182400,6.034182373046875,-1.0711088180541992,-0.13817143440246582,-0.552674412727356
1696962069772195800,6.04419580078125,2.14821720123291,-0.26494157314300537,-0.3528074026107788
1696962069782209300,6.054209228515625,-0.48958683013916016,-0.25598621368408203,-0.030223101377487183
1696962069792223000,6.064222900390625,0.14249610900878906,-0.4694082736968994,0.05203002691268921
1696962069802236400,6.074236328125,1.342148780822754,-0.02331852912902832,0.11852112412452698
1696962069812249900,6.084249755859375,0.6654767990112305,-0.15118122100830078,-0.018624693155288696
1696962069822263300,6.09426318359375,-1.7107582092285156,-0.5327092409133911,-0.3365907669067383
1696962069832276700,6.10427685546875,-0.005188941955566406,-0.009058952331542969,0.15782469511032104
1696962069842290200,6.114290283203125,1.1949901580810547,0.06699645519256592,0.22271624207496643
1696962069852303600,6.1243037109375,-1.3166027069091797,-0.2413090467453003,0.30545487999916077
1696962069862317000,6.134317138671875,1.4775152206420898,-0.1010051965713501,0.5477445125579834
1696962069872330500,6.14433056640625,0.44209766387939453,0.19998228549957275,0.7145432233810425
1696962069882344000,6.154343994140625,0.3548288345336914,-0.24447846412658691,0.22754180431365967
1696962069892357400,6.164357421875,-0.6398801803588867,-0.5047506093978882,0.12465232610702515
1696962069902370800,6.174370849609375,0.2887992858886719,-0.1825176477432251,0.754030704498291
1696962069912384300,6.18438427734375,0.44571971893310547,0.11323130130767822,0.4794880449771881
1696962069922397700,6.194397705078125,-0.11937332153320312,0.704035758972168,-0.7200839519500732
1696962069932411100,6.2044111328125,-1.3042612075805664,-0.6871885061264038,0.023646444082260132
1696962069942424600,6.214424560546875,0.2521543502807617,-0.3310704231262207,0.29887333512306213
1696962069952438000,6.22443798828125,-1.1678266525268555,0.08452939987182617,-0.7266064882278442
1696962069962451500,6.234451416015625,-1.3131256103515625,-0.004012346267700195,-0.23792925477027893
1696962069972465000,6.24446484375,1.1562166213989258,-0.5188474655151367,0.7550872564315796
1696962069982478300,6.254478271484375,-1.1307201385498047,-0.24260938167572021,0.7278933525085449
1696962069992491800,6.26449169921875,-0.6312532424926758,0.18209421634674072,0.5582737326622009
1696962070002505200,6.274505126953125,0.8374528884887695,-0.17211472988128662,0.5958980917930603
1696962070012518700,6.2845185546875,-0.23991012573242188,-0.2587522268295288,-0.10045003890991211
1696962070022532000,6.294531982421875,-1.6206226348876953,-0.31772541999816895,0.34673887491226196
1696962070032545500,6.304545654296875,2.765411376953125,-0.018804430961608887,-0.21936920285224915
1696962070042559000,6.31455908203125,-2.6698508262634277,-0.1482861042022705,0.08258196711540222
1696962070052572400,6.324572509765625,0.6095781326293945,0.23321843147277832,-0.40238016843795776
1696962070062585900,6.3345859375,-1.2120952606201172,-0.8578803539276123,-0.033688127994537354
1696962070072599300,6.344599365234375,-0.24920082092285156,0.03581094741821289,-0.031617969274520874
1696962070082612700,6.35461279296875,2.1032514572143555,-0.3987222909927368,-0.1580677330493927
1696962070092626200,6.364626220703125,-2.7859997749328613,-0.32975268363952637,0.16134929656982422
1696962070102639600,6.3746396484375,2.7880020141601562,-0.3570176362991333,0.46877431869506836
1696962070112653000,6.384653076171875,1.051774024963379,0.1246938705444336,0.11868119239807129
1696962070122666500,6.39466650390625,-2.0717248916625977,-0.14873576164245605,0.4803345799446106
1696962070132679700,6.4046796875,3.342949867248535,-0.7149108648300171,0.09378734230995178
1696962070142693000,6.414693115234375,-0.8703145980834961,-0.22600150108337402,0.38425323367118835
1696962070152706600,6.42470654296875,1.7502527236938477,-0.0146559476852417,-0.058514028787612915
1696962070162720000,6.434719970703125,-0.22734832763671875,0.20562982559204102,0.07985496520996094
1696962070172733400,6.4447333984375,1.2541799545288086,-0.18607711791992188,0.21171587705612183
1696962070182747000,6.454746826171875,-0.11028480529785156,-0.056886911392211914,0.48071929812431335
1696962070192760600,6.464760498046875,-1.0568952560424805,-0.3230574131011963,0.18758511543273926
1696962070202774000,6.47477392578125,1.3017597198486328,0.16920161247253418,0.22312480211257935
1696962070212787500,6.484787353515625,0.013027191162109375,-0.19830000400543213,0.3477601110935211
1696962070222801000,6.49480078125,-1.6501502990722656,-0.47480499744415283,-0.18265491724014282
1696962070232814300,6.504814453125,0.6952600479125977,-0.12938261032104492,0.25948989391326904
1696962070242828000,6.514828125,0.6413898468017578,-0.42944276332855225,0.16816407442092896
1696962070252841500,6.524841552734375,-2.304239273071289,-0.2056598663330078,0.35099807381629944
1696962070262855000,6.53485498046875,0.9510478973388672,-0.5665342807769775,0.19682011008262634
1696962070272868400,6.544868408203125,-0.848048210144043,-0.012887120246887207,0.29787954688072205
1696962070282881800,6.5548818359375,-0.009703636169433594,-0.2011502981185913,0.6985864639282227
1696962070292895500,6.5648955078125,0.7164688110351562,-0.019014716148376465,-0.18158741295337677
1696962070302909000,6.574908935546875,-1.0391836166381836,0.062322378158569336,-0.24871355295181274
1696962070312922400,6.58492236328125,1.2810325622558594,-0.7324281334877014,0.42625683546066284
1696962070322935800,6.594935791015625,-2.033623695373535,-0.003822803497314453,-0.32777437567710876
1696962070332949200,6.60494921875,0.48915767669677734,-0.7077457904815674,-0.1225598156452179
1696962070342963000,6.614962890625,0.8853187561035156,0.22953355312347412,-0.06219589710235596
1696962070352976400,6.624976318359375,-0.6511850357055664,-0.8617112040519714,-0.08473214507102966
1696962070362989800,6.63498974609375,0.6218051910400391,-0.2725992202758789,0.04313504695892334
1696962070373003300,6.645003173828125,0.6347255706787109,0.23035144805908203,0.3686331510543823
1696962070383016700,6.6550166015625,0.41356754302978516,-0.5316336154937744,0.19359111785888672
1696962070393030400,6.665030517578125,-0.8108377456665039,-0.3439444303512573,0.005741983652114868
1696962070403043800,6.6750439453125,2.3118371963500977,-0.050183653831481934,0.5335572957992554
1696962070413057300,6.685057373046875,-0.015883445739746094,-0.27112674713134766,-0.184626966714859
1696962070423070700,6.69507080078125,-0.7902374267578125,-0.5396417379379272,0.013458669185638428
1696962070433084200,6.705084228515625,1.7593088150024414,-0.4890941381454468,0.22818279266357422
1696962070443097600,6.71509765625,-0.5339508056640625,0.6287226676940918,0.23526227474212646
1696962070453111300,6.725111328125,1.1402320861816406,-0.4499804973602295,0.024281710386276245
1696962070463124700,6.735124755859375,-0.9412317276000977,-0.856875479221344,0.2908003330230713
1696962070473138200,6.74513818359375,0.9729528427124023,0.25684380531311035,0.6095662713050842
1696962070483151600,6.755151611328125,0.980250358581543,0.19206976890563965,-0.007539540529251099
1696962070493165000,6.7651650390625,-1.3013296127319336,-0.8121188282966614,-0.1442916989326477
1696962070503178800,6.7751787109375,0.7997283935546875,0.08693218231201172,0.26775288581848145
1696962070513192200,6.785192138671875,0.08184814453125,-0.18072903156280518,0.29678013920783997
1696962070523205600,6.79520556640625,-1.9833149909973145,-0.11850595474243164,-0.10146114230155945
1696962070533219000,6.805218994140625,2.3088245391845703,-0.4479116201400757,0.12978139519691467
1696962070543232500,6.815232421875,-2.6235342025756836,0.22472679615020752,0.7112273573875427
1696962070553246200,6.82524609375,1.1676445007324219,0.005915522575378418,-0.1809387505054474
1696962070563259600,6.835259765625,-1.3725032806396484,-0.5766637325286865,-0.06452500820159912
1696962070573273000,6.845273193359375,0.28923702239990234,0.06727910041809082,0.39435601234436035
1696962070583286500,6.85528662109375,-0.8149986267089844,-0.20471155643463135,0.05459111928939819
1696962070593300000,6.865300048828125,-1.343703269958496,-0.4595264196395874,0.1830018162727356
1696962070603313700,6.875313720703125,2.506899833679199,-0.5607869625091553,-0.06952381134033203
1696962070613327000,6.8853271484375,-3.515319347381592,0.424538254737854,0.30879640579223633
1696962070623340500,6.895340576171875,2.5091657638549805,0.05476582050323486,-0.1587860882282257
1696962070633354000,6.90535400390625,-0.9941177368164062,-0.754290759563446,0.23785030841827393
1696962070643367400,6.915367431640625,0.6420068740844727,-0.10909914970397949,-0.08910956978797913
1696962070653381000,6.925381103515625,-0.3433713912963867,0.23346030712127686,0.05011698603630066
1696962070663394600,6.93539453125,-0.03246307373046875,0.5067650079727173,0.45415401458740234
1696962070673408000,6.945407958984375,2.3384103775024414,-1.0666998624801636,-0.0372927188873291
1696962070683421400,6.95542138671875,-3.6410117149353027,-0.08490347862243652,0.22864821553230286
1696962070693435000,6.965434814453125,3.68868350982666,-0.10203790664672852,0.02919897437095642
1696962070703448600,6.975448486328125,-0.47710609436035156,-0.31787121295928955,-0.08533909916877747
1696962070713462000,6.9854619140625,-1.1026315689086914,-0.23795223236083984,-0.19310924410820007
1696962070723475500,6.995475341796875,1.2279901504516602,-0.22751200199127197,0.17511209845542908
1696962070733489000,7.005489013671875,1.1291351318359375,-0.03801894187927246,0.21145305037498474
1696962070743502300,7.01550244140625,0.8831892013549805,-0.4023672342300415,-0.26115643978118896
1696962070753515800,7.025515869140625,-1.6758089065551758,-0.025413036346435547,0.6268938779830933
1696962070763529500,7.035529541015625,3.322477340698242,-0.23226559162139893,0.10622522234916687
1696962070773543000,7.04554296875,-1.8799777030944824,-0.2563164234161377,-0.056501805782318115
1696962070783556400,7.055556396484375,0.33719539642333984,0.00669550895690918,0.30134308338165283
1696962070793569800,7.06556982421875,1.8180656433105469,-0.1833021640777588,-0.06890946626663208
1696962070803583200,7.075583251953125,-0.6616182327270508,-0.43387770652770996,-0.13276627659797668
1696962070813597000,7.085596923828125,-0.449493408203125,-0.3755958080291748,0.0026164650917053223
1696962070823610400,7.0956103515625,-0.2283649444580078,-0.21867918968200684,0.04118746519088745
1696962070833623800,7.105623779296875,-0.34688854217529297,0.2052706480026245,-0.04824531078338623
1696962070843637200,7.11563720703125,-0.5703372955322266,-0.5562635660171509,-0.0800817608833313
1696962070853650700,7.125650634765625,-1.1086511611938477,-0.06924045085906982,0.11918878555297852
1696962070863664400,7.135664306640625,0.9157524108886719,-0.053879618644714355,0.3870998024940491
1696962070873677800,7.145677734375,-0.9881200790405273,-0.4025336503982544,-0.3150733709335327
1696962070883691300,7.155691162109375,-1.2341194152832031,0.09748756885528564,0.27336740493774414
1696962070893704700,7.16570458984375,1.4739141464233398,-0.17555391788482666,0.16750210523605347
1696962070903718100,7.17571826171875,-2.9545321464538574,0.1457589864730835,0.20780402421951294
1696962070913731800,7.18573193359375,1.9216699600219727,-0.15662693977355957,-0.11262869834899902
1696962070923745300,7.195745361328125,-0.7630910873413086,-0.09756696224212646,0.8120582699775696
1696962070933758700,7.2057587890625,1.0011558532714844,-0.0923541784286499,0.2036980390548706
1696962070943772200,7.215772216796875,-0.6494112014770508,-0.004275083541870117,0.23019492626190186
1696962070953785600,7.22578564453125,-0.17082691192626953,-0.16122770309448242,0.5939856171607971
1696962070963799300,7.23579931640625,1.774937629699707,-0.36721575260162354,0.0920785665512085
1696962070973812700,7.245812744140625,-2.851083278656006,0.17835688591003418,0.49916571378707886
1696962070983826200,7.255826171875,3.2726173400878906,-0.5548065900802612,0.11395132541656494
1696962070993839600,7.265839599609375,-1.4998970031738281,-0.07463371753692627,0.16362154483795166
1696962071003853000,7.27585302734375,1.5808095932006836,-0.6454770565032959,-0.010340273380279541
1696962071013866800,7.28586669921875,-1.0366954803466797,0.033690571784973145,0.23023509979248047
1696962071023880200,7.295880126953125,1.2635412216186523,0.12430894374847412,0.18222308158874512
1696962071033893600,7.3058935546875,0.8646001815795898,-0.7544885277748108,0.23566150665283203
1696962071043907000,7.315906982421875,-2.105882167816162,0.06710553169250488,0.6325070858001709
1696962071053920500,7.32592041015625,4.713868141174316,-0.4165853261947632,-0.23074442148208618
1696962071063934000,7.335933837890625,-3.9659743309020996,-0.049956440925598145,0.14768505096435547
1696962071073947600,7.34594775390625,2.394063949584961,-0.40793120861053467,-0.3865513205528259
1696962071083961000,7.355961181640625,-1.6250991821289062,-0.14058291912078857,0.30746620893478394
1696962071093974500,7.365974609375,1.9766607284545898,-0.02665126323699951,-0.1575818657875061
1696962071103988000,7.375988037109375,-1.6161384582519531,-0.8397603034973145,0.0331844687461853
1696962071114001400,7.38600146484375,-0.7908143997192383,0.2875939607620239,-0.11126387119293213
1696962071124015000,7.39601513671875,1.2714643478393555,-0.16242313385009766,0.06993013620376587
1696962071134028500,7.406028564453125,-2.157973289489746,-0.3355448246002197,-0.2333509922027588
1696962071144042000,7.4160419921875,-0.0022735595703125,-0.09687983989715576,0.13223683834075928
1696962071154055400,7.426055419921875,1.5799179077148438,-0.07655894756317139,-0.13920998573303223
1696962071164068900,7.43606884765625,-2.4237966537475586,-0.3682519197463989,0.015095531940460205
1696962071174082600,7.44608251953125,1.2761116027832031,-0.3547416925430298,0.005011618137359619
1696962071184096000,7.456095947265625,-1.273712158203125,0.40675652027130127,0.604806125164032
1696962071194109400,7.466109375,2.3081836700439453,-0.3523530960083008,0.2789982557296753
1696962071204123000,7.476122802734375,-1.7733111381530762,-0.47422361373901367,0.05119878053665161
1696962071214136300,7.48613623046875,1.0830631256103516,0.12106621265411377,0.6660301685333252
1696962071224150000,7.49614990234375,2.256558418273926,0.09845280647277832,0.15347164869308472
1696962071234163500,7.50616357421875,-2.9346489906311035,-0.09343445301055908,0.16576015949249268
1696962071244177000,7.516177001953125,2.7064971923828125,-0.7014966011047363,0.23670190572738647
1696962071254190300,7.5261904296875,-1.3954477310180664,0.28037750720977783,0.30411410331726074
1696962071264203800,7.536203857421875,1.852090835571289,-0.8607975840568542,-0.37185463309288025
1696962071274217500,7.546217529296875,-2.3429603576660156,-0.033783793449401855,0.025159716606140137
1696962071284231000,7.55623095703125,2.6225595474243164,-0.22038376331329346,0.27707183361053467
1696962071294244400,7.566244384765625,-0.1118173599243164,-0.4784191846847534,-0.28089672327041626
1696962071304257800,7.5762578125,-1.8325300216674805,-0.3562115430831909,-0.005185306072235107
1696962071314271200,7.586271240234375,2.1914796829223633,-0.1039576530456543,0.5520815253257751
1696962071324285000,7.596284912109375,0.3414764404296875,-0.22165000438690186,0.13362884521484375
1696962071334298400,7.60629833984375,-1.9054574966430664,-0.06755614280700684,0.27946752309799194
1696962071344311800,7.616311767578125,2.8971128463745117,-0.06633448600769043,0.2724757790565491
1696962071354325200,7.6263251953125,-1.6210298538208008,0.15746760368347168,-0.04542607069015503
1696962071364338700,7.636338623046875,-0.15519142150878906,-0.2825186252593994,-0.3595525622367859
1696962071374352100,7.64635205078125,-0.8616952896118164,-0.5638045072555542,-0.16526228189468384
1696962071384365800,7.65636572265625,-0.023717880249023438,0.03926694393157959,0.0031569600105285645
1696962071394379300,7.666379150390625,-0.33388328552246094,-0.4391365051269531,-0.5245411396026611
1696962071404392700,7.676392822265625,-1.829275131225586,0.05363643169403076,-0.25648820400238037
1696962071414406100,7.68640625,1.8648805618286133,-0.11046493053436279,0.10635924339294434
1696962071424419600,7.696419677734375,-2.1395926475524902,-0.3080030679702759,0.015393376350402832
1696962071434433300,7.706433349609375,0.46025848388671875,-0.5382125377655029,-0.4932694137096405
1696962071444446700,7.71644677734375,-0.09012031555175781,0.09610974788665771,-0.07288652658462524
1696962071454460200,7.726460205078125,0.3545265197753906,0.020653367042541504,0.15458685159683228
1696962071464473600,7.7364736328125,-0.4110755920410156,-0.4485762119293213,-0.7362566590309143
1696962071474487000,7.746487060546875,-0.9308700561523438,-0.10764694213867188,0.05143749713897705
1696962071484500700,7.756500732421875,2.6172828674316406,0.02392268180847168,-0.045507848262786865
1696962071494514200,7.76651416015625,-2.0434250831604004,-0.18263483047485352,-0.13991349935531616
1696962071504527600,7.776527587890625,0.9333734512329102,-0.0770871639251709,0.459205687046051
1696962071514541000,7.786541015625,1.7872238159179688,0.024709463119506836,0.336404025554657
1696962071524554500,7.796554443359375,-1.4532747268676758,-0.04599595069885254,-0.16065764427185059
1696962071534568200,7.806568115234375,2.0534257888793945,-0.5065329074859619,-0.17222225666046143
1696962071544581600,7.81658154296875,-1.2157344818115234,0.030392169952392578,0.285832941532135
1696962071554595000,7.826594970703125,2.184828758239746,-0.437070369720459,-0.34130460023880005
1696962071564608500,7.8366083984375,-2.3890228271484375,-0.2524738311767578,0.2519565224647522
1696962071574622000,7.8466220703125,3.370096206665039,0.31870031356811523,0.5006805658340454
1696962071584635600,7.8566357421875,0.40901660919189453,-0.08784401416778564,0.0016750693321228027
1696962071594649000,7.866649169921875,-2.292764663696289,-0.5159314870834351,0.17247885465621948
1696962071604662500,7.87666259765625,3.2325220108032227,-0.037394165992736816,0.21010646224021912
1696962071614676000,7.886676025390625,-1.200510025024414,0.20657849311828613,-0.24713431298732758
1696962071624689400,7.896689453125,-0.9495725631713867,-0.5200836658477783,-0.1072210967540741
1696962071634702800,7.906702880859375,0.782862663269043,0.0245668888092041,0.0762929916381836
1696962071644716300,7.91671630859375,0.34107017517089844,0.10629427433013916,0.2216852605342865
1696962071654729700,7.926729736328125,-0.7446184158325195,-0.023366332054138184,-0.3896658420562744
1696962071664743200,7.9367431640625,-0.7334995269775391,-0.4992157220840454,-0.19093364477157593
1696962071674756600,7.946756591796875,0.15717029571533203,-0.14844119548797607,-0.19075757265090942
1696962071684770000,7.95677001953125,-1.7451486587524414,-0.4317363500595093,-0.4899361729621887
1696962071694783500,7.966783447265625,-1.3493614196777344,0.21016466617584229,-0.36639806628227234
1696962071704797000,7.976796875,1.9420804977416992,-0.22634613513946533,-0.2128671109676361
1696962071714810400,7.986810302734375,-2.0482687950134277,-0.29790985584259033,-0.1288711428642273
1696962071724823800,7.99682373046875,0.7616891860961914,-0.3505479097366333,-0.24787744879722595
1696962071734837200,8.006837158203124,-0.1814403533935547,-0.09851670265197754,-0.08977136015892029
1696962071744850700,8.0168505859375,-0.8166484832763672,-0.05864119529724121,-0.21079781651496887
1696962071754864000,8.026864013671876,-0.24137306213378906,-0.26268720626831055,-0.6525712013244629
1696962071764877600,8.036877685546875,-0.03521919250488281,-0.2994980812072754,-0.05625557899475098
1696962071774891000,8.04689111328125,1.374643325805664,0.10854446887969971,0.17151054739952087
1696962071784904400,8.056904541015625,-0.04335784912109375,-0.4286733865737915,-0.8387858867645264
1696962071794918000,8.06691796875,-1.739816665649414,-0.13374710083007812,0.2916506230831146
1696962071804931300,8.076931396484374,3.3682146072387695,0.313870906829834,0.07535731792449951
1696962071814944800,8.08694482421875,-2.675384521484375,-0.16709649562835693,-0.21989887952804565
1696962071824958200,8.096958251953126,1.263230323791504,-0.4081038236618042,-0.20613420009613037
1696962071834971600,8.1069716796875,1.5811834335327148,-0.28244054317474365,-0.26240015029907227
1696962071844985000,8.116985107421876,-2.217651844024658,0.243749737739563,-0.43101951479911804
1696962071854998500,8.12699853515625,1.223897933959961,-0.6779818534851074,-0.2062377631664276
1696962071865012000,8.137011962890625,0.5280628204345703,0.24957025051116943,-0.30222058296203613
1696962071875025400,8.147025390625,-0.6485652923583984,-0.14319777488708496,0.3522109389305115
1696962071885038800,8.157038818359375,0.71466064453125,-0.33496737480163574,0.2798900902271271
1696962071895052300,8.16705224609375,0.3308296203613281,0.002246260643005371,0.19849291443824768
1696962071905065700,8.177065673828125,1.2044124603271484,0.420074462890625,-0.04707634449005127
1696962071915079200,8.1870791015625,-1.536768913269043,-0.8975767493247986,-0.19867783784866333
1696962071925092600,8.197092529296874,1.085479736328125,0.3619880676269531,0.3358263075351715
1696962071935106000,8.20710595703125,1.4080877304077148,-0.5515998601913452,-0.05908900499343872
1696962071945119500,8.217119384765626,-2.9109315872192383,0.03902864456176758,0.07831400632858276
1696962071955133000,8.2271328125,2.8974437713623047,0.0625532865524292,0.03749173879623413
1696962071965146400,8.237146484375,-1.0230426788330078,0.012411355972290039,0.06555712223052979
1696962071975159800,8.247159912109375,-1.556375503540039,-0.31136465072631836,0.0038011372089385986
1696962071985173500,8.257173583984375,1.6349449157714844,-0.019544899463653564,-0.27422642707824707
1696962071995187000,8.26718701171875,-1.646988868713379,-0.39028024673461914,0.6964620351791382
1696962072005200400,8.277200439453125,0.7315731048583984,0.01239234209060669,-0.13779446482658386
1696962072015213800,8.2872138671875,-1.0812349319458008,-0.47046780586242676,-0.42400798201560974
1696962072025227300,8.297227294921875,-0.12308406829833984,0.08554565906524658,-0.006181180477142334
1696962072035241000,8.307240966796876,-0.1271800994873047,-0.05338329076766968,-0.4672093689441681
1696962072045254400,8.31725439453125,-1.4128684997558594,-0.32589781284332275,-0.5616775751113892
1696962072055267800,8.327267822265625,1.639984130859375,-0.2743130922317505,-0.20481234788894653
1696962072065281300,8.33728125,-1.608748435974121,-0.05982774496078491,-0.241081103682518
1696962072075294700,8.347294677734375,0.6171665191650391,0.21153122186660767,-0.5039804577827454
1696962072085308400,8.357308349609376,1.0460796356201172,-0.16768211126327515,-0.010289758443832397
1696962072095321900,8.36732177734375,0.44170475006103516,-0.5366905927658081,0.2764407694339752
1696962072105335300,8.377335205078126,-0.8738193511962891,0.1403101086616516,0.22823560237884521
1696962072115348700,8.3873486328125,3.343341827392578,0.10230976343154907,0.07998931407928467
1696962072125362200,8.397362060546875,-2.107583999633789,-0.1910039782524109,-0.10748094320297241
1696962072135376000,8.4073759765625,0.9363298416137695,-0.13914084434509277,0.38371992111206055
1696962072145389300,8.417389404296875,2.0049819946289062,0.045361876487731934,0.23873063921928406
1696962072155402800,8.42740283203125,-1.4650182723999023,-0.2878236174583435,-0.20955878496170044
1696962072165416200,8.437416259765625,0.7369232177734375,-0.4684182405471802,0.09726113080978394
1696962072175429600,8.4474296875,-0.019911766052246094,0.5774125456809998,0.10398516058921814
1696962072185443000,8.457443115234375,0.5247631072998047,-0.14420080184936523,-0.11073261499404907
1696962072195457000,8.46745703125,-1.5550956726074219,-0.4674643874168396,-0.0714091956615448
1696962072205470700,8.477470703125,-0.18969440460205078,0.10754013061523438,0.19585832953453064
1696962072215484400,8.487484375,0.8146429061889648,0.28418999910354614,-0.5987801551818848
1696962072225497900,8.497497802734374,-3.010610580444336,-0.41247355937957764,-0.3421752154827118
1696962072235511300,8.50751123046875,0.8198299407958984,0.1176254153251648,0.0012778043746948242
1696962072245524700,8.517524658203126,-0.4913158416748047,-0.019696831703186035,-0.35748738050460815
1696962072255538200,8.5275380859375,-2.6694397926330566,-0.1553296446800232,-0.28805020451545715
1696962072265551600,8.537551513671875,1.0789499282836914,-0.28078770637512207,-0.2319171130657196
1696962072275565000,8.54756494140625,-1.5324792861938477,0.3663294315338135,0.12727254629135132
1696962072285578500,8.55757861328125,-0.7932224273681641,-0.16799747943878174,0.014470458030700684
1696962072295592000,8.567592041015626,0.11211299896240234,-0.3938843011856079,-0.6011778116226196
1696962072305605400,8.57760546875,-1.7614355087280273,0.4743579626083374,0.039280056953430176
1696962072315618800,8.587618896484376,0.08259773254394531,-0.2877523899078369,-0.512251615524292
1696962072325632300,8.59763232421875,-1.3464813232421875,0.08984875679016113,-0.5965316295623779
1696962072335645700,8.607645751953125,0.8214578628540039,-0.1899726390838623,0.12348312139511108
1696962072345659100,8.6176591796875,0.824437141418457,-0.001162111759185791,-0.13912582397460938
1696962072355672600,8.627672607421875,-0.30121517181396484,0.2212200164794922,0.18240267038345337
1696962072365686000,8.63768603515625,2.595759391784668,-0.5441912412643433,0.24626529216766357
1696962072375699500,8.647699462890625,-1.8648419380187988,-0.058502376079559326,0.43566203117370605
1696962072385713000,8.657712890625,2.984971046447754,-0.2862759232521057,0.16436225175857544
1696962072395726300,8.667726318359374,0.6935415267944336,0.12635725736618042,0.26421070098876953
1696962072405739800,8.67773974609375,-1.0338048934936523,0.11959421634674072,-0.5566855669021606
1696962072415753200,8.687753173828124,0.010407447814941406,-0.2457074522972107,0.369891881942749
1696962072425766700,8.6977666015625,2.0890769958496094,0.061266303062438965,-0.6564334630966187
1696962072435780000,8.707780029296876,-2.5514578819274902,-0.22360891103744507,-0.6314100027084351
1696962072445793500,8.71779345703125,0.8666009902954102,-0.3675868511199951,-0.291550874710083
1696962072455807000,8.727806884765625,1.7061853408813477,0.009754359722137451,-0.42603880167007446
1696962072465820400,8.7378203125,-2.5752310752868652,0.00792229175567627,-0.25898584723472595
1696962072475833900,8.747833740234375,2.707047462463379,0.06522989273071289,0.08004617691040039
1696962072485847300,8.757847412109374,-0.008648872375488281,-0.23149532079696655,0.2757946848869324
1696962072495860700,8.76786083984375,-0.7449474334716797,-0.12035983800888062,-0.019479453563690186
1696962072505874200,8.777874267578126,2.7217702865600586,0.1767139434814453,0.6470862030982971
1696962072515887600,8.7878876953125,1.4103374481201172,0.3521454930305481,0.12560325860977173
1696962072525901000,8.797901123046875,-0.614659309387207,-0.6621870994567871,-0.24760067462921143
1696962072535914500,8.80791455078125,0.5956287384033203,-0.4093778729438782,-0.1739751696586609
1696962072545928000,8.817927978515625,0.3699989318847656,0.6777000427246094,0.13004302978515625
1696962072555941400,8.82794140625,-0.08991146087646484,-0.7796975374221802,-0.36692601442337036
1696962072565954800,8.837954833984375,-0.500493049621582,-0.40264201164245605,-0.24086886644363403
1696962072575968300,8.84796826171875,1.6132946014404297,-0.4016494154930115,-0.1439557671546936
1696962072585981700,8.857981689453124,-2.4808831214904785,0.03342306613922119,0.04543864727020264
1696962072595995100,8.8679951171875,1.8639907836914062,0.1250077486038208,-0.5599517822265625
1696962072606008600,8.878008544921874,-0.23263263702392578,0.2438877820968628,-0.009046971797943115
1696962072616022000,8.88802197265625,-1.6418781280517578,-0.3550996780395508,0.2621570825576782
1696962072626035500,8.898035400390626,0.5701837539672852,-0.34784311056137085,-0.3602840304374695
1696962072636049200,8.908049072265625,-1.3040523529052734,0.4675467014312744,0.0035657882690429688
1696962072646062600,8.9180625,-1.075796127319336,0.016546308994293213,0.34198981523513794
1696962072656076000,8.928075927734374,0.7188320159912109,-0.06374967098236084,0.4190137982368469
1696962072666089500,8.93808935546875,0.3685750961303711,-0.06754982471466064,0.1930474042892456
1696962072676103000,8.94810302734375,-1.0851211547851562,-0.0818358063697815,0.20649105310440063
1696962072686116400,8.958116455078125,1.053635597229004,0.08600419759750366,-0.1312008500099182
1696962072696130000,8.968130126953126,0.04301929473876953,-0.20021027326583862,-0.24529320001602173
1696962072706143500,8.9781435546875,-1.4718561172485352,-0.30453187227249146,0.03382730484008789
1696962072716157000,8.988156982421875,2.015512466430664,-0.2326609492301941,-0.2631049156188965
1696962072726170400,8.99817041015625,-0.5357732772827148,0.26332736015319824,0.3007432222366333
1696962072736183800,9.008183837890625,0.20615673065185547,-0.9498380422592163,-0.11071580648422241
1696962072746197500,9.018197509765624,0.31597900390625,0.40898680686950684,0.08297741413116455
1696962072756211000,9.0282109375,1.5198230743408203,0.388033926486969,0.33175164461135864
1696962072766224400,9.038224365234376,-0.600550651550293,-0.7850154638290405,-0.030769526958465576
1696962072776237800,9.04823779296875,0.7243623733520508,0.849602222442627,0.003834843635559082
1696962072786251300,9.058251220703125,3.6622257232666016,0.12981748580932617,0.11785006523132324
1696962072796265000,9.068264892578124,-4.0311784744262695,-0.7932653427124023,-0.2808908224105835
1696962072806278400,9.0782783203125,3.1417980194091797,-0.09116411209106445,-0.2598724365234375
1696962072816291800,9.088291748046874,-1.1366348266601562,0.2033158540725708,-0.04238998889923096
1696962072826305300,9.09830517578125,-0.20302677154541016,-0.8006376624107361,-0.8186643719673157
1696962072836318700,9.108318603515626,3.053341865539551,-0.12233275175094604,-0.31781214475631714
1696962072846332400,9.11833251953125,-2.8363819122314453,0.18958520889282227,-0.1765601634979248
1696962072856345900,9.128345947265625,1.9113121032714844,-0.7706831097602844,-0.20368516445159912
1696962072866359300,9.138359375,1.1622505187988281,0.09537184238433838,-0.14870154857635498
1696962072876372700,9.148372802734375,-1.071671485900879,0.19655144214630127,0.22748398780822754
1696962072886386200,9.15838623046875,1.9466333389282227,-0.06352901458740234,0.04167604446411133
1696962072896400000,9.16839990234375,0.23204326629638672,-0.05394291877746582,0.34982991218566895
1696962072906413300,9.178413330078126,-0.7336025238037109,0.22655963897705078,0.3373556137084961
1696962072916426800,9.1884267578125,2.073594093322754,0.021128296852111816,0.0028603672981262207
1696962072926440200,9.198440185546875,-2.0739850997924805,0.25751638412475586,0.3720717430114746
1696962072936453600,9.20845361328125,1.6154050827026367,-0.2521512508392334,0.44998466968536377
1696962072946467300,9.21846728515625,0.2689971923828125,0.1314178705215454,-0.1842939257621765
1696962072956480800,9.228480712890626,-1.6669626235961914,0.0070296525955200195,0.41457992792129517
1696962072966494200,9.238494140625,0.4446983337402344,0.17660808563232422,-0.1405259370803833
1696962072976507600,9.248507568359376,-0.6507015228271484,0.11617600917816162,-0.20390158891677856
1696962072986521000,9.25852099609375,-0.45293140411376953,-0.492587685585022,-0.5433741211891174
1696962072996534500,9.268534423828125,-1.006093978881836,0.07649099826812744,0.07968324422836304
1696962073006548200,9.27854833984375,1.5914249420166016,-0.07673954963684082,-0.21692311763763428
1696962073016561700,9.288561767578125,-3.66379451751709,0.21316874027252197,0.15383708477020264
1696962073026575000,9.2985751953125,1.9452342987060547,-0.3470745086669922,-0.2554026246070862
1696962073036588500,9.308588623046875,-2.101172924041748,0.3244633674621582,0.15455132722854614
1696962073046602000,9.31860205078125,-0.7204084396362305,-0.25406408309936523,0.2835421562194824
1696962073056615700,9.32861572265625,0.7920932769775391,-0.44315850734710693,-0.37569767236709595
1696962073066629000,9.338629150390625,-1.8957509994506836,0.970671534538269,0.21373480558395386
1696962073076642600,9.348642578125,1.7742900848388672,-0.1535719633102417,0.23302501440048218
1696962073086656000,9.358656005859375,-1.637589454650879,-0.5532095432281494,-0.12873005867004395
1696962073096669400,9.36866943359375,-1.065237045288086,0.4705442190170288,-0.1339089274406433
1696962073106683100,9.37868310546875,1.1499385833740234,0.27328789234161377,-0.1258406639099121
1696962073116696600,9.388696533203126,-1.3333444595336914,-0.1852574348449707,-0.13476794958114624
1696962073126710000,9.3987099609375,0.4474916458129883,-0.16776204109191895,-0.08208739757537842
1696962073136723500,9.408723388671875,-1.4127702713012695,-0.3062882423400879,-0.31329381465911865
1696962073146737000,9.41873681640625,0.5162181854248047,0.5113440752029419,-0.3221563696861267
1696962073156750600,9.42875048828125,-0.4597358703613281,-0.4571162462234497,-0.06421160697937012
1696962073166764000,9.438763916015626,-1.0324468612670898,-0.2850304841995239,0.16989034414291382
1696962073176777500,9.448777587890625,1.4741792678833008,0.36643290519714355,-0.07331317663192749
1696962073186791000,9.458791015625,-0.7420673370361328,0.27929747104644775,0.2742435932159424
1696962073196804400,9.468804443359375,1.720285415649414,-0.16540229320526123,0.10836893320083618
1696962073206817800,9.47881787109375,-0.2097930908203125,-0.18701255321502686,-0.10895055532455444
1696962073216831200,9.488831298828124,-0.6398639678955078,0.18658721446990967,0.4541488289833069
1696962073226844700,9.4988447265625,2.6396026611328125,0.025758981704711914,0.2382427453994751
1696962073236858000,9.508858154296876,-0.9750204086303711,0.4260880947113037,0.29508137702941895
1696962073246871600,9.51887158203125,1.033651351928711,-0.9018451571464539,0.05031144618988037
1696962073256885000,9.528885009765625,1.093088150024414,0.8300278186798096,-0.195736825466156
1696962073266898400,9.5388984375,0.4544353485107422,-0.40281617641448975,-0.4900580644607544
1696962073276911900,9.548911865234375,-0.3595266342163086,-0.2502635717391968,0.008945643901824951
1696962073286925300,9.55892529296875,2.2839279174804688,0.19241511821746826,0.1469772458076477
1696962073296938800,9.568938720703125,-1.243795394897461,-0.13479459285736084,-0.18151551485061646
1696962073306952200,9.5789521484375,2.2804222106933594,-0.17813217639923096,0.2216784954071045
1696962073316965600,9.588965576171875,0.32566261291503906,-0.04157555103302002,0.03457987308502197
1696962073326979000,9.59897900390625,-1.4873428344726562,-0.40541839599609375,0.04958456754684448
1696962073336992500,9.608992431640624,3.1662702560424805,0.3160461187362671,0.2342175841331482
1696962073347006000,9.619005859375,-0.9754619598388672,-0.08637750148773193,-0.19131946563720703
1696962073357019400,9.629019287109376,-0.2281503677368164,-0.18283498287200928,-0.29588210582733154
1696962073367032800,9.63903271484375,1.960871696472168,0.33082544803619385,-0.8232012987136841
1696962073377046300,9.64904638671875,-3.4961509704589844,-0.487699031829834,-0.025851428508758545
1696962073387059700,9.659059814453125,1.5625829696655273,-0.2539334297180176,-0.19157707691192627
1696962073397073200,9.6690732421875,0.48439693450927734,0.26188576221466064,-0.6195693016052246
1696962073407086600,9.679086669921874,-3.092048168182373,-0.8256567716598511,-0.3878417909145355
1696962073417100000,9.68910009765625,1.6611957550048828,0.38117659091949463,-0.019539237022399902
1696962073427113500,9.699113525390626,-0.7274074554443359,-0.05661976337432861,-0.18785393238067627
1696962073437127000,9.709126953125,-2.264509677886963,-0.15487539768218994,0.202417254447937
1696962073447140000,9.71914013671875,2.395430564880371,-0.18413281440734863,-0.04073035717010498
1696962073457153500,9.729153564453124,-1.8728013038635254,0.05317878723144531,-0.3208160102367401
1696962073467167000,9.7391669921875,-0.4064626693725586,-0.31196194887161255,0.18027788400650024
1696962073477180400,9.749180419921874,0.3931312561035156,0.2955138683319092,0.2806273102760315
1696962073487193900,9.75919384765625,-1.6058845520019531,-0.16186654567718506,-0.11781316995620728
1696962073497207300,9.769207275390626,0.7492971420288086,-0.17533260583877563,0.055330872535705566
1696962073507220700,9.779220703125,-1.3551273345947266,-0.16795367002487183,-0.2207261323928833
1696962073517234200,9.789234130859375,0.3730630874633789,-0.0588078498840332,-0.21937888860702515
1696962073527247600,9.79924755859375,0.12398147583007812,-0.047547340393066406,0.23463666439056396
1696962073537261000,9.809260986328125,-0.14887619018554688,0.13114023208618164,0.2812318801879883
1696962073547274500,9.8192744140625,0.2959737777709961,-0.19678616523742676,-0.10216885805130005
1696962073557288000,9.829287841796875,0.5101795196533203,0.3118387460708618,0.0691676139831543
1696962073567301400,9.83930126953125,-0.5276060104370117,-0.6581478118896484,0.8837005496025085
1696962073577314800,9.849314697265624,0.949676513671875,0.22067159414291382,-0.452542781829834
1696962073587328300,9.859328369140625,-0.39490795135498047,-0.14493000507354736,-0.08349990844726562
1696962073597341700,9.869341796875,-0.12183761596679688,-0.2944028377532959,0.0839991569519043
1696962073607355100,9.879355224609375,1.4748773574829102,0.6294602155685425,0.3356896638870239
1696962073617368600,9.88936865234375,0.13303756713867188,0.07247674465179443,-0.2501636743545532
1696962073627382000,9.899382080078125,-0.6700506210327148,-0.5990785360336304,0.1447656750679016
1696962073637395500,9.9093955078125,1.2957115173339844,0.13844501972198486,-0.32263076305389404
1696962073647409000,9.919408935546874,-1.875554084777832,0.003947615623474121,-0.2340090572834015
1696962073657422300,9.92942236328125,2.4869747161865234,0.4198821783065796,-0.5234392881393433
1696962073667435800,9.939435791015624,-0.7295999526977539,-0.4134167432785034,-0.030913233757019043
1696962073677449500,9.949449462890625,-0.5946016311645508,0.03866875171661377,0.4030812978744507
1696962073687463000,9.959462890625,1.3954248428344727,0.4146348237991333,-0.12515562772750854
1696962073697476400,9.969476318359375,-1.6953601837158203,-0.2879689931869507,-0.2782246470451355
1696962073707489800,9.97948974609375,0.5119695663452148,-0.16834533214569092,-0.40024709701538086
1696962073717503200,9.989503173828124,-0.2776479721069336,0.9352836608886719,-0.004883915185928345
1696962073727517000,9.999516845703125,0.2055959701538086,-0.47612428665161133,-0.3861786723136902
1696962073737530400,10.0095302734375,-0.5356569290161133,-0.3703407049179077,0.002949923276901245
1696962073747543800,10.019543701171875,0.40242481231689453,0.4248170852661133,0.3104632794857025
1696962073757557200,10.02955712890625,-0.7408218383789062,0.4704596996307373,-0.12647941708564758
1696962073767570700,10.03957080078125,1.4015741348266602,0.048720598220825195,0.07341557741165161
1696962073777584400,10.04958447265625,-0.7806119918823242,-0.6307449340820312,0.05491986870765686
1696962073787597800,10.059597900390624,-0.4449424743652344,0.16708648204803467,0.34642407298088074
1696962073797611300,10.069611328125,2.457137107849121,0.3639422655105591,-0.05607783794403076
1696962073807624700,10.079624755859374,-1.9122943878173828,-0.45781171321868896,0.11058172583580017
1696962073817638100,10.08963818359375,2.5458879470825195,0.1349165439605713,0.17194488644599915
1696962073827651800,10.09965185546875,-0.6094951629638672,0.5225982666015625,0.12995430827140808
1696962073837665300,10.109665283203125,-0.7470283508300781,-1.0947405099868774,0.26916053891181946
1696962073847678700,10.1196787109375,2.337015151977539,0.6194239854812622,0.48771992325782776
1696962073857692200,10.129692138671874,-0.8704624176025391,-0.4382011890411377,-0.4077703654766083
1696962073867705600,10.13970556640625,-1.729020118713379,0.33186042308807373,-0.24763375520706177
1696962073877719300,10.14971923828125,3.508279800415039,-0.35787415504455566,-0.37440025806427
1696962073887732700,10.159732666015625,-4.146200180053711,-0.3351830244064331,-0.07602888345718384
1696962073897746200,10.16974609375,1.8034772872924805,-0.014191508293151855,-0.1480778157711029
1696962073907759600,10.179759521484375,-0.8235998153686523,0.1464627981185913,-0.7575008869171143
1696962073917773000,10.18977294921875,-1.3764762878417969,-0.22439110279083252,-0.2619051933288574
1696962073927786800,10.199786865234374,2.407578468322754,0.1848764419555664,0.24113592505455017
1696962073937800200,10.20980029296875,-1.7272396087646484,-0.3261188268661499,-0.5205735564231873
1696962073947813600,10.219813720703126,-0.9490232467651367,-0.24927151203155518,-0.05413937568664551
1696962073957827000,10.2298271484375,2.4658966064453125,0.5655239820480347,-0.05004104971885681
1696962073967840500,10.239840576171876,-2.8112049102783203,-0.5903317928314209,-0.03549197316169739
1696962073977854000,10.24985400390625,1.348280906677246,0.3047753572463989,-0.054876089096069336
1696962073987867600,10.25986767578125,-0.5085592269897461,-0.20506024360656738,-0.040730834007263184
1696962073997881000,10.269881103515624,-1.2868232727050781,-0.18091261386871338,-0.22037169337272644
1696962074007894500,10.27989453125,1.9329166412353516,0.14219486713409424,0.00420495867729187
1696962074017908000,10.289907958984376,-1.3740053176879883,-0.2475590705871582,-0.17625850439071655
1696962074027921400,10.29992138671875,-0.013434410095214844,0.2896021604537964,-0.033292174339294434
1696962074037935000,10.30993505859375,1.343851089477539,-0.06497323513031006,0.12446951866149902
1696962074047948500,10.319948486328125,-1.6554985046386719,-0.15015184879302979,0.3821893036365509
1696962074057962000,10.3299619140625,1.7171812057495117,0.22906029224395752,0.44345223903656006
1696962074067975400,10.339975341796874,0.04085826873779297,-0.018589377403259277,-0.18358013033866882
1696962074077988900,10.34998876953125,-0.4999237060546875,-0.13682067394256592,-0.11082479357719421
1696962074088002600,10.36000244140625,2.7991676330566406,0.12291610240936279,0.5062680840492249
1696962074098016000,10.37001611328125,-2.560166358947754,-0.008840084075927734,0.07284632325172424
1696962074108029400,10.380029541015626,1.7131567001342773,0.14914441108703613,0.27234360575675964
1696962074118043000,10.39004296875,0.24238872528076172,-0.07698357105255127,0.46195101737976074
1696962074128056300,10.400056396484375,-0.27015018463134766,-0.22635960578918457,0.1167466938495636
1696962074138069800,10.41006982421875,1.7185611724853516,0.3177233934402466,-0.15744274854660034
1696962074148083200,10.420083251953125,-1.9842867851257324,0.2655080556869507,-0.1044262945652008
1696962074158096600,10.4300966796875,1.7522001266479492,-0.5984408855438232,-0.028726696968078613
1696962074168110000,10.440110107421875,-0.5596637725830078,0.5755370855331421,0.12096568942070007
1696962074178123500,10.45012353515625,-0.014229774475097656,-0.32748186588287354,-0.21186217665672302
1696962074188137000,10.460136962890624,0.1582622528076172,0.2845953702926636,-0.05545485019683838
1696962074198150400,10.470150390625,-0.19611072540283203,-0.2713127136230469,0.2726586163043976
1696962074208163800,10.480163818359374,-0.33408069610595703,-0.08752655982971191,-0.35418981313705444
1696962074218177300,10.49017724609375,0.555145263671875,0.41913795471191406,-0.15234166383743286
1696962074228190700,10.500190673828126,0.8600025177001953,-0.4796316623687744,-0.5764966607093811
1696962074238204200,10.5102041015625,-2.2151975631713867,-0.008994817733764648,-0.2298470437526703
1696962074248217600,10.520217529296875,1.4317436218261719,0.017314910888671875,-0.3551139533519745
1696962074258231000,10.53023095703125,-2.800652503967285,-0.21317589282989502,-0.4777575433254242
1696962074268244500,10.540244384765625,1.2963733673095703,-0.03168678283691406,-0.15976491570472717
1696962074278258000,10.5502578125,-0.0152587890625,-0.03202390670776367,-0.5560706853866577
1696962074288271400,10.560271240234375,-2.089768409729004,-0.21241509914398193,-0.10876858234405518
1696962074298284800,10.570284912109376,2.6134681701660156,0.24013006687164307,-0.24853749573230743
1696962074308298200,10.58029833984375,-3.4999423027038574,-0.09073996543884277,-0.10199099779129028
1696962074318311700,10.590311767578125,1.2153759002685547,-0.18726694583892822,0.3297705352306366
1696962074328325000,10.6003251953125,0.8260269165039062,0.5317867994308472,0.004729568958282471
1696962074338338600,10.610338623046875,-1.8000373840332031,-0.336023211479187,-0.13403192162513733
1696962074348352000,10.62035205078125,1.9797630310058594,0.16794180870056152,-0.0009089410305023193
1696962074358365400,10.630365478515625,-0.4763917922973633,-0.05618155002593994,0.6011673212051392
1696962074368379000,10.64037890625,0.6997489929199219,0.4221144914627075,0.3926113247871399
1696962074378392300,10.650392333984374,0.8655309677124023,0.05398595333099365,0.6145048141479492
1696962074388405800,10.66040576171875,-0.4274320602416992,-0.19127118587493896,0.5820931196212769
1696962074398419200,10.670419189453124,1.2508831024169922,-0.129980206489563,0.14785641431808472
1696962074408432600,10.6804326171875,-1.1370429992675781,-0.07741713523864746,-0.2799009680747986
1696962074418446000,10.690446044921876,0.22278594970703125,0.0914316177368164,0.028858453035354614
1696962074428459500,10.70045947265625,1.4931774139404297,0.02053511142730713,-0.6081380844116211
1696962074438473000,10.710472900390625,-1.0288543701171875,-0.4462035894393921,-0.6090207099914551
1696962074448486400,10.720486328125,0.87066650390625,0.2187570333480835,0.07726877927780151
1696962074458499800,10.730499755859375,0.04703712463378906,-0.19785773754119873,0.0006332993507385254
1696962074468513300,10.74051318359375,-0.5317850112915039,0.13588273525238037,-0.09310886263847351
1696962074478526700,10.750526611328125,1.7207536697387695,-0.1767507791519165,0.22903868556022644
1696962074488540200,10.7605400390625,-1.1698026657104492,-0.05403757095336914,0.20839640498161316
1696962074498553600,10.7705537109375,1.7812528610229492,-0.10319244861602783,-0.1374645233154297
1696962074508567000,10.780567138671875,-0.9034748077392578,0.31573712825775146,0.024596720933914185
1696962074518580500,10.79058056640625,-0.21358489990234375,-0.4782830476760864,0.11122986674308777
1696962074528594000,10.800593994140625,0.7382020950317383,0.025172114372253418,-0.3571949601173401
1696962074538607400,10.810607421875,-0.4584074020385742,-0.01727759838104248,-0.40516072511672974
1696962074548620800,10.820620849609375,-0.3518810272216797,-0.28260791301727295,-0.24587252736091614
1696962074558634200,10.83063427734375,-0.2554330825805664,-0.0760030746459961,-0.11217007040977478
1696962074568647700,10.840647705078124,-1.2006855010986328,0.13143086433410645,-0.3801320791244507
1696962074578661000,10.8506611328125,-0.13690948486328125,0.08504867553710938,-0.26506155729293823
1696962074588674600,10.860674560546874,-0.43715667724609375,-0.08989822864532471,0.194524347782135
1696962074598688000,10.87068798828125,0.2234039306640625,-0.309240460395813,0.09376129508018494
1696962074608701400,10.880701416015626,-0.5893526077270508,0.2587474584579468,0.24004903435707092
1696962074618715000,10.89071484375,0.5351524353027344,0.4209786653518677,-0.26262912154197693
1696962074628728300,10.900728271484375,-0.6034402847290039,-0.21165478229522705,0.4725722074508667
1696962074638741800,10.91074169921875,0.8125076293945312,0.23442614078521729,0.1373380422592163
1696962074648755200,10.920755126953125,-0.7042808532714844,-0.07829129695892334,0.896403431892395
1696962074658768600,10.9307685546875,1.7725505828857422,0.0012193918228149414,0.6201121807098389
1696962074668782000,10.940781982421875,-1.4716033935546875,0.09175145626068115,0.2769613265991211
1696962074678795500,10.95079541015625,1.0881223678588867,0.05434703826904297,0.364251047372818
1696962074688809000,10.96080908203125,-0.037201881408691406,-0.12328732013702393,-0.12610790133476257
1696962074698822400,10.970822509765625,-0.3624429702758789,-0.10072052478790283,-0.23023946583271027
1696962074708836000,10.980836181640624,1.464125633239746,-0.22146344184875488,-0.2615343928337097
1696962074718849500,10.990849609375,-1.320413589477539,-0.35808300971984863,-0.005784183740615845
1696962074728863000,11.000863037109376,0.3313760757446289,0.08987486362457275,0.21362096071243286
1696962074738876400,11.01087646484375,0.42185115814208984,0.14684200286865234,0.07021573185920715
1696962074748889900,11.020889892578126,-0.9411125183105469,-0.000683903694152832,0.5289093255996704
1696962074758903600,11.030903564453125,1.9285659790039062,-0.09210455417633057,0.31067365407943726
1696962074768917000,11.0409169921875,-0.9048213958740234,0.18077218532562256,0.3457473814487457
1696962074778930400,11.050930419921874,-0.12868022918701172,-0.28593695163726807,-0.04012539982795715
1696962074788944000,11.06094384765625,0.36889171600341797,0.481387734413147,-0.13891911506652832
1696962074798957300,11.070957275390626,-1.1659698486328125,-0.5009326934814453,-0.8115297555923462
1696962074808971000,11.080970947265625,-1.3589162826538086,-0.001917123794555664,-0.03409916162490845
1696962074818984400,11.090984375,2.486919403076172,0.14169037342071533,-0.037699729204177856
1696962074828998000,11.100997802734375,-2.5222582817077637,-0.17988133430480957,-0.07597693800926208
1696962074839011300,11.11101123046875,0.13593101501464844,0.3576991558074951,0.1715603768825531
1696962074849024800,11.121024658203124,1.0490493774414062,0.08847510814666748,0.030726850032806396
1696962074859038500,11.13103857421875,-2.318075180053711,-0.019681930541992188,0.18108031153678894
1696962074869052000,11.141052001953126,2.3710403442382812,-0.06481564044952393,0.6206947565078735
1696962074879065300,11.1510654296875,-1.3238029479980469,0.20803987979888916,0.5623579025268555
1696962074889078800,11.161078857421876,1.0540180206298828,0.18941080570220947,0.556572675704956
1696962074899092200,11.17109228515625,0.34444141387939453,0.04192197322845459,0.6230428814888
1696962074909106000,11.18110595703125,-0.3450183868408203,-0.3808584213256836,0.3473374843597412
1696962074919119400,11.191119384765624,0.5063753128051758,0.47081661224365234,0.36817872524261475
1696962074929132800,11.2011328125,0.2899608612060547,-0.3174518346786499,0.9872159361839294
1696962074939146200,11.211146240234376,0.6378641128540039,0.04053831100463867,-0.10641852021217346
1696962074949159700,11.22115966796875,-0.9695959091186523,0.022441506385803223,-0.14421576261520386
1696962074959173000,11.231173095703125,-0.15468311309814453,-0.3593236207962036,0.25003400444984436
1696962074969186800,11.241186767578125,1.6518974304199219,0.4503084421157837,-0.1632046103477478
1696962074979200300,11.2512001953125,-1.1139373779296875,-0.6296111345291138,0.1728445291519165
1696962074989213700,11.261213623046874,0.26007080078125,-0.09419190883636475,0.15290743112564087
1696962074999227100,11.27122705078125,0.6374340057373047,0.3418405055999756,0.17512056231498718
1696962075009240600,11.281240478515626,-1.6293611526489258,-0.08384883403778076,0.15365496277809143
1696962075019254300,11.291254150390625,1.1846685409545898,-0.020711660385131836,0.11501067876815796
1696962075029267700,11.301267822265626,-0.9158897399902344,-0.07585060596466064,0.4281088709831238
1696962075039281200,11.31128125,0.6727733612060547,0.13185381889343262,0.5328391194343567
1696962075049294600,11.321294677734375,0.2888908386230469,0.38768017292022705,0.18449676036834717
1696962075059308000,11.33130810546875,-0.7202510833740234,-0.46389925479888916,-0.14464551210403442
1696962075069321700,11.34132177734375,-0.3316621780395508,0.21269094944000244,-0.49495500326156616
1696962075079335200,11.351335205078126,-0.43100547790527344,-0.21370112895965576,-0.28621912002563477
1696962075089348600,11.3613486328125,-0.14338207244873047,-0.18735134601593018,-0.2953459620475769
1696962075099362000,11.371362060546875,0.3254718780517578,-0.02992570400238037,-0.148069828748703
1696962075109375500,11.38137548828125,-0.922459602355957,0.16668939590454102,0.03311845660209656
1696962075119389000,11.391388916015625,1.3019018173217773,-0.08486783504486084,0.0317704975605011
1696962075129402400,11.40140234375,-0.7652187347412109,-0.19831490516662598,0.1554170548915863
1696962075139415800,11.411415771484375,-0.385955810546875,-0.33334028720855713,0.21902796626091003
1696962075149429200,11.42142919921875,1.9091682434082031,0.09589731693267822,0.07852041721343994
1696962075159442700,11.431442626953125,-1.5216045379638672,-0.2374361753463745,0.2277461588382721
1696962075169456000,11.4414560546875,1.9083566665649414,0.13979089260101318,0.45091384649276733
1696962075179469600,11.451469482421874,0.16001033782958984,0.19032323360443115,0.4294532835483551
1696962075189483000,11.46148291015625,-0.4809417724609375,-0.26183223724365234,0.856863260269165
1696962075199496400,11.471496337890626,1.4318561553955078,0.15772247314453125,0.604951024055481
1696962075209510000,11.481510009765625,-0.24898338317871094,0.14510560035705566,0.11850842833518982
1696962075219523300,11.4915234375,-0.7693309783935547,-0.0076389312744140625,0.5244884490966797
1696962075229536800,11.501536865234375,0.5514430999755859,0.0783383846282959,0.25870388746261597
1696962075239550200,11.51155029296875,-0.9695339202880859,0.027773380279541016,0.31392526626586914
1696962075249563600,11.521563720703124,-0.04026508331298828,-0.26584184169769287,0.06901508569717407
1696962075259577000,11.5315771484375,0.26575660705566406,-0.13860869407653809,-0.424063503742218
1696962075269590500,11.541590576171876,-2.152926445007324,0.2962571382522583,-0.2483467310667038
1696962075279604000,11.55160400390625,1.1544198989868164,0.2326284646987915,-0.039972007274627686
1696962075289617400,11.561617431640625,-1.1465959548950195,-0.6336969137191772,-0.21115493774414062
1696962075299630800,11.571630859375,0.21761226654052734,0.26930081844329834,0.16348901391029358
1696962075309644300,11.581644287109375,0.4950542449951172,-0.5260396003723145,0.3130950331687927
1696962075319657700,11.59165771484375,-2.087244987487793,0.8611135482788086,0.24347150325775146
1696962075329671200,11.601671142578125,3.1173315048217773,-0.46339571475982666,-0.4258171319961548
1696962075339684600,11.6116845703125,-3.7475624084472656,-0.027680039405822754,-0.17041093111038208
1696962075349698000,11.621697998046875,3.309680938720703,-0.07806313037872314,-0.15832102298736572
1696962075359711500,11.63171142578125,-0.7498388290405273,-0.5482897758483887,0.07465985417366028
1696962075369725000,11.641724853515624,-1.4656600952148438,0.5564395189285278,-0.061586081981658936
1696962075379738400,11.65173828125,2.533761978149414,-0.06967949867248535,0.23169586062431335
1696962075389751800,11.661751708984376,-3.4746322631835938,-0.3579293489456177,0.24714428186416626
1696962075399765200,11.67176513671875,2.8655433654785156,-0.03517317771911621,-0.17466813325881958
1696962075409778700,11.68177880859375,-1.3267908096313477,-0.8477222919464111,-0.2730593681335449
1696962075419792100,11.691792236328125,-0.7170753479003906,0.6570003032684326,0.07268226146697998
1696962075429805600,11.7018056640625,3.3617591857910156,-0.30971455574035645,0.26671409606933594
1696962075439819000,11.711819091796874,-2.1753640174865723,0.08424258232116699,0.5826643109321594
1696962075449832400,11.72183251953125,2.269317626953125,0.0497736930847168,0.772406816482544
1696962075459846000,11.731845947265626,0.15697097778320312,-0.2537723779678345,0.9838495850563049
1696962075469859300,11.741859375,-0.0923614501953125,0.20271015167236328,0.11124271154403687
1696962075479872800,11.751872802734376,1.4661064147949219,0.4953111410140991,0.27928733825683594
1696962075489886200,11.76188623046875,-0.8934049606323242,-0.2623182535171509,0.28721916675567627
1696962075499899600,11.771899658203125,0.46578407287597656,-0.10822427272796631,0.2572144865989685
1696962075509913000,11.7819130859375,-0.23291873931884766,0.09113442897796631,0.14158344268798828
1696962075519926500,11.791926513671875,-0.8438854217529297,0.012283086776733398,0.06138193607330322
1696962075529940000,11.80193994140625,0.0564727783203125,0.34953629970550537,0.38431376218795776
1696962075539953400,11.811953369140625,-0.258636474609375,-0.5926569700241089,-0.03126490116119385
1696962075549966800,11.821966796875,-2.4757237434387207,0.5344099998474121,-0.13608402013778687
1696962075559980300,11.831980224609374,1.8123102188110352,-0.0431513786315918,0.16343683004379272
1696962075569993700,11.84199365234375,-1.4509696960449219,-0.338981032371521,0.25319188833236694
1696962075580007200,11.852007080078126,0.5877876281738281,0.2511715888977051,0.11461275815963745
1696962075590020600,11.8620205078125,0.4194955825805664,-0.04996442794799805,-0.152998685836792
1696962075600034000,11.872033935546876,-1.3022918701171875,0.20204460620880127,0.09473389387130737
1696962075610047500,11.882047607421875,0.9087276458740234,-0.7000784873962402,-0.240980863571167
1696962075620061000,11.89206103515625,-0.6179046630859375,0.3555788993835449,-0.8452219367027283
1696962075630074400,11.902074462890624,-0.544642448425293,-0.2876698970794678,-0.4050150513648987
1696962075640087800,11.912087890625,0.7186317443847656,-0.14892888069152832,-0.15926247835159302
1696962075650101200,11.922101318359376,0.17231178283691406,0.305118203163147,-0.07262617349624634
1696962075660114700,11.93211474609375,-0.4584798812866211,-0.7908743619918823,0.3508036732673645
1696962075670128000,11.942128173828126,0.699244499206543,0.5114461183547974,0.1901271939277649
1696962075680141600,11.9521416015625,1.1089057922363281,0.0016942024230957031,0.16194480657577515
1696962075690155000,11.962155029296875,-0.5662479400634766,-0.2488410472869873,0.04130131006240845
1696962075700168400,11.97216845703125,0.2810697555541992,0.14494788646697998,0.6690992116928101
1696962075710182000,11.982181884765625,1.4850034713745117,-0.31759631633758545,0.4577840566635132
1696962075720195300,11.9921953125,-1.6582880020141602,0.5893509387969971,0.6237279772758484
1696962075730208800,12.002208740234375,2.5845184326171875,-0.2751246690750122,0.23167645931243896
1696962075740222500,12.012222412109375,-1.4163999557495117,0.03287065029144287,0.1948973536491394
1696962075750236000,12.02223583984375,-0.1518230438232422,0.1206057071685791,0.32159388065338135
1696962075760249300,12.032249267578125,0.666325569152832,-0.2316591739654541,-0.25214219093322754
1696962075770262800,12.0422626953125,-2.097670078277588,0.06318414211273193,0.4183623790740967
1696962075780276200,12.052276123046875,1.9697628021240234,-0.08665072917938232,-0.07293212413787842
1696962075790290000,12.0622900390625,-2.794496536254883,0.27752888202667236,0.14074569940567017
1696962075800303400,12.072303466796875,1.2406597137451172,-0.11935102939605713,-0.023267149925231934
1696962075810316800,12.08231689453125,-1.2418594360351562,0.007738709449768066,0.13270878791809082
1696962075820330200,12.092330322265624,-0.044539451599121094,0.4249856472015381,0.1773521900177002
1696962075830343700,12.10234375,1.2366418838500977,-0.08093452453613281,0.1153724193572998
1696962075840357400,12.112357421875,-1.7102241516113281,0.014789462089538574,0.23329031467437744
1696962075850370800,12.122370849609375,0.6257638931274414,0.11494231224060059,0.6088858246803284
1696962075860384300,12.13238427734375,0.01731395721435547,0.39424633979797363,0.2527041435241699
1696962075870397700,12.142397705078125,0.059693336486816406,-0.02246415615081787,-0.1005549430847168
1696962075880411100,12.1524111328125,0.4036521911621094,-0.18579423427581787,-0.2184271216392517
1696962075890424600,12.162424560546874,-1.5378313064575195,-0.08773505687713623,0.054301559925079346
1696962075900438300,12.172438232421875,0.7499589920043945,0.21724212169647217,-0.10346013307571411
1696962075910451700,12.18245166015625,0.18435955047607422,-0.0192948579788208,-0.07444757223129272
1696962075920465200,12.192465087890625,-0.6095800399780273,-0.07838225364685059,0.07587260007858276
1696962075930478600,12.202478515625,0.4100074768066406,-0.2221512794494629,0.30851197242736816
1696962075940492000,12.212491943359375,0.1268768310546875,-0.0865786075592041,0.18374061584472656
1696962075950505700,12.222505615234375,0.5950822830200195,-0.2888004779815674,-0.06036728620529175
1696962075960519200,12.232519287109374,-0.14719581604003906,0.48189008235931396,0.10205918550491333
1696962075970532600,12.24253271484375,1.7601127624511719,0.007530927658081055,0.3816159963607788
1696962075980546000,12.252546142578124,-0.7816247940063477,-0.49343788623809814,0.1009179949760437
1696962075990559500,12.2625595703125,-0.15860748291015625,0.46683454513549805,0.4039433002471924
1696962076000573200,12.2725732421875,2.3271398544311523,-0.35961127281188965,0.05541789531707764
1696962076010586600,12.282586669921875,-2.2422714233398438,0.4134167432785034,0.263715922832489
1696962076020600000,12.29260009765625,1.9876079559326172,-0.14860081672668457,-0.1522877812385559
1696962076030613500,12.302613525390624,-1.7108163833618164,0.051041245460510254,0.17278540134429932
1696962076040627000,12.312626953125,2.1112327575683594,-0.0337291955947876,0.18119561672210693
1696962076050640600,12.322640625,-1.687556266784668,-0.1718158721923828,0.3575989603996277
1696962076060654000,12.332654052734375,-0.2695436477661133,0.5200183391571045,0.49367862939834595
1696962076070667500,12.34266748046875,1.093465805053711,-0.28518569469451904,-0.15692883729934692
1696962076080681000,12.352680908203125,-2.5603766441345215,0.35758745670318604,0.4180123209953308
1696962076090694400,12.3626943359375,2.6402578353881836,-0.2752741575241089,0.031901657581329346
1696962076100707800,12.372707763671874,-1.2654790878295898,0.015381574630737305,-0.5146070718765259
1696962076110721300,12.38272119140625,-1.0382280349731445,0.11252200603485107,-0.15792185068130493
1696962076120734700,12.392734619140626,0.6515617370605469,0.06271541118621826,0.023658394813537598
1696962076130748200,12.402748046875,-1.127981185913086,0.24553632736206055,-0.1152912974357605
1696962076140761600,12.41276171875,0.1697235107421875,-0.07708966732025146,-0.07379287481307983
1696962076150775000,12.422775146484375,0.594782829284668,-0.2257542610168457,-0.16095894575119019
1696962076160788500,12.43278857421875,-1.5906438827514648,0.06753754615783691,-0.09205847978591919
1696962076170802000,12.442802001953124,1.2996606826782227,0.15196466445922852,-0.22408252954483032
1696962076180815400,12.4528154296875,-1.0925559997558594,-0.13859736919403076,-0.06832069158554077
1696962076190828800,12.462828857421876,0.013830184936523438,-0.4525916576385498,0.3800227642059326
1696962076200842200,12.47284228515625,1.390488624572754,-0.07773852348327637,0.4375606179237366
1696962076210855700,12.482855712890625,-1.3751850128173828,0.19179844856262207,0.446796178817749
1696962076220869000,12.492869140625,1.9064970016479492,0.1385422945022583,0.35273969173431396
1696962076230882600,12.502882568359375,-1.1661090850830078,-0.12210524082183838,0.45663636922836304
