time,seconds_elapsed,z,y,x
1696962659032343300,0.16434326171875,0.6687355041503906,0.31035566329956055,0.46798408031463623
1696962659042222000,0.17422216796875,0.38625240325927734,-0.06095099449157715,-0.5070208311080933
1696962659052132900,0.1841328125,0.028753280639648438,0.1365976333618164,-0.0382920503616333
1696962659062078700,0.19407861328125,1.1200666427612305,-0.19096338748931885,-0.10923269391059875
1696962659072061200,0.204061279296875,-1.2478017807006836,0.27840590476989746,-0.032059043645858765
1696962659082079500,0.21407958984375,1.7907323837280273,-0.020604848861694336,0.6035777926445007
1696962659092132400,0.22413232421875,0.061295509338378906,0.17806518077850342,-0.03224584460258484
1696962659102216700,0.234216796875,0.06701946258544922,-0.1798262596130371,0.5729222297668457
1696962659112328700,0.24432861328125,1.5503177642822266,-0.02767622470855713,0.14543157815933228
1696962659122463000,0.254462890625,-1.196096420288086,-0.10371696949005127,-0.2230585813522339
1696962659132614000,0.26461376953125,1.4312057495117188,0.33312416076660156,0.6425997018814087
1696962659142775300,0.274775390625,-0.9434127807617188,0.13420212268829346,-0.05701267719268799
1696962659152941000,0.284941162109375,0.4837303161621094,-0.43688154220581055,0.12063634395599365
1696962659163055900,0.295055908203125,-0.14667701721191406,0.10420858860015869,-0.4802108705043793
1696962659173069600,0.305069580078125,-0.5019721984863281,-0.3498786687850952,0.4293779730796814
1696962659183083000,0.3150830078125,0.4045257568359375,0.15713894367218018,-0.533446729183197
1696962659193096700,0.3250966796875,-1.5659241676330566,-0.24092566967010498,0.545274555683136
1696962659203110100,0.335110107421875,2.8286027908325195,0.7419954538345337,0.026784777641296387
1696962659213123800,0.345123779296875,-3.970005989074707,-0.864187479019165,-0.18049442768096924
1696962659223137500,0.355137451171875,3.2164764404296875,0.5278589725494385,0.13035893440246582
1696962659233151000,0.36515087890625,-1.9270691871643066,-0.6016148328781128,0.07567179203033447
1696962659243164700,0.37516455078125,1.0779542922973633,0.244598388671875,-0.04335755109786987
1696962659253178000,0.38517822265625,0.537379264831543,-0.1427072286605835,-0.1715138554573059
1696962659263191800,0.39519189453125,0.3213157653808594,0.15001976490020752,0.7965817451477051
1696962659273205500,0.40520556640625,1.0078983306884766,-0.1781752109527588,-0.16204231977462769
1696962659283219000,0.415218994140625,-1.0680408477783203,-0.31157124042510986,0.08625119924545288
1696962659293232600,0.425232666015625,1.6618070602416992,0.19612598419189453,0.016347229480743408
1696962659303246000,0.43524609375,0.24567413330078125,0.19667088985443115,-0.04897111654281616
1696962659313259800,0.445259765625,-0.7815656661987305,-0.5918389558792114,-0.6486420035362244
1696962659323273500,0.4552734375,1.0998287200927734,-0.2951122522354126,0.17452079057693481
1696962659333287000,0.465286865234375,-0.1839771270751953,0.38962721824645996,-0.4212566018104553
1696962659343300600,0.475300537109375,0.12397098541259766,-0.8522961139678955,-0.6335424184799194
1696962659353314000,0.48531396484375,-0.3042325973510742,0.5428016185760498,0.12624597549438477
1696962659363327700,0.49532763671875,2.027420997619629,-0.5227233171463013,0.15713965892791748
1696962659373341400,0.505341552734375,-1.875617504119873,0.09340786933898926,-0.03579360246658325
1696962659383355000,0.51535498046875,1.4490652084350586,-0.5819942951202393,-0.5051751732826233
1696962659393368600,0.52536865234375,-1.276597023010254,0.3345150947570801,0.14280474185943604
1696962659403382000,0.535382080078125,1.4510440826416016,-0.1462622880935669,-0.11356770992279053
1696962659413395700,0.545395751953125,-1.2665643692016602,-0.2090001106262207,0.038261353969573975
1696962659423409400,0.555409423828125,1.0304174423217773,0.11479306221008301,-0.0359959602355957
1696962659433422800,0.5654228515625,-0.9709453582763672,-0.5077440738677979,0.33452367782592773
1696962659443436500,0.5754365234375,1.4805364608764648,-0.17288696765899658,-0.10639381408691406
1696962659453450000,0.585449951171875,-0.48829174041748047,-0.11395633220672607,0.05702441930770874
1696962659463463700,0.595463623046875,0.24499130249023438,-0.06473469734191895,0.11659836769104004
1696962659473477400,0.605477294921875,-0.35193347930908203,-0.10602188110351562,0.34599965810775757
1696962659483490800,0.61549072265625,0.2985095977783203,-0.10786402225494385,-0.3356338143348694
1696962659493504500,0.62550439453125,-1.0801801681518555,-0.5062075853347778,0.04372763633728027
1696962659503518000,0.63551806640625,1.0231256484985352,0.10234105587005615,-0.24216526746749878
1696962659513531600,0.64553173828125,-1.3336963653564453,-0.6968367099761963,0.10404300689697266
1696962659523545300,0.65554541015625,1.066603660583496,-0.23037230968475342,0.17661136388778687
1696962659533558800,0.665558837890625,-0.515070915222168,-0.4247605800628662,0.04264193773269653
1696962659543572500,0.675572509765625,1.0903682708740234,-0.5014491081237793,0.24478286504745483
1696962659553586000,0.6855859375,-0.23238468170166016,-0.08465111255645752,0.7320742011070251
1696962659563599600,0.695599609375,0.7228813171386719,-0.5010857582092285,0.1649329662322998
1696962659573613300,0.70561328125,-0.7359037399291992,-0.42722058296203613,0.11730462312698364
1696962659583626800,0.715626708984375,-0.4557914733886719,-0.3823432922363281,0.004263937473297119
1696962659593640400,0.725640380859375,-0.028998374938964844,-0.012398958206176758,0.05434846878051758
1696962659603654000,0.73565380859375,0.9431219100952148,0.07321012020111084,0.36385494470596313
1696962659613667600,0.74566748046875,0.2687654495239258,-0.4903072118759155,0.11274933815002441
1696962659623681300,0.755681396484375,0.018909454345703125,-0.18922626972198486,-0.16849416494369507
1696962659633694700,0.76569482421875,0.14643192291259766,-0.36639130115509033,-0.11322367191314697
1696962659643708400,0.77570849609375,0.07815074920654297,-0.11510610580444336,0.07231086492538452
1696962659653721900,0.785721923828125,-1.2309093475341797,-0.2607182264328003,-0.481640487909317
1696962659663735600,0.795735595703125,0.9781274795532227,0.16890084743499756,0.22023195028305054
1696962659673749200,0.805749267578125,-0.178619384765625,-0.31078600883483887,-0.3620019257068634
1696962659683762700,0.8157626953125,-0.3316354751586914,0.13655126094818115,0.21392822265625
1696962659693776400,0.8257763671875,1.5915889739990234,-0.10010766983032227,0.30278027057647705
1696962659703789800,0.835789794921875,0.14808082580566406,0.16422927379608154,0.5031980276107788
1696962659713803500,0.845803466796875,1.077683448791504,-0.33929550647735596,0.3179822564125061
1696962659723817200,0.855817138671875,-0.7664546966552734,0.08110702037811279,0.3615022301673889
1696962659733830700,0.86583056640625,1.2347097396850586,0.6896177530288696,0.3021436333656311
1696962659743844400,0.87584423828125,-0.9666385650634766,-0.2608664035797119,-0.04324972629547119
1696962659753857800,0.88585791015625,-0.14076995849609375,0.29624176025390625,0.026411116123199463
1696962659763871500,0.89587158203125,-0.7640495300292969,0.25507450103759766,-0.1875818371772766
1696962659773885200,0.90588525390625,-0.9530649185180664,0.29303932189941406,-0.08114749193191528
1696962659783898600,0.915898681640625,1.4198064804077148,-0.12024068832397461,-0.26902854442596436
1696962659793912300,0.925912353515625,-2.0906291007995605,0.20721304416656494,-0.5545316934585571
1696962659803925800,0.93592578125,1.9068822860717773,-0.6717561483383179,0.7455853223800659
1696962659813939500,0.945939453125,-0.5972375869750977,0.06242263317108154,-0.8974852561950684
1696962659823953200,0.955953125,-0.5849533081054688,-0.9109225273132324,0.5024135708808899
1696962659833966600,0.965966552734375,1.510284423828125,0.9152102470397949,0.03919190168380737
1696962659843980300,0.975980224609375,-1.737154483795166,-0.3143579959869385,0.4202648401260376
1696962659853993700,0.98599365234375,0.958439826965332,0.16626191139221191,0.022777974605560303
1696962659864007400,0.99600732421875,-1.0661191940307617,-0.08699822425842285,0.039516448974609375
1696962659874021000,1.006021240234375,1.1158885955810547,0.015164375305175781,0.3677489757537842
1696962659884034600,1.01603466796875,0.8381662368774414,-0.06482815742492676,0.06964027881622314
1696962659894048300,1.02604833984375,0.8671636581420898,-0.4950828552246094,-0.15355825424194336
1696962659904061700,1.036061767578125,-0.39331722259521484,-0.40493762493133545,0.26795434951782227
1696962659914075400,1.046075439453125,1.7963247299194336,0.0499267578125,0.1788191795349121
1696962659924089000,1.056089111328125,-0.9771661758422852,-0.5295044183731079,-0.18196910619735718
1696962659934102500,1.0661025390625,-1.3319644927978516,-0.31650984287261963,-0.2707085609436035
1696962659944116200,1.0761162109375,1.2329730987548828,0.8436909914016724,0.6694838404655457
1696962659954129700,1.086129638671875,-0.4204988479614258,-0.9342387914657593,-0.5554367899894714
1696962659964143400,1.096143310546875,-0.5155792236328125,0.0700998306274414,0.0725240707397461
1696962659974157000,1.106156982421875,1.111978530883789,-0.36237049102783203,0.09645473957061768
1696962659984170500,1.11617041015625,-0.4072084426879883,-0.047298550605773926,-0.32355692982673645
1696962659994184200,1.12618408203125,1.0723886489868164,-0.35047364234924316,-0.24348866939544678
1696962660004197600,1.13619775390625,-0.7263765335083008,-0.38245511054992676,-0.28600436449050903
1696962660014211300,1.14621142578125,0.8468666076660156,0.13790416717529297,0.4172447919845581
1696962660024225000,1.15622509765625,-0.8552379608154297,0.016181468963623047,0.17686361074447632
1696962660034238500,1.166238525390625,0.8709383010864258,0.13486671447753906,0.13343161344528198
1696962660044252200,1.176252197265625,-1.6476936340332031,-0.19664263725280762,0.31939107179641724
1696962660054265600,1.186265625,1.5901002883911133,-0.23500299453735352,-0.25740230083465576
1696962660064279300,1.196279296875,-1.9704689979553223,-0.01731574535369873,-0.32646164298057556
1696962660074293000,1.20629296875,1.741373062133789,-0.2727959156036377,0.7516407370567322
1696962660084306400,1.216306396484375,-1.1466522216796875,0.5444912910461426,-0.014879465103149414
1696962660094320000,1.226320068359375,1.0140705108642578,-0.6408685445785522,-0.014274239540100098
1696962660104333600,1.23633349609375,-0.9891929626464844,-0.19925057888031006,-0.3019569516181946
1696962660114347300,1.24634716796875,0.25922584533691406,0.31909334659576416,0.35594362020492554
1696962660124361000,1.25636083984375,0.1284313201904297,-0.2854337692260742,-0.11145269870758057
1696962660134374400,1.26637451171875,-0.029801368713378906,-0.12075328826904297,-0.47715991735458374
1696962660144388000,1.27638818359375,0.17981910705566406,-0.025523662567138672,0.1319923996925354
1696962660154401500,1.286401611328125,-0.44898033142089844,0.30793893337249756,-0.4247714877128601
1696962660164415200,1.296415283203125,0.4241065979003906,0.11115694046020508,0.06421267986297607
1696962660174429000,1.306428955078125,-0.5915803909301758,-1.1003992557525635,-0.29970288276672363
1696962660184442400,1.3164423828125,-0.011627197265625,0.08687806129455566,0.07142215967178345
1696962660194456000,1.3264560546875,0.3161659240722656,-0.17887425422668457,-0.0521470308303833
1696962660204469500,1.336469482421875,0.2665233612060547,0.6679348945617676,0.19084852933883667
1696962660214483200,1.346483154296875,1.404693603515625,-0.8520172834396362,0.06457799673080444
1696962660224497000,1.356496826171875,-1.3105430603027344,-0.19055068492889404,0.5348377823829651
1696962660234510300,1.36651025390625,2.478290557861328,0.35981011390686035,0.277471661567688
1696962660244524000,1.37652392578125,-2.137805938720703,0.09920668601989746,0.11867696046829224
1696962660254537700,1.386537841796875,1.8721466064453125,-0.8754725456237793,-0.030909299850463867
1696962660264551400,1.396551513671875,-0.5199317932128906,0.2823503017425537,-0.15633618831634521
1696962660274565000,1.406565185546875,-1.1287899017333984,-0.7048636674880981,-0.4147752523422241
1696962660284578600,1.41657861328125,1.4376792907714844,0.9833353757858276,0.3068522810935974
1696962660294592300,1.42659228515625,0.39498233795166016,-1.2017686367034912,-0.902057945728302
1696962660304606000,1.43660595703125,-2.275240898132324,-0.11030924320220947,0.20226675271987915
1696962660314619600,1.44661962890625,2.7681846618652344,-0.28975343704223633,-0.1007731556892395
1696962660324633300,1.45663330078125,-2.445490837097168,0.6293014287948608,-0.12890523672103882
1696962660334646800,1.466646728515625,1.5775146484375,-0.7313060760498047,0.05167663097381592
1696962660344660500,1.476660400390625,-0.9214534759521484,0.31007277965545654,0.870629608631134
1696962660354674200,1.486674072265625,1.4966907501220703,0.2233337163925171,-0.29171955585479736
1696962660364688000,1.49668798828125,-1.8675599098205566,-0.3786224126815796,0.2962019443511963
1696962660374701600,1.50670166015625,1.4518280029296875,-0.44623804092407227,0.3021528720855713
1696962660384715000,1.516715087890625,-1.3177595138549805,0.47394049167633057,-0.10984474420547485
1696962660394728700,1.526728759765625,0.7610092163085938,-0.4323098659515381,0.4448975920677185
1696962660404742400,1.536742431640625,-0.39090538024902344,0.1308819055557251,-0.4160420894622803
1696962660414756000,1.546756103515625,-0.7261533737182617,-0.4404442310333252,-0.13308840990066528
1696962660424769800,1.556769775390625,-0.6733856201171875,-0.11888718605041504,-0.0787932276725769
1696962660434783200,1.566783203125,0.7441902160644531,-0.40876734256744385,-0.2578238844871521
1696962660444797000,1.576796875,0.11603832244873047,-0.05409979820251465,0.16895592212677002
1696962660454810600,1.586810546875,0.1825399398803711,0.5913122892379761,0.22572839260101318
1696962660464824300,1.59682421875,-0.05715465545654297,-0.8580858707427979,0.33817780017852783
1696962660474838000,1.606838134765625,-0.046909332275390625,0.47449588775634766,0.08083450794219971
1696962660484851500,1.6168515625,0.4435539245605469,-0.41919660568237305,0.06917381286621094
1696962660494865200,1.626865234375,-0.9439306259155273,0.08693933486938477,0.3773495554924011
1696962660504878800,1.63687890625,2.4649667739868164,0.4972759485244751,0.7677820920944214
1696962660514892500,1.646892578125,-1.5918598175048828,-1.1594831943511963,-0.06355172395706177
1696962660524906200,1.65690625,0.8839836120605469,0.809425950050354,0.6970560550689697
1696962660534919700,1.666919677734375,1.7254829406738281,-0.15744996070861816,0.3036050796508789
1696962660544933400,1.676933349609375,-1.0608301162719727,-0.21920764446258545,0.09711170196533203
1696962660554947000,1.686947021484375,-0.19261646270751953,-0.4225797653198242,0.022741734981536865
1696962660564960800,1.696960693359375,-0.2251729965209961,0.48041510581970215,0.013569235801696777
1696962660574974500,1.706974365234375,0.5856037139892578,-0.41809165477752686,-0.4175794720649719
1696962660584988000,1.71698779296875,0.0006418228149414062,-0.20997989177703857,-0.776572585105896
1696962660595001600,1.727001708984375,-1.6508913040161133,-0.09640216827392578,0.4056065082550049
1696962660605015300,1.737015380859375,2.191737174987793,0.36328577995300293,0.03914922475814819
1696962660615029000,1.747029052734375,-2.3404016494750977,-0.549790620803833,-0.2587234377861023
1696962660625042700,1.757042724609375,1.1929559707641602,0.04965066909790039,-0.16892075538635254
1696962660635056000,1.76705615234375,-1.8858070373535156,0.22456109523773193,-0.3536450266838074
1696962660645069800,1.77706982421875,1.1731986999511719,-0.741991400718689,-0.3519327640533447
1696962660655083500,1.78708349609375,-1.1574382781982422,0.056169867515563965,-0.05876237154006958
1696962660665097200,1.79709716796875,0.3497962951660156,0.40411221981048584,0.4761349558830261
1696962660675111000,1.80711083984375,1.1859455108642578,-0.3556666374206543,0.38574856519699097
1696962660685124400,1.817124267578125,0.09283733367919922,-0.09080219268798828,-0.4296635389328003
1696962660695138000,1.827137939453125,0.28320980072021484,-0.04871237277984619,-0.05773603916168213
1696962660705151700,1.83715185546875,0.8432102203369141,-0.17094099521636963,0.008928835391998291
1696962660715165200,1.847165283203125,-1.047607421875,-0.04347264766693115,-0.01610654592514038
1696962660725179000,1.857178955078125,1.7065601348876953,-0.3512502908706665,0.4887731671333313
1696962660735192300,1.8671923828125,-1.0230474472045898,0.6733840703964233,-0.4285627007484436
1696962660745206000,1.8772060546875,0.8071279525756836,-0.17313134670257568,-0.12817436456680298
1696962660755219700,1.8872197265625,-0.8790674209594727,-0.7448105812072754,-0.36519622802734375
1696962660765233200,1.897233154296875,0.7978954315185547,0.3512049913406372,-0.4852730631828308
1696962660775246800,1.907246826171875,-1.7642779350280762,-0.11530256271362305,-0.1946011781692505
1696962660785260300,1.91726025390625,0.441802978515625,-0.06131291389465332,0.1489993929862976
1696962660795274000,1.92727392578125,-0.21330547332763672,-0.3237452507019043,-0.4564927816390991
1696962660805287700,1.93728759765625,-0.5976448059082031,-0.02195119857788086,0.0005065798759460449
1696962660815301000,1.947301025390625,-0.274627685546875,0.36297881603240967,0.26194143295288086
1696962660825314800,1.957314697265625,1.232283592224121,-0.36701929569244385,0.4838408827781677
1696962660835328300,1.967328369140625,-0.05096721649169922,0.15339231491088867,-0.42390239238739014
1696962660845342000,1.977342041015625,-0.7128210067749023,-0.5872853994369507,0.42489856481552124
1696962660855355600,1.987355712890625,1.4593524932861328,0.5547614097595215,0.6902434825897217
1696962660865369000,1.997369140625,-0.23588085174560547,-0.13878309726715088,-0.28885364532470703
1696962660875382800,2.0073828125,-0.7676420211791992,0.2833061218261719,0.36513036489486694
1696962660885396200,2.017396240234375,1.5663175582885742,-0.3791213035583496,0.4510793089866638
1696962660895410000,2.027409912109375,-2.6499924659729004,0.34527266025543213,-0.2913408875465393
1696962660905423600,2.037423583984375,2.020230293273926,0.005850076675415039,0.7309266924858093
1696962660915437000,2.04743701171875,-1.1029396057128906,0.5773605108261108,-0.7252415418624878
1696962660925450800,2.05745068359375,-0.891693115234375,-0.8525804281234741,0.4161086678504944
1696962660935464200,2.067464111328125,2.1152162551879883,0.5938702821731567,0.12727206945419312
1696962660945478000,2.077477783203125,-2.085177421569824,-0.40766704082489014,-0.22097480297088623
1696962660955491600,2.08749169921875,2.334996223449707,0.6818467378616333,1.014510154724121
1696962660965505000,2.097505126953125,-0.4799022674560547,-0.15169739723205566,-0.5776427388191223
1696962660975518700,2.107518798828125,-0.6777067184448242,-0.0460435152053833,-0.1372445821762085
1696962660985532200,2.1175322265625,1.337615966796875,0.2160266637802124,0.39162182807922363
1696962660995545900,2.1275458984375,-0.3662586212158203,0.004973411560058594,0.14862483739852905
1696962661005559600,2.1375595703125,-0.49282073974609375,0.22287678718566895,0.23624354600906372
1696962661015573000,2.147572998046875,1.0967044830322266,0.14197731018066406,0.5167190432548523
1696962661025586700,2.157586669921875,-0.7915802001953125,0.2973001003265381,0.20780837535858154
1696962661035600100,2.16760009765625,0.6233415603637695,-0.42429542541503906,0.41090673208236694
1696962661045613800,2.17761376953125,-0.6102094650268555,0.689958930015564,-0.6085752248764038
1696962661055627500,2.18762744140625,0.3514108657836914,-0.807916522026062,0.6542757749557495
1696962661065641000,2.197640869140625,0.07274436950683594,0.16054606437683105,-0.20410019159317017
1696962661075654700,2.207654541015625,-2.3206887245178223,0.514346718788147,0.27637243270874023
1696962661085668000,2.217668212890625,1.6949434280395508,0.3476322889328003,0.43329918384552
1696962661095681800,2.227681884765625,-1.136061668395996,-0.14618408679962158,-1.0858633518218994
1696962661105695500,2.237695556640625,-0.5110292434692383,-0.3350846767425537,-0.39481979608535767
1696962661115709000,2.247708984375,-0.7038860321044922,0.4575164318084717,0.41903918981552124
1696962661125722600,2.25772265625,1.9787187576293945,-0.20155346393585205,-0.04537123441696167
1696962661135736300,2.267736328125,-0.18556785583496094,0.6713451147079468,0.17030704021453857
1696962661145750000,2.27775,0.5067281723022461,-0.5860892534255981,0.2235533595085144
1696962661155763500,2.287763427734375,-0.5880756378173828,0.5154614448547363,-0.24016153812408447
1696962661165777200,2.297777099609375,0.3682889938354492,-0.198400616645813,-0.8489903807640076
1696962661175790800,2.307790771484375,-0.5727062225341797,-0.10164046287536621,-0.14478492736816406
1696962661185804500,2.317804443359375,-0.22634029388427734,-0.16458892822265625,0.10613173246383667
1696962661195818200,2.327818359375,1.0336875915527344,0.11787497997283936,0.19338083267211914
1696962661205831700,2.337831787109375,-0.6637802124023438,0.3926975727081299,-0.7160229682922363
1696962661215845400,2.347845458984375,1.299971580505371,-0.7127727270126343,-0.04639279842376709
1696962661225859000,2.357859130859375,-0.4370450973510742,0.24872195720672607,-0.16241240501403809
1696962661235872800,2.367872802734375,-0.24352169036865234,0.0867849588394165,-0.04572528600692749
1696962661245886500,2.377886474609375,1.8416709899902344,0.3638201951980591,0.2500550150871277
1696962661255900000,2.38789990234375,-2.124344825744629,-0.2288581132888794,0.3464295268058777
1696962661265913600,2.39791357421875,1.3381729125976562,0.3974308967590332,0.7834585905075073
1696962661275927300,2.40792724609375,-1.320082664489746,0.3383975028991699,-0.781509280204773
1696962661285941000,2.41794091796875,0.42731189727783203,0.3393810987472534,0.8515936136245728
1696962661295954700,2.42795458984375,0.21504497528076172,-0.12316441535949707,-0.09731036424636841
1696962661305968000,2.437968017578125,-2.1801018714904785,0.1896364688873291,0.7876828908920288
1696962661315981800,2.44798193359375,3.0185060501098633,-0.02744877338409424,0.28829801082611084
1696962661325995500,2.45799560546875,-3.2485876083374023,-0.02362501621246338,-0.24646013975143433
1696962661336009200,2.46800927734375,2.022613525390625,0.7071493864059448,0.3429216742515564
1696962661346023000,2.47802294921875,-1.479130744934082,-0.362801194190979,-0.6974448561668396
1696962661356036400,2.488036376953125,-0.13188457489013672,-0.08441245555877686,0.5762932300567627
1696962661366050000,2.498050048828125,0.5984220504760742,0.3922806978225708,0.45593613386154175
1696962661376063700,2.508063720703125,-0.06785106658935547,-0.29308629035949707,0.2395627498626709
1696962661386077400,2.518077392578125,0.022937774658203125,0.3944448232650757,0.28140056133270264
1696962661396091100,2.528091064453125,1.4632883071899414,-0.2114027738571167,0.17401152849197388
1696962661406104600,2.5381044921875,-1.4627561569213867,0.33317887783050537,-0.01773136854171753
1696962661416118300,2.5481181640625,1.624983787536621,-0.5300791263580322,0.030289530754089355
1696962661426132000,2.558132080078125,-1.068028450012207,0.2638343572616577,-0.4980542063713074
1696962661436145700,2.568145751953125,1.4556379318237305,-0.5197818279266357,-0.17008143663406372
1696962661446159400,2.578159423828125,-1.0263729095458984,0.20659315586090088,0.09457004070281982
1696962661456172800,2.5881728515625,0.5522403717041016,-0.4140428304672241,-0.45767897367477417
1696962661466186500,2.5981865234375,0.35950183868408203,0.7554019689559937,0.22969263792037964
1696962661476200200,2.6082001953125,1.7512197494506836,0.10913515090942383,-0.37995731830596924
1696962661486214000,2.6182138671875,-2.4544248580932617,-0.8054882287979126,-0.05267012119293213
1696962661496227600,2.6282275390625,3.1044673919677734,0.06899607181549072,0.4197505712509155
1696962661506241000,2.638240966796875,-1.9367923736572266,0.4702337980270386,0.37395501136779785
1696962661516254700,2.648254638671875,2.3891143798828125,0.31373369693756104,0.18756067752838135
1696962661526268400,2.658268310546875,-2.927170753479004,-0.34234678745269775,-0.6094449162483215
1696962661536282000,2.6682822265625,0.8448047637939453,-0.44952869415283203,0.6540998816490173
1696962661546295800,2.6782958984375,-2.718964099884033,0.0674213171005249,-0.5229209661483765
1696962661556309200,2.688309326171875,1.7245216369628906,-1.0755316019058228,0.08848416805267334
1696962661566323000,2.698322998046875,-2.9592604637145996,0.3023958206176758,-0.19155257940292358
1696962661576336600,2.708336669921875,1.3473529815673828,-0.26501405239105225,0.5263819694519043
1696962661586350300,2.718350341796875,-1.6749496459960938,0.39201653003692627,-0.9052516222000122
1696962661596364000,2.728364013671875,-1.3252286911010742,-1.955907940864563,-0.1156693696975708
1696962661606377500,2.73837744140625,1.8581657409667969,1.0556141138076782,-0.1961025595664978
1696962661616391200,2.74839111328125,-2.2727341651916504,-0.6618205308914185,-0.74335777759552
1696962661626404900,2.75840478515625,1.606602668762207,-0.5470808744430542,0.5040947198867798
1696962661636418600,2.76841845703125,0.2922687530517578,0.40592825412750244,-0.1460466980934143
1696962661646432300,2.778432373046875,-0.5291767120361328,-0.3979226350784302,0.6467168927192688
1696962661656446000,2.788446044921875,2.0491456985473633,-0.06785500049591064,0.12305444478988647
1696962661666459400,2.79845947265625,-0.7937746047973633,-0.6787858009338379,-0.6353989839553833
1696962661676473000,2.80847314453125,2.5123987197875977,0.7467378377914429,0.5716508626937866
1696962661686486800,2.81848681640625,-0.8095693588256836,-0.7413642406463623,0.25250566005706787
1696962661696500500,2.82850048828125,0.9254999160766602,0.032562851905822754,0.45548534393310547
1696962661706514200,2.83851416015625,0.5545186996459961,0.1986827850341797,-0.41123485565185547
1696962661716527600,2.848527587890625,-0.4118175506591797,-0.2597832679748535,-0.3435857892036438
1696962661726541300,2.858541259765625,-0.004822731018066406,-0.09090828895568848,-0.7128864526748657
1696962661736555000,2.868554931640625,0.23365116119384766,-1.0165562629699707,-0.9022884964942932
1696962661746568700,2.878568603515625,-1.4226703643798828,0.7700048685073853,0.49356478452682495
1696962661756582400,2.88858251953125,1.3316669464111328,-0.6828352212905884,-0.3957066833972931
1696962661766595800,2.898595947265625,-2.1241455078125,0.6842870712280273,0.08115625381469727
1696962661776609500,2.908609619140625,1.4017038345336914,-0.6314481496810913,-0.3596096634864807
1696962661786623200,2.918623291015625,-1.6960797309875488,0.45314836502075195,0.0142134428024292
1696962661796637000,2.928636962890625,2.03774356842041,-0.25827932357788086,-0.1445481777191162
1696962661806650600,2.938650634765625,-1.5397329330444336,-0.5600392818450928,0.588426411151886
1696962661816664000,2.9486640625,1.124826431274414,0.17192602157592773,0.15933966636657715
1696962661826677800,2.958677734375,0.2373514175415039,0.12828874588012695,0.8952021598815918
1696962661836691500,2.96869140625,1.1623878479003906,0.22475242614746094,0.1781306266784668
1696962661846705200,2.978705078125,-1.2669658660888672,-0.27896416187286377,0.04298430681228638
1696962661856720600,2.988720703125,0.7609376907348633,0.05863547325134277,0.37967580556869507
1696962661866732500,2.998732666015625,-1.4856452941894531,-0.062199950218200684,0.23809683322906494
1696962661876744700,3.00874462890625,1.0969533920288086,-0.561431884765625,0.14012181758880615
1696962661886756900,3.0187568359375,-2.12506103515625,0.5480544567108154,-0.9645863771438599
1696962661896769000,3.02876904296875,1.0806312561035156,-0.2678966522216797,-0.09898990392684937
1696962661906781700,3.03878173828125,-1.5252923965454102,-0.7872335910797119,-0.7864772081375122
1696962661916794400,3.04879443359375,-1.1383275985717773,-0.18245482444763184,0.45896703004837036
1696962661926807300,3.058807373046875,2.4554014205932617,0.6430569887161255,-0.5803295969963074
1696962661936820700,3.06882080078125,-2.174919605255127,-0.42460572719573975,-0.15634310245513916
1696962661946834200,3.078834228515625,2.6118974685668945,-0.6071141958236694,-0.26484888792037964
1696962661956848000,3.08884814453125,-1.9379897117614746,0.11613118648529053,-0.07559478282928467
1696962661966862300,3.0988623046875,2.5521440505981445,-0.22677063941955566,0.38057470321655273
1696962661976876500,3.10887646484375,-0.9948148727416992,-0.48950302600860596,-0.4123268127441406
1696962661986891000,3.11889111328125,1.4248037338256836,0.2436615228652954,0.4339565634727478
1696962661996905700,3.12890576171875,0.46985435485839844,0.10738682746887207,-0.3493894934654236
1696962662006920400,3.13892041015625,1.1651487350463867,-1.1572896242141724,-0.3449840843677521
1696962662016935400,3.148935302734375,-1.3306121826171875,-0.0018175840377807617,0.308738112449646
1696962662026950100,3.1589501953125,2.336115837097168,0.38984978199005127,-0.23054563999176025
1696962662036964600,3.168964599609375,-1.286208152770996,-0.1822643280029297,-0.464706152677536
1696962662046978300,3.178978271484375,0.8195810317993164,-0.4467984437942505,0.062358349561691284
1696962662056992000,3.188991943359375,-0.7348213195800781,0.27813446521759033,-0.29341065883636475
1696962662067005400,3.19900537109375,-0.8662261962890625,-0.8556954860687256,-0.9944018125534058
1696962662077019100,3.20901904296875,0.8943367004394531,0.9215577840805054,-0.6761037707328796
1696962662087032800,3.21903271484375,-1.5386161804199219,-1.2861298322677612,-0.6966263055801392
1696962662097046500,3.229046630859375,-0.3490486145019531,0.9094502925872803,-0.03938013315200806
1696962662107060200,3.239060302734375,1.2281513214111328,-0.13149797916412354,-0.42160436511039734
1696962662117074000,3.249073974609375,-1.5308732986450195,0.02992093563079834,-0.4974455237388611
1696962662127087400,3.25908740234375,0.9334077835083008,-1.1491292715072632,-0.3144940137863159
1696962662137101000,3.26910107421875,-0.2587137222290039,0.7307326793670654,-0.3972834050655365
1696962662147114800,3.27911474609375,1.1901006698608398,0.3529421091079712,1.0915184020996094
1696962662157128400,3.28912841796875,0.7848224639892578,-0.09179162979125977,0.9554615020751953
1696962662167142100,3.29914208984375,-0.040053367614746094,-1.0439257621765137,-1.3974156379699707
1696962662177155600,3.309155517578125,-2.102773666381836,0.4422644376754761,-0.003587782382965088
1696962662187169300,3.319169189453125,2.999293327331543,0.6923142671585083,-0.10263487696647644
1696962662197183000,3.329182861328125,-4.694458961486816,-1.2330272197723389,-0.5672134757041931
1696962662207196700,3.33919677734375,2.9894580841064453,0.02840447425842285,-0.7600644826889038
1696962662217210400,3.34921044921875,-2.836610794067383,0.4645015001296997,-0.46737122535705566
1696962662227223800,3.359223876953125,3.763239860534668,-0.5948795080184937,0.6462820768356323
1696962662237237500,3.369237548828125,-2.5197978019714355,-0.841286301612854,-1.4681646823883057
1696962662247251200,3.379251220703125,1.2801132202148438,-0.18219029903411865,-0.7363851070404053
1696962662257265000,3.389264892578125,-0.9100456237792969,0.26241326332092285,0.7460840940475464
1696962662267278600,3.399278564453125,2.808497428894043,-0.09040689468383789,1.1659412384033203
1696962662277292000,3.4092919921875,-1.1691656112670898,-0.4492446184158325,0.12699848413467407
1696962662287305700,3.4193056640625,1.4902210235595703,-0.4580049514770508,0.8384625911712646
1696962662297319400,3.4293193359375,1.3378877639770508,0.9407850503921509,0.14234384894371033
1696962662307333000,3.4393330078125,-0.07977485656738281,-0.3590409755706787,0.7962194085121155
1696962662317346800,3.449346923828125,0.7849082946777344,-0.797601580619812,-0.11010447144508362
1696962662327360300,3.4593603515625,-1.8825726509094238,0.2047666311264038,-0.013515323400497437
1696962662337374000,3.4693740234375,0.7739410400390625,-0.20680654048919678,-0.6778067350387573
1696962662347387600,3.4793876953125,-1.1435976028442383,0.0785830020904541,-0.4117823541164398
1696962662357401300,3.4894013671875,-0.6431379318237305,-0.3965831995010376,-0.44297096133232117
1696962662367415000,3.4994150390625,-0.8127412796020508,0.10819041728973389,0.36076056957244873
1696962662377428500,3.509428466796875,0.1400470733642578,-0.22616755962371826,-0.22953757643699646
1696962662387442200,3.519442138671875,-1.656158447265625,0.10694921016693115,-0.5399289131164551
1696962662397456000,3.529455810546875,0.11620616912841797,-0.09891974925994873,-0.30477845668792725
1696962662407469600,3.539469482421875,-0.11303424835205078,-0.17655479907989502,0.03233453631401062
1696962662417483300,3.549483154296875,-0.017348289489746094,-0.2855647802352905,-0.7485607266426086
1696962662427496700,3.55949658203125,-0.5856990814208984,0.3655428886413574,-0.8269917368888855
1696962662437510400,3.569510498046875,0.40513038635253906,0.32088375091552734,0.29459449648857117
1696962662447524000,3.579524169921875,0.7331485748291016,-1.0443103313446045,-0.24391235411167145
1696962662457537800,3.589537841796875,-1.3612442016601562,0.14755046367645264,-0.7170549631118774
1696962662467551500,3.599551513671875,1.9963655471801758,0.18096590042114258,0.8924118876457214
1696962662477565000,3.60956494140625,0.6190853118896484,-0.2577788829803467,-0.9239594340324402
1696962662487578600,3.61957861328125,-1.307790756225586,-0.45283663272857666,0.42168107628822327
1696962662497592300,3.62959228515625,2.140559196472168,0.5841702222824097,0.6605592966079712
1696962662507606000,3.63960595703125,-1.6117944717407227,-0.7096446752548218,-1.091957449913025
1696962662517619700,3.64961962890625,-0.29808521270751953,0.08549678325653076,-0.25172096490859985
1696962662527633200,3.659633056640625,0.9593820571899414,-0.2692612409591675,-0.2501332461833954
1696962662537646800,3.669646728515625,-0.7585563659667969,0.024255752563476562,-0.3192228674888611
1696962662547660500,3.67966064453125,1.5221710205078125,-0.7730015516281128,-0.8967570066452026
1696962662557674200,3.68967431640625,-1.5058908462524414,-0.25569677352905273,-0.13626283407211304
1696962662567688000,3.69968798828125,2.110624313354492,-0.40931999683380127,0.0663301944732666
1696962662577701400,3.709701416015625,-0.7140893936157227,0.9390931129455566,0.3534567356109619
1696962662587715000,3.719715087890625,0.4590167999267578,-1.0910975933074951,0.16989976167678833
1696962662597728800,3.729728759765625,-0.0204010009765625,-0.6907752752304077,0.5187528133392334
1696962662607742500,3.739742431640625,0.7352752685546875,0.7558751106262207,0.7374067306518555
1696962662617756200,3.749756103515625,1.6121091842651367,0.6578832864761353,-0.21223796904087067
1696962662627769900,3.759769775390625,-1.7027482986450195,-0.7556823492050171,-0.40789493918418884
1696962662637783300,3.769783203125,0.7529029846191406,-0.8834401369094849,0.06594794988632202
1696962662647797000,3.779796875,-2.6080737113952637,0.6623752117156982,-1.0001928806304932
1696962662657810700,3.789810791015625,0.02742290496826172,-0.1733691692352295,-0.3018765449523926
1696962662667824400,3.799824462890625,0.7484521865844727,0.10041570663452148,-0.06210634112358093
1696962662677838000,3.809838134765625,-2.2344255447387695,-0.41766953468322754,-0.14634951949119568
1696962662687851500,3.8198515625,0.5903701782226562,0.9369398355484009,0.20895624160766602
1696962662697865200,3.829865234375,-0.5390958786010742,-0.21599149703979492,0.44351068139076233
1696962662707879000,3.83987890625,1.425858497619629,-0.8256393671035767,-0.005010932683944702
1696962662717892600,3.849892578125,-1.062643051147461,-0.025327682495117188,-0.12917113304138184
1696962662727906300,3.85990625,1.6777172088623047,0.043463945388793945,0.09765836596488953
1696962662737919700,3.869919677734375,-0.9069786071777344,0.36365485191345215,0.5550294518470764
1696962662747933400,3.879933349609375,0.5376081466674805,-0.6183990240097046,-0.381217360496521
1696962662757947100,3.889947021484375,-0.7686662673950195,-0.09016811847686768,-0.5956705808639526
1696962662767960800,3.8999609375,0.6237049102783203,-0.6242055892944336,-0.2978283762931824
1696962662777974500,3.909974609375,-0.13777542114257812,0.634652853012085,-0.06786948442459106
1696962662787988000,3.919988037109375,0.2354278564453125,-0.54813551902771,0.10968330502510071
1696962662798001700,3.930001708984375,0.8505105972290039,-0.5672280788421631,-0.44635164737701416
1696962662808015400,3.940015380859375,-2.3049607276916504,-0.07544589042663574,-0.2023368626832962
1696962662818029000,3.950029052734375,1.7625188827514648,0.2652320861816406,0.32036253809928894
1696962662828042800,3.960042724609375,-1.696807861328125,0.1969090700149536,-0.6223418712615967
1696962662838056200,3.97005615234375,0.5485420227050781,-1.7091648578643799,0.14865922927856445
1696962662848070000,3.98006982421875,0.021483421325683594,1.3825933933258057,-0.11601227521896362
1696962662858083600,3.99008349609375,2.019071578979492,0.05429518222808838,0.1288985013961792
1696962662868097300,4.00009716796875,-0.7387046813964844,-0.547049880027771,-0.49939775466918945
1696962662878111000,4.010111083984375,0.24301719665527344,-1.2541921138763428,0.6350682377815247
1696962662888124400,4.02012451171875,0.6822223663330078,0.9273296594619751,-0.0459248423576355
1696962662898138000,4.03013818359375,-0.5427579879760742,-0.14624130725860596,-0.2798408567905426
1696962662908151800,4.04015185546875,-0.3978242874145508,-0.3513936996459961,0.3855522871017456
1696962662918165500,4.05016552734375,0.10979366302490234,-0.1791762113571167,0.21408697962760925
1696962662928179200,4.06017919921875,-1.1375846862792969,0.21689856052398682,-0.17869795858860016
1696962662938193000,4.07019287109375,0.27530860900878906,0.18723011016845703,-0.3541968762874603
1696962662948206600,4.08020654296875,-0.6763858795166016,0.033534884452819824,0.3310280740261078
1696962662958220300,4.09022021484375,-0.7842416763305664,-0.6265214681625366,-0.029832810163497925
1696962662968234000,4.10023388671875,0.12545299530029297,-0.5008368492126465,-0.09965893626213074
1696962662978247700,4.11024755859375,0.5697517395019531,0.6096761226654053,-0.11954754590988159
1696962662988261400,4.120261474609375,-0.7028112411499023,-0.6824952363967896,0.13373354077339172
1696962662998275000,4.130275146484375,0.14505767822265625,0.480610728263855,0.29991963505744934
1696962663008288800,4.140288818359375,0.8515167236328125,-0.3026118278503418,0.3219122886657715
1696962663018302500,4.150302490234375,-0.8085203170776367,0.056353092193603516,0.5569964647293091
1696962663028316200,4.160316162109375,0.9183835983276367,0.009399771690368652,0.004685491323471069
1696962663038329900,4.170329833984375,-0.04492759704589844,-0.5432391166687012,-0.25999319553375244
1696962663048343600,4.180343505859375,1.0783805847167969,-0.24549531936645508,-0.30564433336257935
1696962663058357200,4.190357177734375,0.14402294158935547,0.18905043601989746,0.6110945343971252
1696962663068371000,4.200370849609375,0.5973577499389648,-0.14484107494354248,-0.4631902873516083
1696962663078384600,4.210384521484375,-0.6416540145874023,-0.6381843090057373,0.48935261368751526
1696962663088398300,4.2203984375,1.1188573837280273,0.11826050281524658,0.20655983686447144
1696962663098412000,4.230412109375,-0.5041437149047852,-0.2795764207839966,-0.6958022713661194
1696962663108425700,4.24042578125,-0.26320934295654297,-0.36145901679992676,0.7576450109481812
1696962663118439400,4.250439453125,0.7743406295776367,-0.19366204738616943,-0.7737908363342285
1696962663128453000,4.260453125,-1.5350522994995117,-0.12408769130706787,0.692777156829834
1696962663138466800,4.270466796875,3.061163902282715,0.14960646629333496,0.5343964099884033
1696962663148480500,4.28048046875,-1.9444589614868164,-0.012546181678771973,0.18135464191436768
1696962663158494200,4.290494140625,3.1302194595336914,0.15283608436584473,-0.0016443729400634766
1696962663168508000,4.3005078125,-1.9905424118041992,-0.9739629030227661,0.07987216114997864
1696962663178521600,4.310521484375,2.569037437438965,0.12211334705352783,0.8564202785491943
1696962663188535300,4.320535400390625,-2.9038262367248535,0.06544971466064453,0.38483765721321106
1696962663198549000,4.330549072265625,1.6142253875732422,-0.668752908706665,0.41736575961112976
1696962663208562700,4.340562744140625,-2.337034225463867,0.12430679798126221,-0.885765790939331
1696962663218576400,4.350576416015625,-0.08426856994628906,-0.7059986591339111,0.6072142124176025
1696962663228590000,4.360590087890625,-0.4997434616088867,0.5570496320724487,0.3232855796813965
1696962663238603800,4.370603759765625,-0.14465618133544922,-0.043631911277770996,-0.44397255778312683
1696962663248617500,4.380617431640625,0.5486268997192383,-0.6076816320419312,-0.9144625663757324
1696962663258631200,4.390631103515625,-3.0217580795288086,-0.7430967092514038,-0.001744091510772705
1696962663268644900,4.400644775390625,3.0357437133789062,1.4537197351455688,0.638515055179596
1696962663278658600,4.410658447265625,-2.4239792823791504,-0.44616591930389404,0.8037691116333008
1696962663288672300,4.42067236328125,0.5782890319824219,-0.6868370771408081,-0.2427283674478531
1696962663298686000,4.43068603515625,-1.6698265075683594,0.04697084426879883,0.3155829608440399
1696962663308699600,4.44069970703125,1.4557456970214844,1.5895142555236816,0.6855273246765137
1696962663318713300,4.45071337890625,0.27075862884521484,-0.5199416875839233,-0.36990147829055786
1696962663328727000,4.46072705078125,-3.8304452896118164,-1.6778792142868042,-1.2954683303833008
1696962663338740700,4.47074072265625,1.3025760650634766,1.0446689128875732,1.5227199792861938
1696962663348754400,4.48075439453125,1.8819599151611328,0.8992164134979248,-0.6540595293045044
1696962663358768000,4.49076806640625,-2.2524943351745605,-1.8333134651184082,-0.9363299608230591
1696962663368781800,4.50078173828125,1.3614492416381836,-0.6579135656356812,0.02285650372505188
1696962663378795500,4.51079541015625,-0.9638328552246094,0.6551921367645264,0.7254053354263306
1696962663388809200,4.520809326171875,1.527883529663086,0.7704890966415405,-0.42979368567466736
1696962663398823000,4.530822998046875,-1.1286582946777344,-0.8929188251495361,0.13747471570968628
1696962663408836600,4.540836669921875,0.016864776611328125,0.1411130428314209,0.09922486543655396
1696962663418850300,4.550850341796875,0.3840446472167969,-0.038332223892211914,-0.9313949942588806
1696962663428864000,4.560864013671875,1.3485603332519531,0.08694422245025635,0.384017676115036
1696962663438877700,4.570877685546875,2.5971193313598633,-0.7634556293487549,0.002378106117248535
1696962663448891400,4.580891357421875,-0.7208852767944336,0.17914199829101562,0.25177106261253357
1696962663458905000,4.590905029296875,1.9903936386108398,0.3463515043258667,0.7748541831970215
1696962663468918800,4.600918701171875,-1.4886837005615234,-0.15666532516479492,0.8127610683441162
1696962663478932500,4.610932373046875,0.1399059295654297,-0.5246132612228394,-0.04375365376472473
1696962663488946200,4.6209462890625,-0.44452953338623047,-1.141650676727295,-0.8257307410240173
1696962663498960000,4.6309599609375,-0.4183206558227539,0.9557777643203735,0.2580026090145111
1696962663508973600,4.6409736328125,2.5605010986328125,0.4821779727935791,0.36785686016082764
1696962663518987300,4.6509873046875,-1.9716253280639648,-0.7890185117721558,-0.5829871892929077
1696962663529001000,4.6610009765625,-0.08860301971435547,-0.6247080564498901,-0.5657413005828857
1696962663539014700,4.6710146484375,-0.06805610656738281,1.031201720237732,1.040473461151123
1696962663549028400,4.6810283203125,1.7475013732910156,0.23231184482574463,-0.6141373515129089
1696962663559042000,4.6910419921875,-3.718947410583496,-0.5001105070114136,-0.10964426398277283
1696962663569055700,4.7010556640625,2.3695526123046875,-0.21767103672027588,0.8853473663330078
1696962663579069400,4.7110693359375,-0.9813337326049805,0.7083425521850586,0.5048930644989014
1696962663589083100,4.721083251953125,0.8556127548217773,-0.23143696784973145,0.24621164798736572
1696962663599096800,4.731096923828125,-0.5420408248901367,0.18441402912139893,-0.8078304529190063
1696962663609110500,4.741110595703125,-0.836369514465332,-0.328586220741272,0.9066359996795654
1696962663619124200,4.751124267578125,1.0050125122070312,0.051859498023986816,-0.8541181087493896
1696962663629138000,4.761137939453125,-0.4129629135131836,-0.21298253536224365,-0.8587878942489624
1696962663639151600,4.771151611328125,-0.31524181365966797,0.005222439765930176,0.17538830637931824
1696962663649165300,4.781165283203125,0.9231510162353516,-0.4058494567871094,-0.14685070514678955
1696962663659179000,4.791178955078125,-1.0431385040283203,-0.23218226432800293,0.07733386754989624
1696962663669192700,4.801192626953125,1.7167930603027344,0.6721864938735962,-0.19906842708587646
1696962663679206400,4.811206298828125,-0.5854911804199219,-0.8128718137741089,0.25309640169143677
1696962663689220000,4.82122021484375,-0.16793060302734375,1.3731292486190796,0.0933988094329834
1696962663699233800,4.83123388671875,1.2275505065917969,-1.6163777112960815,0.031279146671295166
1696962663709247500,4.84124755859375,-0.5620613098144531,0.31618332862854004,0.24314391613006592
1696962663719261200,4.85126123046875,2.7699222564697266,0.18246173858642578,-0.4749608337879181
1696962663729275000,4.86127490234375,-1.7378544807434082,0.13005805015563965,0.5685718059539795
1696962663739288600,4.87128857421875,1.6693649291992188,-0.2958052158355713,0.4294971823692322
1696962663749302300,4.88130224609375,-1.7420597076416016,-0.8187334537506104,0.05687528848648071
1696962663759316000,4.89131591796875,1.9953479766845703,0.7830218076705933,1.0136467218399048
1696962663769329700,4.90132958984375,-0.46102046966552734,0.4677959680557251,-0.3276127576828003
1696962663779343400,4.91134326171875,-1.0421533584594727,-1.3764936923980713,0.08549797534942627
1696962663789357000,4.921357177734375,-0.5710725784301758,0.09318971633911133,0.22908133268356323
1696962663799370800,4.931370849609375,-0.3728160858154297,0.9916973114013672,-0.413784384727478
1696962663809384400,4.941384521484375,1.788224220275879,-0.5504508018493652,0.07728511095046997
1696962663819398100,4.951398193359375,-3.0803823471069336,-0.5236356258392334,-0.26290270686149597
1696962663829411800,4.961411865234375,1.831343650817871,0.439561128616333,1.3162846565246582
1696962663839425500,4.971425537109375,-0.1474323272705078,0.6401386260986328,-0.22975176572799683
1696962663849439200,4.981439208984375,-1.6943974494934082,-0.46553003787994385,0.37431901693344116
1696962663859453000,4.991452880859375,1.3872671127319336,0.18153166770935059,0.6859055161476135
1696962663869466600,5.001466552734375,-2.787874221801758,0.5901241302490234,-0.6974973678588867
1696962663879480000,5.01147998046875,0.062371253967285156,-0.31338608264923096,-0.07916867733001709
1696962663889493800,5.02149365234375,-0.8980989456176758,0.7431840896606445,0.24244797229766846
1696962663899507500,5.031507568359375,1.3402481079101562,-0.26109611988067627,-0.16454046964645386
1696962663909521200,5.041521240234375,-1.2198486328125,-0.5229233503341675,-0.3183821141719818
1696962663919534800,5.051534912109375,0.1835651397705078,0.31498873233795166,0.2623029351234436
1696962663929548300,5.06154833984375,0.3646049499511719,0.4003579616546631,-0.004554033279418945
1696962663939562000,5.07156201171875,0.09102725982666016,-0.6592298746109009,0.33201122283935547
1696962663949575700,5.08157568359375,-0.3248319625854492,0.7845418453216553,-0.599618673324585
1696962663959589400,5.09158935546875,0.02968311309814453,-0.22477495670318604,0.2769162654876709
1696962663969603000,5.10160302734375,0.6791286468505859,-0.29365456104278564,-0.41629326343536377
1696962663979616500,5.111616455078125,-0.06313037872314453,-0.18379509449005127,0.17182326316833496
1696962663989630200,5.121630126953125,1.7197599411010742,0.9207032918930054,0.41649287939071655
1696962663999644000,5.131643798828125,1.2609949111938477,-0.2656959295272827,-0.13885843753814697
1696962664009657600,5.14165771484375,-1.327357292175293,-1.1016758680343628,0.121249258518219
1696962664019671300,5.15167138671875,2.0071048736572266,1.2144672870635986,0.7806043028831482
1696962664029684700,5.161684814453125,-0.19171619415283203,-0.17536258697509766,-0.5235135555267334
1696962664039698400,5.171698486328125,-0.730865478515625,-0.7765516042709351,0.01388239860534668
1696962664049712000,5.181712158203125,0.738037109375,0.21904242038726807,-0.4472798705101013
1696962664059725800,5.191725830078125,-0.4245624542236328,-0.01747417449951172,0.376700758934021
1696962664069739500,5.201739501953125,0.9052648544311523,0.21631371974945068,-0.02803778648376465
1696962664079753200,5.211753173828125,-0.35384464263916016,-0.15320169925689697,0.02724158763885498
1696962664089767000,5.221766845703125,-0.04127979278564453,0.2937089204788208,0.9777854084968567
1696962664099780600,5.231780517578125,0.4264650344848633,0.09368693828582764,-0.4458461403846741
1696962664109794300,5.241794189453125,-1.2799291610717773,-0.18196642398834229,0.08167684078216553
1696962664119808000,5.25180810546875,1.3849315643310547,0.15915191173553467,0.33935028314590454
1696962664129821700,5.26182177734375,-2.961641788482666,0.2170100212097168,-0.0680316686630249
1696962664139835400,5.27183544921875,2.913304328918457,0.10487604141235352,0.16530835628509521
1696962664149849000,5.28184912109375,-4.0323004722595215,0.542801022529602,0.04162943363189697
1696962664159862800,5.29186279296875,2.271516799926758,0.647010087966919,0.3395897150039673
1696962664169876500,5.30187646484375,-1.7494688034057617,-0.9903717041015625,-0.7112565040588379
1696962664179890400,5.311890380859375,-0.6981658935546875,0.4797394275665283,-0.12892597913742065
1696962664189904100,5.321904052734375,0.8662652969360352,-0.3003922700881958,0.3880889415740967
1696962664199917800,5.331917724609375,-0.5126552581787109,0.8025304079055786,0.28459984064102173
1696962664209931500,5.341931640625,-0.3823881149291992,-0.3553915023803711,0.32111507654190063
1696962664219945500,5.351945556640625,1.1039562225341797,0.1315852403640747,-0.27719247341156006
1696962664229959200,5.361959228515625,-1.8279871940612793,-0.590086817741394,-0.015420198440551758
1696962664239972900,5.371972900390625,3.3274974822998047,0.5373871326446533,0.09499430656433105
1696962664249986600,5.381986572265625,-2.44381046295166,-0.21096229553222656,-0.10458517074584961
1696962664260000300,5.392000244140625,3.0199623107910156,0.22546708583831787,1.1196616888046265
1696962664270014200,5.40201416015625,-1.4712238311767578,-1.6605967283248901,-0.4792341887950897
1696962664280028000,5.41202783203125,0.5789289474487305,1.3425365686416626,0.9631734490394592
1696962664290041600,5.42204150390625,2.0778636932373047,0.1427140235900879,-0.043545663356781006
1696962664300055300,5.43205517578125,-1.2389869689941406,-0.9899780750274658,-0.06164538860321045
1696962664310069000,5.442069091796875,0.2123126983642578,-0.248083233833313,-0.2372668981552124
1696962664320083000,5.4520830078125,0.542048454284668,1.073248267173767,-0.3509582281112671
1696962664330096600,5.4620966796875,0.29692554473876953,-0.4299272298812866,-0.029526710510253906
1696962664340110300,5.4721103515625,-0.3241415023803711,-0.12635505199432373,0.5954486131668091
1696962664350124000,5.4821240234375,-0.43323230743408203,-0.5294376611709595,0.4323463439941406
1696962664360138000,5.492137939453125,1.3121089935302734,1.111098289489746,-0.24621719121932983
1696962664370151700,5.502151611328125,-0.8171262741088867,-0.033087730407714844,0.24699759483337402
1696962664380165400,5.512165283203125,1.0342979431152344,-0.3908489942550659,-0.39911550283432007
1696962664390179000,5.522178955078125,-2.676626682281494,0.6409085988998413,-0.2910458743572235
1696962664400192800,5.53219287109375,0.3078937530517578,-0.20312738418579102,-0.37166786193847656
1696962664410206500,5.54220654296875,-0.4292631149291992,0.2191941738128662,-0.042389512062072754
1696962664420220200,5.55222021484375,-0.8240957260131836,0.2938488721847534,0.8807079195976257
1696962664430233900,5.56223388671875,2.087615966796875,0.3135589361190796,0.24197512865066528
1696962664440247600,5.57224755859375,-0.9811067581176758,-0.2635214328765869,-0.3923869729042053
1696962664450261200,5.58226123046875,1.5159263610839844,0.11449921131134033,0.5848262310028076
1696962664460275000,5.59227490234375,-0.007607460021972656,-0.26317083835601807,0.36832237243652344
1696962664470288600,5.60228857421875,-0.304412841796875,0.8100839853286743,-0.3802940845489502
1696962664480302300,5.61230224609375,0.5086507797241211,-0.5637402534484863,-0.037214457988739014
1696962664490316000,5.62231591796875,0.019392013549804688,-0.07777166366577148,-0.05285733938217163
1696962664500329700,5.632329833984375,-1.4285593032836914,-0.06814813613891602,-0.5802245736122131
1696962664510343400,5.642343505859375,1.4227828979492188,0.63053297996521,0.5218845009803772
1696962664520357000,5.652357177734375,-0.028677940368652344,-0.9767765998840332,-0.27016377449035645
1696962664530370800,5.662370849609375,0.6833276748657227,-0.06659567356109619,0.07295656204223633
1696962664540384500,5.672384521484375,0.4955310821533203,-0.45456433296203613,-0.09157794713973999
1696962664550398200,5.682398193359375,0.29360103607177734,1.161623477935791,-0.5211728811264038
1696962664560412000,5.692411865234375,-1.5129728317260742,-1.2716704607009888,-0.33592671155929565
1696962664570425600,5.702425537109375,0.5454301834106445,0.23801183700561523,-0.17014366388320923
1696962664580439300,5.712439208984375,-0.7216472625732422,0.3253260850906372,-0.21146416664123535
1696962664590453000,5.722452880859375,-0.1888437271118164,0.4995650053024292,1.1425094604492188
1696962664600467000,5.732467041015625,0.991154670715332,-0.330031156539917,-0.8238804340362549
1696962664610480600,5.742480712890625,-1.0798521041870117,0.13528060913085938,0.6725522875785828
1696962664620494300,5.752494384765625,2.143850326538086,-0.25177502632141113,0.18275481462478638
1696962664630508000,5.762508056640625,-2.200953960418701,1.0923097133636475,-0.37151801586151123
1696962664640521700,5.772521728515625,0.4187774658203125,-0.8423720598220825,-0.06310075521469116
1696962664650535400,5.782535400390625,-1.2218818664550781,-0.11693954467773438,-0.35716837644577026
1696962664660549000,5.792549072265625,-1.1659889221191406,0.9391787052154541,0.18484681844711304
1696962664670562800,5.802562744140625,2.1668787002563477,-0.39831364154815674,-0.032093942165374756
1696962664680576500,5.812576416015625,-3.586986541748047,0.10312271118164062,0.4623721241950989
1696962664690590200,5.822590087890625,2.916065216064453,-0.0430525541305542,0.4542897939682007
1696962664700604000,5.83260400390625,0.4993467330932617,0.3222609758377075,-0.484921395778656
1696962664710617600,5.84261767578125,-0.1133108139038086,-0.2797715663909912,-0.5348845720291138
1696962664720631300,5.85263134765625,-0.8631658554077148,0.2264385223388672,-0.3132423758506775
1696962664730645000,5.86264501953125,0.9971170425415039,-0.5689079761505127,-0.42168283462524414
1696962664740658700,5.87265869140625,-1.16021728515625,0.48265767097473145,-0.08112180233001709
1696962664750672400,5.88267236328125,2.2878780364990234,-0.6112110614776611,0.18921589851379395
1696962664760686000,5.89268603515625,-3.1891846656799316,0.560478925704956,0.14233732223510742
1696962664770699800,5.90269970703125,3.236536979675293,-0.5251470804214478,0.6635701656341553
1696962664780713500,5.91271337890625,-0.21222877502441406,-0.3813762664794922,-0.4855418801307678
1696962664790727200,5.92272705078125,-0.45517539978027344,-0.23725557327270508,-0.32082056999206543
1696962664800740900,5.932740966796875,-0.491241455078125,1.1266109943389893,0.9298569560050964
1696962664810754600,5.942754638671875,1.4913148880004883,-0.9879597425460815,-1.2772706747055054
1696962664820768300,5.952768310546875,-3.276068687438965,0.04850304126739502,-0.22104603052139282
1696962664830782000,5.962781982421875,3.0410404205322266,-0.14549612998962402,0.6986534595489502
1696962664840795600,5.972795654296875,-3.2695136070251465,0.8626184463500977,-0.141790509223938
1696962664850809300,5.982809326171875,2.2049407958984375,0.39947712421417236,-0.22030502557754517
1696962664860823000,5.992822998046875,-2.631661891937256,-1.524853229522705,0.2521529197692871
1696962664870836700,6.002836669921875,2.6511621475219727,0.6728960275650024,0.07396572828292847
1696962664880850400,6.012850341796875,-2.187032699584961,0.39804744720458984,-0.6547327041625977
1696962664890864000,6.022864013671875,0.2080240249633789,0.10651230812072754,-0.2133740782737732
1696962664900877800,6.0328779296875,-0.5716514587402344,0.30807507038116455,0.36990976333618164
1696962664910891500,6.0428916015625,-1.1626501083374023,-0.6876866817474365,0.5363277196884155
1696962664920905200,6.0529052734375,0.9759206771850586,1.018414855003357,0.7117298245429993
1696962664930919000,6.0629189453125,0.8247699737548828,0.04756796360015869,0.04970824718475342
1696962664940932600,6.0729326171875,0.41643714904785156,-0.6358801126480103,-0.36538851261138916
1696962664950946300,6.0829462890625,-0.258453369140625,-0.26030290126800537,0.583029568195343
1696962664960960000,6.0929599609375,1.2088899612426758,1.2369297742843628,-0.42139288783073425
1696962664970973700,6.1029736328125,-0.4146137237548828,-1.0061736106872559,-0.5129464268684387
1696962664980987400,6.1129873046875,0.15967464447021484,0.22174406051635742,-0.5807508826255798
1696962664991001000,6.1230009765625,-1.1830987930297852,-0.7568244934082031,1.0460741519927979
1696962665001014800,6.133014892578125,3.2160797119140625,0.6142207384109497,0.3269925117492676
1696962665011028500,6.143028564453125,-1.3512582778930664,-0.07096433639526367,0.5541975498199463
1696962665021042200,6.153042236328125,2.700176239013672,-0.15261971950531006,-0.4486910104751587
1696962665031056000,6.163055908203125,-2.0617141723632812,-0.6163756847381592,-0.7029072642326355
1696962665041069600,6.173069580078125,-0.38822078704833984,-0.018640995025634766,-0.9495193958282471
1696962665051083300,6.183083251953125,0.8362026214599609,0.34399402141571045,0.30623626708984375
1696962665061097000,6.193096923828125,-0.7327241897583008,0.8911935091018677,-0.4469515085220337
1696962665071110700,6.203110595703125,-0.592437744140625,-1.2374285459518433,0.6740199327468872
1696962665081124400,6.213124267578125,0.1931905746459961,-0.21744370460510254,0.6256897449493408
1696962665091138000,6.223137939453125,1.052703857421875,1.3024324178695679,0.10814023017883301
1696962665101151700,6.23315185546875,-0.06784343719482422,-0.9102228879928589,-0.43861955404281616
1696962665111165400,6.24316552734375,-0.1725482940673828,-0.35485923290252686,0.383819043636322
1696962665121179100,6.25317919921875,0.5115299224853516,0.8342841863632202,0.6656914949417114
1696962665131192800,6.26319287109375,1.0354804992675781,0.6650784015655518,-0.48980140686035156
1696962665141206500,6.27320654296875,-3.2439661026000977,-1.507473349571228,-0.007803857326507568
1696962665151220200,6.28322021484375,1.060373306274414,0.9234409332275391,0.32499873638153076
1696962665161234000,6.29323388671875,-0.1130523681640625,-0.12199938297271729,0.35564082860946655
1696962665171247600,6.30324755859375,-0.18439769744873047,0.8207125663757324,-0.5858420729637146
1696962665181261300,6.31326123046875,-1.034524917602539,-0.922378420829773,-0.2177654504776001
1696962665191275000,6.32327490234375,2.4614667892456055,0.28534841537475586,-0.23931610584259033
1696962665201288700,6.333288818359375,-1.5921592712402344,0.10170495510101318,-0.5365244150161743
1696962665211302400,6.343302490234375,1.045318603515625,-0.0332951545715332,0.16057908535003662
1696962665221316000,6.353316162109375,-1.2799034118652344,0.07627284526824951,0.22885721921920776
1696962665231329800,6.363329833984375,0.2718658447265625,-0.5498394966125488,0.8364929556846619
1696962665241343500,6.373343505859375,0.5485744476318359,0.19494163990020752,0.8803253769874573
1696962665251357200,6.383357177734375,0.81915283203125,0.40134167671203613,0.09788459539413452
1696962665261371000,6.393370849609375,-1.7819814682006836,-0.3336155414581299,-0.550679624080658
1696962665271384600,6.403384521484375,2.045229911804199,-0.3085660934448242,0.04970991611480713
1696962665281398300,6.413398193359375,-2.356698989868164,1.084104299545288,-1.2991957664489746
1696962665291412000,6.423411865234375,0.35938549041748047,-0.6949762105941772,-0.7447393536567688
1696962665301425700,6.43342578125,-0.6735334396362305,-1.476414680480957,1.6406148672103882
1696962665311439400,6.443439453125,1.124741554260254,1.1851270198822021,0.11980181932449341
1696962665321453000,6.453453125,0.10455608367919922,0.581642746925354,-0.08095932006835938
1696962665331466800,6.463466796875,-0.6414432525634766,-0.9233038425445557,-0.09719175100326538
1696962665341480400,6.47348046875,-0.3051414489746094,0.5221095085144043,0.020050346851348877
1696962665351494100,6.483494140625,0.36949825286865234,0.39983367919921875,-0.023848116397857666
1696962665361507800,6.4935078125,-0.4629850387573242,-0.1111750602722168,-0.0945519208908081
1696962665371521500,6.503521484375,0.5989599227905273,-0.09670066833496094,0.3148579001426697
1696962665381535200,6.51353515625,0.5878572463989258,-0.3121066093444824,0.221169114112854
1696962665391549000,6.523548828125,0.2525205612182617,0.007936954498291016,0.4844435453414917
1696962665401562600,6.533562744140625,1.5081701278686523,0.9403200149536133,-0.2392951250076294
1696962665411576300,6.543576416015625,-1.7251691818237305,-1.1474792957305908,0.5617269277572632
1696962665421590000,6.553590087890625,2.99038028717041,0.578012228012085,-0.6650539636611938
1696962665431603700,6.563603759765625,-2.3738765716552734,-0.5687782764434814,-0.1978709101676941
1696962665441617400,6.573617431640625,4.12236213684082,0.6788407564163208,1.0217349529266357
1696962665451631000,6.583631103515625,-0.6767053604125977,-0.3889397382736206,0.020591378211975098
1696962665461644800,6.593644775390625,0.6921491622924805,0.007213592529296875,0.4678671956062317
1696962665471658500,6.603658447265625,0.6284923553466797,-0.2664926052093506,1.0932722091674805
1696962665481672200,6.613672119140625,-0.3669319152832031,0.28743672370910645,-0.7442110180854797
1696962665491686000,6.623685791015625,-0.6388130187988281,-1.2431203126907349,-1.3453903198242188
1696962665501699600,6.633699462890625,-0.014707565307617188,1.6153839826583862,0.3978915214538574
1696962665511713300,6.64371337890625,0.9841327667236328,-0.11017930507659912,-0.3977423310279846
1696962665521727000,6.65372705078125,-3.486060619354248,-1.4318866729736328,-0.07784336805343628
1696962665531740700,6.66374072265625,2.888190269470215,0.08794808387756348,0.9086383581161499
1696962665541754400,6.67375439453125,-2.255250930786133,1.1619219779968262,-0.2427295446395874
1696962665551768000,6.68376806640625,2.0560779571533203,-1.253660798072815,0.26517510414123535
1696962665561781800,6.69378173828125,-2.4456472396850586,0.3578606843948364,-0.49620291590690613
1696962665571795500,6.70379541015625,0.7199153900146484,1.0768705606460571,0.21317994594573975
1696962665581809200,6.71380908203125,-0.6631641387939453,-1.0525845289230347,-0.6780312657356262
1696962665591822800,6.72382275390625,-2.735208034515381,0.44501185417175293,0.35217612981796265
1696962665601836500,6.73383642578125,3.178253173828125,0.07531702518463135,0.7961285710334778
1696962665611850200,6.743850341796875,-2.492366313934326,-0.17022407054901123,0.32852351665496826
1696962665621864000,6.753864013671875,1.2318801879882812,0.7385745048522949,0.6185985803604126
1696962665631877600,6.763877685546875,-0.25310707092285156,-0.02784430980682373,0.3325191140174866
1696962665641891300,6.773891357421875,-1.0311384201049805,0.25945234298706055,-0.12428522109985352
1696962665651905000,6.783905029296875,1.3594684600830078,-0.31128036975860596,-1.1322953701019287
1696962665661918700,6.793918701171875,-3.27876615524292,-0.3982992172241211,0.5019457936286926
1696962665671932400,6.803932373046875,3.864145278930664,-0.10509788990020752,0.8573789000511169
1696962665681946000,6.813946044921875,-2.17179012298584,0.7115156650543213,0.4561358690261841
1696962665691959800,6.823959716796875,3.768313407897949,-0.7259839773178101,0.24543702602386475
1696962665701973500,6.833973388671875,-3.389896869659424,-0.29183900356292725,0.1522952914237976
1696962665711987200,6.8439873046875,3.3180675506591797,0.2948364019393921,0.03916013240814209
1696962665722001000,6.8540009765625,-1.5510692596435547,0.16569697856903076,-1.7538172006607056
1696962665732014600,6.8640146484375,1.2635746002197266,-0.8676116466522217,0.4907572269439697
1696962665742028300,6.8740283203125,-0.1631908416748047,-0.17675399780273438,0.07798498868942261
1696962665752042000,6.8840419921875,-0.7555513381958008,-0.5278141498565674,0.17924457788467407
1696962665762055700,6.8940556640625,1.4208240509033203,0.9964118003845215,-0.5912847518920898
1696962665772069400,6.9040693359375,-0.09714412689208984,-0.8805184364318848,0.42246633768081665
1696962665782083000,6.9140830078125,0.3866004943847656,-0.5180058479309082,-0.21935635805130005
1696962665792096800,6.9240966796875,0.026683807373046875,1.0225319862365723,-0.5550910830497742
1696962665802110500,6.9341103515625,1.0792207717895508,-0.56031334400177,0.22375833988189697
1696962665812124200,6.944124267578125,-0.3573493957519531,0.932848334312439,0.5824235677719116
1696962665822137900,6.954137939453125,-0.5564041137695312,-0.6398986577987671,0.911419153213501
1696962665832151600,6.964151611328125,2.1057262420654297,0.2145143747329712,-0.1722739338874817
1696962665842165200,6.974165283203125,-2.1419081687927246,-0.5553090572357178,0.7942128777503967
1696962665852179000,6.984178955078125,3.487180709838867,0.6435728073120117,0.25332289934158325
1696962665862192600,6.994192626953125,-3.1585636138916016,0.5191171169281006,0.07922810316085815
1696962665872206300,7.004206298828125,3.0369348526000977,-0.39204084873199463,-0.5598390102386475
1696962665882220000,7.014219970703125,-3.7653913497924805,0.08768224716186523,1.109702706336975
1696962665892234000,7.02423388671875,3.750765800476074,-0.5735937356948853,-0.13267511129379272
1696962665902247700,7.03424755859375,-5.319074630737305,-0.1736842393875122,0.031159639358520508
1696962665912261400,7.044261474609375,4.232892990112305,0.09429419040679932,0.8181341290473938
1696962665922275000,7.054275146484375,-2.9077696800231934,0.0024346113204956055,-0.1302739381790161
1696962665932289000,7.0642890625,0.42053794860839844,0.5106955766677856,0.16710317134857178
1696962665942302700,7.074302734375,0.24718093872070312,-0.7626858949661255,-0.5474356412887573
1696962665952316400,7.08431640625,-2.1856942176818848,-0.6798825263977051,-0.5062713027000427
1696962665962330000,7.094330078125,-0.03446388244628906,0.4785785675048828,0.6124017834663391
1696962665972343800,7.10434375,-0.4117584228515625,-0.007533907890319824,0.2090895175933838
1696962665982357800,7.114357666015625,0.2148590087890625,-0.22023916244506836,-0.06324005126953125
1696962665992371500,7.124371337890625,-2.3613076210021973,-0.2832365036010742,0.0710631012916565
1696962666002385200,7.13438525390625,0.34923267364501953,0.39256763458251953,0.18620425462722778
1696962666012398800,7.14439892578125,1.141092300415039,0.4599694013595581,-0.5160266160964966
1696962666022412500,7.15441259765625,-0.9261617660522461,-0.39708900451660156,-0.29068928956985474
1696962666032426500,7.164426513671875,0.24210739135742188,-0.3227107524871826,1.0016579627990723
1696962666042440200,7.174440185546875,0.12650203704833984,1.4604065418243408,0.3602927327156067
1696962666052454000,7.184453857421875,1.793137550354004,-1.4987024068832397,-0.6844568252563477
1696962666062467600,7.194467529296875,-3.1289801597595215,-0.13148343563079834,-0.7437758445739746
1696962666072481300,7.204481201171875,0.7788105010986328,0.28996479511260986,0.9947106242179871
1696962666082495200,7.2144951171875,2.3910017013549805,0.40611135959625244,-0.8481900095939636
1696962666092509000,7.224509033203125,-1.2508773803710938,-0.39902162551879883,0.9193611741065979
1696962666102522600,7.234522705078125,2.531728744506836,0.6416138410568237,0.8971867561340332
1696962666112536300,7.244536376953125,-0.31405067443847656,-1.3949956893920898,-0.5137620568275452
1696962666122550300,7.25455029296875,0.9009609222412109,0.4392054080963135,0.9610896110534668
1696962666132564000,7.26456396484375,1.3094463348388672,0.04624652862548828,1.1209676265716553
1696962666142577700,7.27457763671875,-1.1168947219848633,0.3743056058883667,-0.011724293231964111
1696962666152591400,7.28459130859375,0.7726840972900391,-1.2862482070922852,-0.5799412131309509
1696962666162605000,7.29460498046875,-1.2842731475830078,1.2449510097503662,-0.720339834690094
1696962666172619000,7.304618896484375,0.678309440612793,-0.41669797897338867,0.5393023490905762
1696962666182632700,7.3146328125,-0.6188688278198242,-1.284045696258545,0.06725633144378662
1696962666192646400,7.324646484375,0.09965229034423828,0.10833144187927246,-0.37935054302215576
1696962666202660000,7.33466015625,0.023206710815429688,0.3268871307373047,-0.3131224513053894
1696962666212673800,7.344673828125,-0.005722999572753906,0.3043409585952759,-0.8512418866157532
1696962666222687700,7.354687744140625,-2.418858528137207,-0.9980080127716064,-0.8238284587860107
1696962666232701400,7.364701416015625,1.7024154663085938,0.13181936740875244,1.4830543994903564
1696962666242715100,7.374715087890625,1.7215261459350586,0.7302131652832031,-0.12585651874542236
1696962666252728800,7.384728759765625,-1.9138798713684082,-0.15396857261657715,0.5556005835533142
1696962666262742500,7.394742431640625,2.3963727951049805,-0.009373307228088379,1.0079059600830078
1696962666272756200,7.404756103515625,-1.2037267684936523,0.29285454750061035,-0.48836061358451843
1696962666282770000,7.41477001953125,-1.6113176345825195,-0.2734060287475586,-0.775766134262085
1696962666292783600,7.42478369140625,0.012372970581054688,-0.17099106311798096,0.3905404210090637
1696962666302797600,7.434797607421875,-0.7279138565063477,0.344174861907959,0.38038933277130127
1696962666312811300,7.444811279296875,0.3389863967895508,-1.0470529794692993,-0.16891491413116455
1696962666322825000,7.454824951171875,-0.8464899063110352,0.13022029399871826,0.6271816492080688
1696962666332838700,7.464838623046875,2.481172561645508,1.0102689266204834,-0.020913302898406982
1696962666342852400,7.474852294921875,-2.150589942932129,-1.4267776012420654,-0.04237937927246094
1696962666352866000,7.484865966796875,0.37269020080566406,0.4767559766769409,-0.29310280084609985
1696962666362879700,7.494879638671875,-0.694087028503418,0.6759910583496094,-0.10244745016098022
1696962666372893400,7.5048935546875,-0.2811307907104492,-0.45427238941192627,0.3308477997779846
1696962666382907100,7.5149072265625,0.3495779037475586,-1.0859044790267944,0.7707901000976562
1696962666392920800,7.5249208984375,-0.11956405639648438,0.7944270372390747,0.6641678810119629
1696962666402934500,7.5349345703125,1.6774587631225586,-0.4988827705383301,0.30132555961608887
1696962666412948200,7.5449482421875,0.24888324737548828,0.013828039169311523,-0.3831963539123535
1696962666422962000,7.5549619140625,-0.11480331420898438,-0.26460278034210205,0.08768784999847412
1696962666432975600,7.5649755859375,0.1385049819946289,0.05108082294464111,-0.2882158160209656
1696962666442989300,7.5749892578125,-1.142186164855957,0.07325255870819092,0.23076745867729187
1696962666453003000,7.5850029296875,0.3563108444213867,-0.4004448652267456,0.7083127498626709
1696962666463016700,7.5950166015625,-0.5001440048217773,-0.24661767482757568,-0.5522119998931885
1696962666473030400,7.605030517578125,0.8875112533569336,0.822777271270752,0.3868025839328766
1696962666483044000,7.615044189453125,1.1334333419799805,-0.02004861831665039,-0.9509388208389282
1696962666493057800,7.625057861328125,0.3377256393432617,-0.7431012392044067,-0.7417097687721252
1696962666503071500,7.635071533203125,0.2082805633544922,0.7013506889343262,1.1176564693450928
1696962666513085200,7.645085205078125,0.551823616027832,-0.39587461948394775,0.3832789659500122
1696962666523099000,7.655098876953125,0.6078252792358398,-0.6055293083190918,0.35433539748191833
1696962666533112600,7.665112548828125,1.3807401657104492,0.37967240810394287,0.3992479741573334
1696962666543126300,7.675126220703125,0.053664207458496094,0.6443884372711182,0.13466161489486694
1696962666553140000,7.685139892578125,0.8800430297851562,-0.4989432096481323,-0.4166666865348816
1696962666563153700,7.695153564453125,-0.9619617462158203,0.07499492168426514,-1.1316609382629395
1696962666573167400,7.70516748046875,-1.8666658401489258,-0.10087358951568604,1.0599353313446045
1696962666583181000,7.71518115234375,1.4876089096069336,-0.9640331268310547,0.24824610352516174
1696962666593194800,7.72519482421875,-3.5529842376708984,-0.055562734603881836,-1.3687608242034912
1696962666603208400,7.73520849609375,2.712409019470215,0.12400078773498535,0.5231670141220093
1696962666613222100,7.74522216796875,-0.5486249923706055,-0.2698019742965698,-0.3610101044178009
1696962666623235800,7.75523583984375,-0.37514781951904297,-0.20714318752288818,-1.0967957973480225
1696962666633249500,7.76524951171875,-0.8942461013793945,0.009145021438598633,0.4564507007598877
1696962666643263200,7.77526318359375,0.19818401336669922,0.7059842348098755,1.2783184051513672
1696962666653277000,7.78527685546875,-1.2651262283325195,0.21207201480865479,0.45687776803970337
1696962666663290600,7.79529052734375,-0.21534442901611328,-0.35702192783355713,0.37835147976875305
1696962666673304300,7.80530419921875,-0.061893463134765625,-0.17473328113555908,0.9710447788238525
1696962666683318000,7.815318115234375,0.6261892318725586,0.891400933265686,-0.2307738959789276
1696962666693331700,7.825331787109375,0.9393243789672852,-0.6391615867614746,-0.5251566171646118
1696962666703345400,7.835345458984375,-1.1462440490722656,0.030924320220947266,0.1723322570323944
1696962666713359000,7.845359130859375,-1.0241127014160156,-0.3562427759170532,1.0936850309371948
1696962666723372800,7.855372802734375,1.1762809753417969,0.48242342472076416,0.9953064322471619
1696962666733386500,7.865386474609375,0.6470966339111328,-0.8409963846206665,-0.5022604465484619
1696962666743400200,7.875400146484375,-2.087714195251465,-0.12335705757141113,-0.3462613821029663
1696962666753414000,7.885413818359375,3.522433280944824,-0.27410316467285156,-0.7274290919303894
1696962666763427600,7.895427490234375,-1.8575129508972168,0.8009748458862305,-1.1184266805648804
1696962666773441300,7.905441162109375,0.5513505935668945,-0.5974838733673096,1.1308633089065552
1696962666783455000,7.915455078125,0.7456760406494141,-1.0403127670288086,0.754885196685791
1696962666793468700,7.92546875,-0.6034746170043945,0.3810558319091797,0.6660095453262329
1696962666803482400,7.935482421875,2.6760339736938477,0.29421842098236084,-0.5469754338264465
1696962666813496000,7.94549609375,-0.20201778411865234,-0.4172762632369995,-0.39628300070762634
1696962666823509800,7.955509765625,0.8973207473754883,-0.0756293535232544,-0.8568799495697021
1696962666833523500,7.9655234375,-1.3506145477294922,0.38611316680908203,0.2001100480556488
1696962666843537200,7.975537109375,1.4103775024414062,-0.22256243228912354,0.8304034471511841
1696962666853550800,7.98555078125,-2.7122488021850586,-0.1667156219482422,-0.2900409996509552
1696962666863564500,7.995564453125,0.8499660491943359,0.001956939697265625,-0.15186238288879395
1696962666873578200,8.005578125,-0.5903444290161133,-0.35777175426483154,-0.5682970285415649
1696962666883592000,8.015592041015625,1.724146842956543,0.8627338409423828,-1.6360201835632324
1696962666893605600,8.025605712890625,-1.8161425590515137,-0.37861061096191406,-0.6564511060714722
1696962666903619300,8.035619384765624,1.7350292205810547,-0.15822649002075195,2.1247775554656982
1696962666913633000,8.045633056640625,-1.0650863647460938,0.1045914888381958,1.1045856475830078
1696962666923646700,8.055646728515624,-0.32166481018066406,0.28161191940307617,0.048440903425216675
1696962666933660400,8.065660400390625,0.5341110229492188,-1.251556396484375,0.30029842257499695
1696962666943674000,8.075674072265626,0.6909332275390625,0.9297887086868286,-0.0881229043006897
1696962666953688000,8.08568798828125,0.9800968170166016,-0.6828445196151733,-1.0271544456481934
1696962666963701800,8.09570166015625,-0.871119499206543,0.10614323616027832,-0.1117222011089325
1696962666973715500,8.105715576171875,-0.25673675537109375,0.06512784957885742,1.5222619771957397
1696962666983729200,8.115729248046875,0.5653276443481445,-0.8799271583557129,-0.023649394512176514
1696962666993742800,8.125742919921874,-3.1679282188415527,-0.8173203468322754,-0.02811896800994873
1696962667003756800,8.1357568359375,2.2689132690429688,0.579506516456604,-0.6946656703948975
1696962667013770500,8.1457705078125,-1.5306205749511719,-0.6725051403045654,-1.2244760990142822
1696962667023784200,8.1557841796875,1.522369384765625,0.7301654815673828,-0.29573577642440796
1696962667033798000,8.1657978515625,-0.937251091003418,-0.3781217336654663,0.3956015706062317
1696962667043811600,8.1758115234375,-0.23186874389648438,-0.04412996768951416,1.3023475408554077
1696962667053825500,8.185825439453126,0.07421207427978516,0.5498191118240356,0.5799170732498169
1696962667063839200,8.195839111328125,-0.12166213989257812,-0.29830431938171387,-0.41251662373542786
1696962667073853000,8.20585302734375,-0.4031524658203125,-0.2792466878890991,0.10905653238296509
1696962667083866600,8.21586669921875,1.9674291610717773,0.19314396381378174,-0.7430336475372314
1696962667093880600,8.225880615234376,-0.9757022857666016,0.7534390687942505,0.5483981966972351
1696962667103894300,8.235894287109375,1.2150850296020508,-0.6710493564605713,1.2714394330978394
1696962667113908000,8.245907958984375,-0.7234888076782227,-0.2060236930847168,0.9832067489624023
1696962667123921700,8.255921630859374,0.11446666717529297,-0.02792966365814209,-0.06991750001907349
1696962667133935400,8.265935302734375,-0.34949684143066406,-0.11396980285644531,-0.35394540429115295
1696962667143949300,8.27594921875,0.6306495666503906,-0.9244058132171631,-2.210007905960083
1696962667153963000,8.285962890625,-1.7882699966430664,0.6045680046081543,-0.24226266145706177
1696962667163976700,8.295976806640626,2.2211036682128906,0.04910910129547119,0.8537496328353882
1696962667173990400,8.305990478515625,-0.45592498779296875,0.15469062328338623,0.13325709104537964
1696962667184004000,8.316004150390626,-0.24899578094482422,-1.73880934715271,0.11043238639831543
1696962667194018000,8.32601806640625,0.8465242385864258,0.4381324052810669,0.594275712966919
1696962667204031700,8.33603173828125,0.36177825927734375,0.006567716598510742,-0.6350643634796143
1696962667214045400,8.34604541015625,0.8103418350219727,0.15323209762573242,-1.3928792476654053
1696962667224059100,8.35605908203125,-1.8668394088745117,-0.15602445602416992,1.2626631259918213
1696962667234073000,8.366072998046874,2.467226028442383,0.16552937030792236,1.1051498651504517
1696962667244086800,8.376086669921875,-1.9162373542785645,0.43501710891723633,0.36077314615249634
1696962667254100500,8.3861005859375,1.0660839080810547,-0.6890578269958496,0.2407051920890808
1696962667264114200,8.3961142578125,-0.14124202728271484,0.1541670560836792,-0.19904965162277222
1696962667274128000,8.4061279296875,1.1975164413452148,0.5877646207809448,-0.702688455581665
1696962667284141600,8.4161416015625,-0.34423065185546875,-0.28415536880493164,0.07414132356643677
1696962667294155300,8.4261552734375,-0.921116828918457,-0.3895515203475952,0.6555840373039246
1696962667304169000,8.4361689453125,-0.5943517684936523,0.32492756843566895,1.3371119499206543
1696962667314182700,8.4461826171875,-0.4877023696899414,-0.22108912467956543,-0.0512462854385376
1696962667324196400,8.4561962890625,-1.2319679260253906,-0.32076942920684814,-0.023550808429718018
1696962667334210000,8.4662099609375,0.027523040771484375,0.25986719131469727,-1.2771828174591064
1696962667344223700,8.4762236328125,-0.9040126800537109,-0.057271718978881836,0.07882821559906006
1696962667354237400,8.486237548828125,0.8424997329711914,-0.1897296905517578,0.9504479169845581
1696962667364251100,8.496251220703124,-0.5794305801391602,0.14152395725250244,0.1838037371635437
1696962667374264800,8.506264892578125,0.0817270278930664,-0.695838451385498,0.4972008466720581
1696962667384278500,8.516278564453126,-1.1996135711669922,-0.3671441078186035,-0.005724906921386719
1696962667394292200,8.526292236328125,-0.0068531036376953125,0.16446316242218018,-0.7816545367240906
1696962667404306000,8.536305908203126,-0.3511466979980469,0.5098358392715454,-1.0107040405273438
1696962667414319600,8.546319580078125,-1.4729633331298828,-0.6905537843704224,0.054150402545928955
1696962667424333300,8.556333251953125,0.5802898406982422,0.6994874477386475,-0.019308924674987793
1696962667434347000,8.566346923828124,-0.40998363494873047,-0.4695059061050415,0.540744960308075
1696962667444360700,8.576360595703125,1.8990497589111328,-0.39431726932525635,0.8657248616218567
1696962667454374400,8.58637451171875,-0.3043689727783203,-0.43528640270233154,-0.414523184299469
1696962667464388000,8.59638818359375,0.986912727355957,0.7319855690002441,0.21816498041152954
1696962667474401800,8.60640185546875,1.5527000427246094,-0.07088470458984375,0.17660802602767944
1696962667484415700,8.616415771484375,-0.7641801834106445,0.7134836912155151,0.3462582230567932
1696962667494429400,8.626429443359376,0.3749122619628906,-0.8072508573532104,0.6956494450569153
1696962667504443100,8.636443115234375,0.4927330017089844,-0.793159008026123,-0.3527776002883911
1696962667514456800,8.646456787109376,-1.7106609344482422,0.7553738355636597,1.4721490144729614
1696962667524470500,8.656470458984375,5.747081756591797,-0.1933060884475708,-0.9321087002754211
1696962667534484200,8.666484130859375,-5.105147838592529,-0.46273982524871826,-0.2976033091545105
1696962667544498000,8.676497802734374,4.001791000366211,0.19504034519195557,0.7236096858978271
1696962667554511600,8.68651171875,-2.574800968170166,0.5049556493759155,-0.5294333696365356
1696962667564525300,8.696525390625,0.5763282775878906,-1.1724663972854614,0.16321033239364624
1696962667574539000,8.7065390625,-1.5758228302001953,-0.4667125940322876,-0.25093185901641846
1696962667584552700,8.716552734375,1.5539264678955078,-0.28968751430511475,-0.0959177017211914
1696962667594566400,8.72656640625,0.1641979217529297,0.843915581703186,-0.6280885338783264
1696962667604580000,8.736580078125,-0.9445743560791016,-0.13810503482818604,0.24704831838607788
1696962667614593800,8.74659375,-0.2298898696899414,-0.5600360631942749,0.5485413074493408
1696962667624607500,8.756607421875,-0.6833171844482422,-0.11799991130828857,0.6921764016151428
1696962667634621200,8.76662109375,1.230062484741211,0.6600341796875,0.9176092743873596
1696962667644635000,8.776634765625,0.9543704986572266,-0.1879112720489502,-0.39853635430336
1696962667654648600,8.786648681640624,-0.8974313735961914,-0.3151654005050659,-0.2688201665878296
1696962667664662300,8.796662353515625,-1.0052213668823242,-0.046643853187561035,0.5698823928833008
1696962667674676000,8.806676025390624,0.40726661682128906,0.9029406309127808,0.7710238695144653
1696962667684689700,8.816689697265625,0.10923385620117188,-0.8221448659896851,0.21026712656021118
1696962667694703400,8.826703369140626,-3.2501163482666016,-0.13809490203857422,-0.043968141078948975
1696962667704717000,8.836717041015625,1.703507423400879,-0.6811504364013672,1.1787564754486084
1696962667714730800,8.846730712890626,-0.4419431686401367,0.8269693851470947,-1.007814884185791
1696962667724744400,8.856744384765625,-0.7661514282226562,-0.14449524879455566,-0.25602567195892334
1696962667734758100,8.866758056640625,-2.4080185890197754,-0.18125855922698975,-0.257565438747406
1696962667744771800,8.876771728515624,0.999394416809082,-0.5500466823577881,-0.27944403886795044
1696962667754785500,8.88678564453125,-1.2343692779541016,0.4644414186477661,0.07515108585357666
1696962667764799200,8.89679931640625,1.7311525344848633,-0.7296663522720337,-0.19848084449768066
1696962667774813000,8.90681298828125,-1.9432172775268555,-0.5358734130859375,-0.237917959690094
1696962667784826600,8.91682666015625,1.5261993408203125,0.5848135948181152,0.3506632447242737
1696962667794840300,8.92684033203125,0.07909870147705078,0.3735196590423584,-0.10027647018432617
1696962667804854000,8.93685400390625,0.09285354614257812,-0.8489081859588623,-0.4004230201244354
1696962667814867700,8.94686767578125,-0.46135807037353516,-0.16823101043701172,1.2283477783203125
1696962667824881400,8.95688134765625,2.033818244934082,0.3156857490539551,-0.3962312638759613
1696962667834895000,8.96689501953125,-0.11674308776855469,-0.0865861177444458,-0.2329067587852478
1696962667844908800,8.97690869140625,1.4462385177612305,0.4736490249633789,1.122756004333496
1696962667854922500,8.986922607421874,-0.9325389862060547,0.03268539905548096,0.5422182083129883
1696962667864936200,8.996936279296875,0.8185586929321289,-0.40186989307403564,0.9804612994194031
1696962667874950000,9.006949951171874,-0.33112239837646484,-0.46063196659088135,-0.6136258840560913
1696962667884963600,9.016963623046875,-0.4876117706298828,-0.198883056640625,0.06674981117248535
1696962667894977300,9.026977294921876,1.7975759506225586,0.47692394256591797,0.0974036455154419
1696962667904991000,9.036990966796875,-1.9106464385986328,-0.15964066982269287,-0.03228259086608887
1696962667915004700,9.047004638671876,1.181105613708496,0.1953672170639038,0.13636666536331177
1696962667925018400,9.057018310546875,-1.1540355682373047,-1.071427345275879,0.14601624011993408
1696962667935032000,9.067031982421875,0.7793445587158203,-0.05972850322723389,-0.4452262222766876
1696962667945045800,9.077045654296874,-1.0577363967895508,0.07416689395904541,-0.6158825755119324
1696962667955059500,9.0870595703125,0.4982328414916992,-0.5807527303695679,-0.10576790571212769
1696962667965073200,9.0970732421875,-0.0762033462524414,0.036315083503723145,0.4560593366622925
1696962667975086800,9.1070869140625,-0.9220962524414062,-0.10669004917144775,-0.34095776081085205
1696962667985100500,9.1171005859375,0.46170616149902344,-0.6758853197097778,0.43463999032974243
1696962667995114200,9.1271142578125,-0.4664764404296875,1.265488862991333,-0.8900533318519592
1696962668005128000,9.1371279296875,-0.3735189437866211,-1.8435946702957153,0.8145360946655273
1696962668015141600,9.1471416015625,2.3601341247558594,1.0841999053955078,-0.23386526107788086
1696962668025155300,9.1571552734375,-1.864109992980957,0.15372300148010254,1.2054426670074463
1696962668035169000,9.1671689453125,3.0811729431152344,0.116790771484375,0.6050407290458679
1696962668045182700,9.1771826171875,-1.9680838584899902,-0.9075464010238647,0.4644138813018799
1696962668055196400,9.187196533203124,2.4480247497558594,0.6369098424911499,0.5743230581283569
1696962668065210000,9.197210205078125,-1.6300277709960938,-0.6895170211791992,-0.8244397044181824
1696962668075223800,9.207223876953124,0.2813606262207031,0.9257020950317383,0.11112070083618164
1696962668085237500,9.217237548828125,0.11330699920654297,-0.7831170558929443,0.8209906220436096
1696962668095251200,9.227251220703126,-1.9846467971801758,0.08658039569854736,-0.14050054550170898
1696962668105265000,9.237264892578125,2.1917648315429688,-0.7298309803009033,0.12548142671585083
1696962668115278600,9.247278564453126,-2.9741997718811035,-0.49219632148742676,-0.9785180687904358
1696962668125292300,9.257292236328125,1.7354621887207031,0.6513341665267944,-0.8804106116294861
1696962668135306000,9.267305908203125,-2.5595040321350098,-0.4095578193664551,-0.43992069363594055
1696962668145319700,9.277319580078125,1.1891918182373047,-0.1314699649810791,1.103501319885254
1696962668155333400,9.28733349609375,-0.2907238006591797,-0.2128840684890747,-0.4082850217819214
1696962668165347000,9.29734716796875,0.02626800537109375,-0.13830971717834473,0.440690279006958
1696962668175360800,9.30736083984375,1.818373680114746,-0.21104681491851807,0.2758752107620239
1696962668185374500,9.31737451171875,1.0112581253051758,0.5289039611816406,-0.6530470848083496
1696962668195388200,9.32738818359375,0.612605094909668,0.12318623065948486,0.3283834457397461
1696962668205401900,9.33740185546875,0.6209115982055664,0.007510542869567871,1.2805066108703613
1696962668215415600,9.34741552734375,-0.5799379348754883,-0.33409762382507324,0.4825448989868164
1696962668225429200,9.35742919921875,0.07599544525146484,-0.21929097175598145,-0.3388366103172302
1696962668235443000,9.36744287109375,-0.30089282989501953,-0.27860546112060547,0.19990748167037964
1696962668245456600,9.37745654296875,1.7877082824707031,0.13307499885559082,-1.2909799814224243
1696962668255470300,9.38747021484375,-3.630300521850586,-0.21521079540252686,-1.1410784721374512
1696962668265484000,9.397484130859375,2.8592138290405273,0.25936436653137207,1.379502534866333
1696962668275497700,9.407497802734374,-2.6335363388061523,-0.17924201488494873,0.031227290630340576
1696962668285511400,9.417511474609375,2.318732261657715,-0.7413322925567627,-0.149722158908844
1696962668295525000,9.427525146484374,-1.1082172393798828,-0.44029438495635986,-0.4884319305419922
1696962668305538800,9.437538818359375,1.1645584106445312,0.5600793361663818,-0.3642815351486206
1696962668315552500,9.447552490234376,-1.1224365234375,0.0738821029663086,-0.3278054893016815
1696962668325566200,9.457566162109375,-0.8803081512451172,-0.3852872848510742,0.7327027320861816
1696962668335580000,9.467579833984376,0.6651782989501953,-0.16340160369873047,-0.13664227724075317
1696962668345593600,9.477593505859375,-1.7541875839233398,0.006701469421386719,-0.05565154552459717
1696962668355607300,9.487607177734375,2.0876922607421875,-1.072932243347168,-0.6729314923286438
1696962668365621000,9.49762109375,-0.17770671844482422,0.8592878580093384,-1.0833969116210938
1696962668375634700,9.507634765625,0.4210090637207031,-0.33558523654937744,0.7283177971839905
1696962668385648400,9.5176484375,-0.08189678192138672,0.22415685653686523,1.4786090850830078
1696962668395662000,9.527662109375,0.23872089385986328,-0.8241289854049683,0.5284174084663391
1696962668405675800,9.53767578125,0.5247421264648438,0.2712033987045288,0.4754369854927063
1696962668415689500,9.547689453125,-0.41278743743896484,0.22636806964874268,0.44115138053894043
1696962668425703200,9.557703125,2.258612632751465,-0.021535634994506836,-1.1073652505874634
1696962668435716900,9.567716796875,-3.1320791244506836,-0.478515625,-0.09702092409133911
1696962668445730600,9.57773046875,1.7501306533813477,0.71326744556427,0.9844552278518677
1696962668455744300,9.587744140625,-0.8690576553344727,-0.1034919023513794,-0.11651337146759033
1696962668465758000,9.597758056640625,-1.0102357864379883,-1.0015809535980225,-0.6473391056060791
1696962668475771600,9.607771728515624,0.34428882598876953,-0.34344983100891113,-1.7779459953308105
1696962668485785300,9.617785400390625,0.4631805419921875,0.39862167835235596,-0.49457836151123047
1696962668495799000,9.627799072265624,-0.20695972442626953,0.006215214729309082,-0.5249132513999939
1696962668505812700,9.637812744140625,-1.9073691368103027,-0.7303320169448853,0.4700617790222168
1696962668515826700,9.64782666015625,1.8391132354736328,0.009026885032653809,0.16197973489761353
1696962668525840400,9.65784033203125,-1.1853437423706055,-0.16934168338775635,-0.2526138424873352
1696962668535854000,9.66785400390625,2.7173213958740234,-0.5320824384689331,-0.5876007080078125
1696962668545867800,9.67786767578125,0.21636962890625,0.7298951148986816,0.0061705708503723145
1696962668555881700,9.6878818359375,1.0331840515136719,-0.0986483097076416,1.1073417663574219
1696962668565895400,9.6978955078125,0.6531047821044922,0.191550612449646,1.1805064678192139
1696962668575909000,9.7079091796875,1.6836814880371094,-0.6506726741790771,0.6643538475036621
1696962668585922800,9.7179228515625,-3.127859592437744,-0.33488452434539795,-0.4285586476325989
1696962668595936500,9.7279365234375,1.7347946166992188,0.20189368724822998,-0.6675043106079102
1696962668605950500,9.737950439453124,-0.950129508972168,0.3047603368759155,-0.8874154090881348
1696962668615964200,9.747964111328125,-1.4681682586669922,-0.470953106880188,0.29365330934524536
1696962668625977900,9.757977783203126,0.42746734619140625,0.01827263832092285,1.0838210582733154
1696962668635991600,9.767991455078125,1.4970426559448242,-0.6612145900726318,0.048819661140441895
1696962668646005200,9.778005126953126,-1.4456958770751953,-0.10124170780181885,-0.9774945378303528
1696962668656019200,9.788019287109375,1.085770606994629,-0.22958850860595703,-0.9293662905693054
1696962668666033000,9.798032958984376,-1.1386022567749023,-0.12072038650512695,-0.30586230754852295
1696962668676046600,9.808046630859375,-1.020918846130371,0.037680983543395996,-0.06518584489822388
1696962668686060300,9.818060302734375,0.5442638397216797,0.2140064239501953,0.5640426874160767
1696962668696074000,9.828073974609374,0.7199945449829102,-1.273165225982666,0.0763932466506958
1696962668706088000,9.838087890625,-0.09407424926757812,-0.11468422412872314,-1.332468032836914
1696962668716101600,9.8481015625,1.7562427520751953,0.3848527669906616,-0.33305010199546814
1696962668726115300,9.858115234375,-1.5493125915527344,0.3283045291900635,0.9100159406661987
1696962668736129000,9.86812890625,2.64023494720459,0.061615705490112305,1.2395604848861694
1696962668746143000,9.87814306640625,-1.6815710067749023,-0.4565547704696655,-0.19490307569503784
1696962668756156700,9.88815673828125,-0.22408676147460938,-0.5905369520187378,0.44192618131637573
1696962668766170400,9.89817041015625,2.318265914916992,-0.08719038963317871,-0.7431676983833313
1696962668776184000,9.90818408203125,-1.4573278427124023,0.8849304914474487,-0.932407021522522
1696962668786197800,9.91819775390625,-0.015033721923828125,-0.5557843446731567,0.839865505695343
1696962668796211700,9.928211669921875,-0.2926788330078125,0.3885836601257324,0.3303731679916382
1696962668806225400,9.938225341796874,-1.1613492965698242,-0.5171566009521484,0.5238886475563049
1696962668816239000,9.948239013671875,0.3941679000854492,0.02570366859436035,0.14028966426849365
1696962668826252800,9.958252685546874,-0.19515228271484375,-0.823694109916687,-1.413058876991272
1696962668836266500,9.9682666015625,-1.1072425842285156,0.02333199977874756,-0.7889657020568848
1696962668846280200,9.9782802734375,-0.5595359802246094,0.22465193271636963,0.274108350276947
1696962668856294000,9.9882939453125,-0.3579673767089844,-0.2855013608932495,-0.5445131063461304
1696962668866307600,9.9983076171875,-1.2885398864746094,-0.14664578437805176,-0.49691516160964966
1696962668876321300,10.0083212890625,1.854334831237793,-0.7530630826950073,-0.5701582431793213
1696962668886335000,10.0183349609375,-0.5346574783325195,0.46822357177734375,-0.08055031299591064
1696962668896348700,10.0283486328125,1.244180679321289,0.47292304039001465,0.4993157982826233
1696962668906362400,10.0383623046875,0.2567272186279297,-0.35956883430480957,0.9108289480209351
1696962668916376000,10.0483759765625,1.1780786514282227,0.21116507053375244,1.1213505268096924
1696962668926389800,10.0583896484375,0.5964250564575195,-0.6381690502166748,0.33682286739349365
1696962668936403500,10.068403564453124,-0.6048202514648438,0.3147265911102295,-0.5067645311355591
1696962668946417200,10.078417236328125,0.3185386657714844,-0.15775620937347412,-0.529923141002655
1696962668956430800,10.088430908203126,-0.9772281646728516,0.2924208641052246,0.2557326555252075
1696962668966444500,10.098444580078125,0.6823558807373047,-0.617829442024231,-0.41804027557373047
1696962668976458200,10.108458251953126,-2.4252243041992188,-1.0999778509140015,-0.10183775424957275
1696962668986472000,10.118471923828125,1.9051752090454102,0.21958637237548828,-0.060265541076660156
1696962668996485600,10.128485595703125,-0.32680320739746094,0.08544087409973145,-1.0175650119781494
1696962669006499300,10.138499267578124,1.1987276077270508,-0.34015119075775146,-0.25898757576942444
1696962669016513000,10.148512939453125,-1.390059471130371,-0.9491239786148071,0.00009638071060180664
1696962669026526700,10.158526611328124,0.9311771392822266,1.0704102516174316,0.06160151958465576
1696962669036540400,10.16854052734375,1.2060890197753906,-0.5585356950759888,0.4330136775970459
1696962669046554000,10.17855419921875,-0.5077991485595703,-0.9717115163803101,-0.43225133419036865
1696962669056567800,10.18856787109375,0.07141399383544922,-0.07128262519836426,0.0634765625
1696962669066581500,10.19858154296875,1.3000078201293945,0.19396698474884033,0.20938313007354736
1696962669076595200,10.20859521484375,0.08757305145263672,0.4320269823074341,-0.20846045017242432
1696962669086609000,10.21860888671875,-1.2317161560058594,-0.7490178346633911,-0.22241997718811035
1696962669096622600,10.22862255859375,-0.7217874526977539,-0.2995564937591553,-0.5512889623641968
1696962669106636300,10.23863623046875,0.12599945068359375,-0.3044947385787964,-0.3146105110645294
1696962669116650000,10.24864990234375,-1.0544042587280273,0.4651055335998535,-0.3417126536369324
1696962669126663700,10.25866357421875,-0.0004930496215820312,0.19168591499328613,0.004592478275299072
1696962669136677400,10.268677490234374,1.1561594009399414,-0.6598278284072876,0.834827721118927
1696962669146691000,10.278691162109375,0.06827735900878906,-0.20926594734191895,-0.23843955993652344
1696962669156704800,10.288704833984376,-0.7635412216186523,0.1593555212020874,-0.3461989164352417
1696962669166718500,10.298718505859375,2.134153366088867,-0.3474653959274292,-0.3980379104614258
1696962669176732200,10.308732177734376,-2.4207425117492676,-0.15478360652923584,-0.5240358114242554
1696962669186745900,10.318745849609375,-1.2340927124023438,-0.3983818292617798,0.2105465531349182
1696962669196759600,10.328759521484375,1.2864837646484375,0.15395569801330566,-1.3869688510894775
1696962669206773500,10.3387734375,-1.1197481155395508,-0.38747215270996094,-0.21985304355621338
1696962669216787200,10.348787109375,1.9555931091308594,0.36540913581848145,-0.16099286079406738
1696962669226801000,10.35880078125,-3.1908960342407227,-1.119502067565918,0.40091031789779663
1696962669236814600,10.368814697265625,5.002861976623535,0.5765537023544312,0.7313356995582581
1696962669246828300,10.378828369140624,-2.08187198638916,0.5727651119232178,0.008102238178253174
1696962669256842000,10.388842041015625,0.08258628845214844,-1.0452613830566406,-0.12160897254943848
1696962669266855700,10.398855712890626,0.7847070693969727,0.3380938768386841,0.18457454442977905
1696962669276869400,10.408869384765625,0.37185001373291016,0.188299298286438,-0.26898378133773804
1696962669286883000,10.418883056640626,-2.807136058807373,-0.5862942934036255,-0.893927812576294
1696962669296896800,10.428896728515625,1.4669008255004883,0.0436476469039917,0.7986380457878113
1696962669306910500,10.438910400390625,0.6508312225341797,0.172826886177063,-0.6527398824691772
1696962669316924200,10.448924072265624,-1.2961063385009766,-0.48218846321105957,-1.0000693798065186
1696962669326937900,10.458937744140625,1.1921310424804688,-0.7038286924362183,-0.2424965500831604
1696962669336951600,10.46895166015625,-0.33994388580322266,-0.04345345497131348,-0.14671483635902405
1696962669346965200,10.47896533203125,-0.23878097534179688,0.13897192478179932,0.038412660360336304
1696962669356980000,10.48897998046875,0.07704353332519531,-0.3243556022644043,-0.027005642652511597
1696962669366993200,10.4989931640625,0.5979518890380859,-0.8262922763824463,-0.32364654541015625
1696962669377006300,10.50900634765625,0.8162622451782227,0.5511326789855957,-0.6198848485946655
1696962669387019500,10.51901953125,0.021514892578125,-0.09685206413269043,0.4979320764541626
1696962669397033000,10.529032958984375,1.2351083755493164,-0.24967265129089355,0.6925041675567627
1696962669407046100,10.539046142578124,0.27157020568847656,0.27999186515808105,0.5404211282730103
1696962669417059600,10.5490595703125,0.35216808319091797,-0.5821285247802734,0.14596623182296753
1696962669427073000,10.559072998046876,1.4260540008544922,-0.14013350009918213,-1.123486042022705
1696962669437086700,10.569086669921875,-0.9710731506347656,0.4067617654800415,0.16162219643592834
1696962669447100200,10.57910009765625,1.162567138671875,-0.6797729730606079,0.6028549671173096
1696962669457114000,10.589114013671875,-1.5021352767944336,0.28628528118133545,-0.13771668076515198
1696962669467127800,10.5991279296875,1.6226043701171875,-0.5484013557434082,1.3036680221557617
1696962669477141800,10.609141845703125,0.05553245544433594,-0.6199620962142944,-0.7966091632843018
1696962669487155500,10.619155517578125,0.3709907531738281,0.2826584577560425,-1.2300370931625366
1696962669497169400,10.62916943359375,-2.836090564727783,-0.0018943548202514648,-0.012573093175888062
1696962669507183600,10.63918359375,0.023740768432617188,-0.34584271907806396,-0.14510688185691833
1696962669517197600,10.649197509765624,-2.3084001541137695,-0.1550508737564087,-0.7386794090270996
1696962669527211500,10.65921142578125,0.32590484619140625,-0.1496795415878296,-1.4325963258743286
1696962669537225500,10.6692255859375,1.1902341842651367,-0.3226161003112793,-0.8442474007606506
1696962669547239700,10.67923974609375,-0.15970134735107422,-0.1042708158493042,0.054659515619277954
1696962669557253600,10.689253662109374,-0.13527679443359375,0.09637737274169922,0.7937635183334351
1696962669567267300,10.699267333984375,0.08018684387207031,0.6739314794540405,0.9975351691246033
1696962669577281000,10.709281005859374,0.7151861190795898,-0.5214518308639526,0.18236801028251648
1696962669587294700,10.719294677734375,-1.742887020111084,-0.49255478382110596,-0.8580989241600037
1696962669597308400,10.729308349609376,2.122396469116211,0.23601901531219482,-0.29945075511932373
1696962669607322000,10.739322021484375,-2.259784698486328,-0.16915905475616455,0.2152501940727234
1696962669617335800,10.749335693359376,3.064211845397949,0.7462557554244995,1.0471312999725342
1696962669627349500,10.759349609375,-0.3702840805053711,-0.5981745719909668,0.027256250381469727
1696962669637363200,10.76936328125,-1.3537187576293945,-1.347588300704956,-0.34077805280685425
1696962669647377000,10.779376953125,2.3766164779663086,0.23328375816345215,-1.4691705703735352
1696962669657390600,10.789390625,-1.179544448852539,0.16386544704437256,-0.3425847589969635
1696962669667404300,10.799404296875,-0.9612464904785156,0.07211792469024658,0.7481471300125122
1696962669677418000,10.80941796875,0.9752664566040039,-0.693855881690979,-0.22159601747989655
1696962669687431700,10.819431640625,-2.0896859169006348,-0.39802324771881104,-0.4313892126083374
1696962669697445400,10.8294453125,4.218344688415527,0.37314867973327637,-1.1586945056915283
1696962669707459000,10.839458984375,-1.3780975341796875,-0.7291378974914551,-0.3274131417274475
1696962669717472800,10.84947265625,1.2491178512573242,0.706242561340332,1.258028268814087
1696962669727486500,10.859486572265626,-1.85113525390625,0.06451499462127686,0.05699321627616882
1696962669737500200,10.869500244140625,0.0030050277709960938,-0.9254622459411621,-0.4627848267555237
1696962669747513900,10.879513916015625,-0.2553691864013672,-1.003609299659729,-1.647778868675232
1696962669757527600,10.889527587890624,-1.1192054748535156,0.43089520931243896,-1.4241862297058105
1696962669767541200,10.899541259765625,-1.001138687133789,-0.19861257076263428,0.34416601061820984
1696962669777555000,10.909554931640624,1.1948776245117188,1.0215158462524414,0.8226640224456787
1696962669787568600,10.919568603515625,-1.3651056289672852,-0.1989346742630005,-0.19955724477767944
1696962669797582300,10.929582275390626,-0.9649591445922852,-0.9583334922790527,-0.5973831415176392
1696962669807596000,10.939595947265625,1.2543048858642578,-0.24206233024597168,-1.6599754095077515
1696962669817609700,10.949609619140626,0.12873172760009766,0.1157156229019165,0.42785701155662537
1696962669827623400,10.95962353515625,-0.7269411087036133,0.15796494483947754,1.229625940322876
1696962669837637000,10.96963720703125,1.066091537475586,0.280788779258728,0.35258588194847107
1696962669847650800,10.97965087890625,-0.07901477813720703,-0.8665164709091187,-1.6649882793426514
1696962669857664500,10.98966455078125,-0.3608274459838867,-0.528693437576294,-0.6704699993133545
1696962669867678200,10.99967822265625,2.249469757080078,0.19792819023132324,-0.33124929666519165
1696962669877692000,11.00969189453125,-1.5168304443359375,-0.23403477668762207,0.1632840931415558
1696962669887705600,11.01970556640625,-0.4280261993408203,0.4643751382827759,1.0374202728271484
1696962669897719300,11.02971923828125,2.6118669509887695,-0.4817744493484497,0.36060473322868347
1696962669907733000,11.03973291015625,-0.8399381637573242,-0.8113867044448853,-1.0495831966400146
1696962669917746700,11.04974658203125,1.4318084716796875,0.08944928646087646,-1.5939610004425049
1696962669927760400,11.059760498046876,-1.9638900756835938,-0.09071207046508789,0.37403661012649536
1696962669937774000,11.069774169921875,0.49747467041015625,0.42529094219207764,1.864245891571045
1696962669947787800,11.079787841796875,0.7966508865356445,0.5403790473937988,0.014826387166976929
1696962669957801500,11.089801513671874,-0.3285255432128906,-0.9756571054458618,-1.4074345827102661
1696962669967815200,11.099815185546875,-2.6118688583374023,-1.4322314262390137,-1.5843377113342285
1696962669977828900,11.109828857421874,1.8963432312011719,1.0374501943588257,-0.21136820316314697
1696962669987842600,11.119842529296875,-1.0752239227294922,0.22355353832244873,0.47083643078804016
1696962669997856300,11.129856201171876,-1.775393009185791,-0.44870448112487793,-0.17640240490436554
1696962670007870000,11.139869873046875,0.9621191024780273,-1.1483948230743408,-1.294141411781311
1696962670017883600,11.149883544921876,-0.6310491561889648,-0.09124565124511719,-1.3939142227172852
1696962670027897300,11.1598974609375,1.2346773147583008,-0.08749961853027344,-0.49495893716812134
1696962670037911000,11.1699111328125,-1.4629182815551758,-0.13798058032989502,0.7937646508216858
1696962670047924700,11.1799248046875,1.981734275817871,0.7273333072662354,1.4674358367919922
1696962670057938400,11.1899384765625,1.670699119567871,-0.18268489837646484,0.39945822954177856
1696962670067952000,11.1999521484375,-0.7226123809814453,-0.5943896770477295,-0.914421796798706
1696962670077965800,11.2099658203125,0.34444618225097656,-0.02294290065765381,-0.7870484590530396
1696962670087979500,11.2199794921875,-2.1119041442871094,0.27951741218566895,0.7564177513122559
1696962670097993200,11.2299931640625,2.394463539123535,0.2951430082321167,0.758224606513977
1696962670108007000,11.2400068359375,-1.941185474395752,-0.28424763679504395,-0.15221412479877472
1696962670118020600,11.2500205078125,0.060647010803222656,-0.7639048099517822,-1.5228490829467773
1696962670128034300,11.260034423828126,-0.4600639343261719,0.331207275390625,-0.40414395928382874
1696962670138048000,11.270048095703125,1.744023323059082,-0.2853299379348755,0.18072617053985596
1696962670148061700,11.280061767578125,-3.669649600982666,-0.10909390449523926,0.8955810070037842
1696962670158075400,11.290075439453124,1.5043926239013672,0.6942335367202759,-0.3128317892551422
1696962670168089000,11.300089111328125,-1.1138553619384766,-1.0835676193237305,-1.7199268341064453
1696962670178102800,11.310102783203124,-0.46555423736572266,-0.5886281728744507,-0.8354724049568176
1696962670188116500,11.320116455078125,0.03224372863769531,0.30310940742492676,-0.5099048614501953
1696962670198130400,11.33013037109375,-1.329329490661621,0.18745529651641846,0.6122294068336487
1696962670208144100,11.34014404296875,1.6412677764892578,0.3665717840194702,0.7105363011360168
1696962670218157800,11.35015771484375,-1.4885921478271484,-0.8227312564849854,-0.2369537651538849
1696962670228171500,11.360171630859375,2.0130767822265625,-0.27923834323883057,-0.9767439961433411
1696962670238185200,11.370185302734376,-0.41013145446777344,-0.2780604362487793,-0.9713090658187866
1696962670248199000,11.380198974609375,-1.507908821105957,0.7552975416183472,1.032724380493164
1696962670258212600,11.390212646484375,2.04122257232666,0.06754159927368164,1.8145668506622314
1696962670268226300,11.400226318359374,0.7212553024291992,-0.4029291868209839,-0.7194173336029053
1696962670278240000,11.410239990234375,-0.19342613220214844,-0.3440159559249878,-0.13949143886566162
1696962670288253700,11.420253662109374,2.7026824951171875,-0.1408545970916748,0.34723785519599915
1696962670298267400,11.430267333984375,-0.740208625793457,-0.3226034641265869,-0.04700362682342529
1696962670308281000,11.440281005859376,-0.9394092559814453,0.2343597412109375,-0.0226040780544281
1696962670318294800,11.450294677734375,-1.1474065780639648,-0.36834871768951416,0.17018774151802063
1696962670328308500,11.46030859375,2.114086151123047,-0.7808812856674194,-1.2774388790130615
1696962670338322200,11.470322265625,-0.3043527603149414,-0.22044920921325684,-1.2770428657531738
1696962670348335900,11.4803359375,-0.7329330444335938,-0.5425856113433838,0.6583701372146606
1696962670358349600,11.490349609375,2.5519800186157227,0.16984879970550537,0.5290748476982117
1696962670368363300,11.50036328125,-0.22085952758789062,0.3872389793395996,-0.1226125955581665
1696962670378377000,11.510376953125,-0.30614662170410156,-0.6792749166488647,0.6133668422698975
1696962670388390700,11.520390625,0.35393428802490234,-0.14854669570922852,-0.9881424307823181
1696962670398404400,11.530404296875,-0.592310905456543,-0.4332880973815918,0.038805991411209106
1696962670408418000,11.54041796875,-0.19846820831298828,0.5835074186325073,0.9731239080429077
1696962670418431700,11.550431640625,1.4073638916015625,0.271801233291626,0.23795142769813538
1696962670428445400,11.560445556640625,-1.0710735321044922,-0.4626128673553467,-0.8795219659805298
1696962670438459100,11.570459228515626,-0.06451416015625,-0.6399002075195312,-0.39482414722442627
1696962670448472800,11.580472900390625,-0.6516294479370117,-0.0005913972854614258,0.2497948706150055
1696962670458486500,11.590486572265625,0.6596565246582031,-0.3462200164794922,0.2839988172054291
1696962670468500200,11.600500244140624,0.701298713684082,0.6806941032409668,0.24921545386314392
1696962670478514000,11.610513916015625,-0.8533477783203125,-1.1816692352294922,-0.3818221688270569
1696962670488527600,11.620527587890624,0.19095420837402344,0.062198519706726074,0.396587073802948
1696962670498541300,11.630541259765625,1.3564682006835938,0.348136305809021,-0.3069923222064972
1696962670508555000,11.640554931640626,-4.38518762588501,0.3569856882095337,0.5427933931350708
1696962670518568700,11.650568603515625,4.384400367736816,-0.4430580139160156,-0.19493713974952698
1696962670528582400,11.66058251953125,-2.875607967376709,0.2918320894241333,-0.8941019177436829
1696962670538596000,11.67059619140625,2.0443992614746094,-1.376405954360962,-1.2142695188522339
1696962670548609800,11.68060986328125,-3.207274913787842,0.435512900352478,0.04405033588409424
1696962670558623500,11.69062353515625,4.9775390625,-0.48291289806365967,0.9232332706451416
1696962670568637200,11.70063720703125,-3.3684730529785156,0.6286963224411011,0.5192164182662964
1696962670578651000,11.71065087890625,3.200916290283203,-0.26935672760009766,0.2505832016468048
1696962670588664600,11.72066455078125,-1.834385871887207,0.09345149993896484,-0.6722888946533203
1696962670598678300,11.73067822265625,2.266237258911133,-0.6968300342559814,0.6394106149673462
1696962670608692000,11.74069189453125,-1.7152132987976074,0.33527374267578125,0.7289350032806396
1696962670618705700,11.75070556640625,2.551846504211426,-0.6698991060256958,0.7702518105506897
1696962670628719400,11.76071923828125,0.6006231307983398,0.5487104654312134,-0.07033255696296692
1696962670638733000,11.770733154296876,0.728001594543457,-1.0439544916152954,-1.0849487781524658
1696962670648746800,11.780746826171875,-2.441486358642578,0.14997148513793945,0.40451228618621826
1696962670658760400,11.790760498046875,1.8464431762695312,-1.208257794380188,-0.17358365654945374
1696962670668774100,11.800774169921874,-3.1420392990112305,0.9907959699630737,-0.5267015099525452
1696962670678787800,11.810787841796875,2.151529312133789,-0.5467432737350464,0.25884348154067993
1696962670688801500,11.820801513671874,-0.13763141632080078,0.5657304525375366,-0.007906347513198853
1696962670698815200,11.830815185546875,0.23517417907714844,-0.9924972057342529,-0.3401961624622345
1696962670708829000,11.840828857421876,-2.1637754440307617,1.0628769397735596,0.4227137267589569
1696962670718842600,11.850842529296875,1.7027664184570312,-0.21997320652008057,0.5405087471008301
1696962670728856300,11.860856201171876,-3.5917482376098633,-0.7976847887039185,-1.503149151802063
1696962670738870000,11.8708701171875,0.9810314178466797,-0.39320850372314453,-0.836577296257019
1696962670748883700,11.8808837890625,0.5778179168701172,0.9634624719619751,0.738216757774353
1696962670758897400,11.8908974609375,-0.3459739685058594,-0.7446478605270386,0.8399863243103027
1696962670768911000,11.9009111328125,-0.3025226593017578,-0.3535289764404297,0.14094817638397217
1696962670778924800,11.9109248046875,0.6350765228271484,0.13436615467071533,0.4445713758468628
1696962670788938500,11.9209384765625,0.561640739440918,0.14874744415283203,-0.2186770737171173
1696962670798952200,11.9309521484375,-0.1285257339477539,-0.4176652431488037,-0.29207712411880493
1696962670808966000,11.9409658203125,-2.5554556846618652,-0.50813889503479,0.628076434135437
1696962670818979600,11.9509794921875,1.1637916564941406,-0.11837494373321533,1.3421090841293335
1696962670828993300,11.9609931640625,-0.1730785369873047,0.5818691253662109,-0.9596139192581177
1696962670839007000,11.971007080078126,-0.602849006652832,-1.3350061178207397,-1.0879358053207397
1696962670849020700,11.981020751953125,-0.2094554901123047,0.8480247259140015,0.3319709599018097
1696962670859034400,11.991034423828125,-0.7298755645751953,-1.079321026802063,0.926476001739502
1696962670869048000,12.001048095703124,-0.5851564407348633,0.8761842250823975,0.14391827583312988
1696962670879061800,12.011061767578125,0.5006351470947266,-0.26647233963012695,-0.23919932544231415
1696962670889075500,12.021075439453124,0.198089599609375,-0.7320716381072998,-1.1308938264846802
1696962670899089200,12.031089111328125,-2.1347646713256836,-0.5518687963485718,-0.24048088490962982
1696962670909102800,12.041102783203126,1.3592891693115234,1.3338567018508911,1.7172824144363403
1696962670919116500,12.051116455078125,-0.924107551574707,-0.3689868450164795,0.8407329320907593
1696962670929130200,12.061130126953126,1.6197738647460938,-0.35929572582244873,-0.1666860282421112
1696962670939144000,12.07114404296875,-0.1722850799560547,-0.2696394920349121,-1.2182714939117432
1696962670949157600,12.08115771484375,-0.4630613327026367,-0.9328080415725708,0.023496299982070923
1696962670959171300,12.09117138671875,0.28334999084472656,-0.2036072015762329,1.1171112060546875
1696962670969185000,12.10118505859375,1.0707664489746094,0.6264294385910034,0.8115140199661255
1696962670979198700,12.11119873046875,-0.4469308853149414,0.6014416217803955,0.2599135637283325
1696962670989212400,12.12121240234375,-0.1696023941040039,-2.133988857269287,-0.7496843338012695
1696962670999226000,12.13122607421875,0.2893953323364258,0.8634284734725952,-1.0316288471221924
1696962671009239800,12.14123974609375,-0.8384723663330078,-0.6208930015563965,0.7742764353752136
1696962671019253500,12.15125341796875,-1.1093997955322266,0.5542590618133545,0.8757658004760742
1696962671029267200,12.16126708984375,1.994424819946289,-0.8073326349258423,0.3424989879131317
1696962671039281000,12.171281005859376,-1.6901521682739258,0.44230425357818604,-1.0837249755859375
1696962671049294600,12.181294677734375,1.2432184219360352,-0.8812719583511353,-0.012237310409545898
1696962671059308300,12.191308349609375,-2.9408369064331055,-0.2015078067779541,1.1961652040481567
1696962671069322000,12.201322021484375,1.777705192565918,-0.055126190185546875,-0.3360797166824341
1696962671079335700,12.211335693359375,-1.6482439041137695,0.31286168098449707,0.1761053204536438
1696962671089349400,12.221349365234374,4.181048393249512,-0.7851325273513794,0.04326525330543518
1696962671099363000,12.231363037109375,-3.1362533569335938,-0.9370871782302856,-0.005479693412780762
1696962671109376800,12.241376708984374,0.9148588180541992,0.7041966915130615,1.887264370918274
1696962671119390500,12.251390380859375,-1.300750732421875,0.6465282440185547,-0.39321473240852356
1696962671129404200,12.261404052734376,-0.9054737091064453,-1.213580846786499,0.22388431429862976
1696962671139417900,12.27141796875,2.6655731201171875,-0.21319091320037842,-1.3182917833328247
1696962671149431600,12.281431640625,-2.1382083892822266,-1.0100361108779907,-0.6566702127456665
1696962671159445200,12.2914453125,4.113737106323242,-0.31141364574432373,2.131775379180908
1696962671169459000,12.301458984375,-0.9672012329101562,1.6251486539840698,0.8335793018341064
1696962671179472600,12.31147265625,-0.9935750961303711,-0.562263011932373,0.0000877082347869873
1696962671189486300,12.321486328125,-1.9326972961425781,-0.30793309211730957,-1.1041576862335205
1696962671199500000,12.3315,-0.19847869873046875,-1.1073904037475586,-2.292956590652466
1696962671209513700,12.341513671875,-2.8585071563720703,0.6410754919052124,1.2754247188568115
1696962671219527400,12.35152734375,3.8865156173706055,0.23504996299743652,0.845812201499939
1696962671229541000,12.361541015625,-2.0445213317871094,-0.11745870113372803,-0.2582944929599762
1696962671239554800,12.371554931640626,3.551863670349121,-0.3646705150604248,-0.057799965143203735
1696962671249568500,12.381568603515625,-3.0803580284118652,-0.842731237411499,-0.3759458065032959
1696962671259582200,12.391582275390626,0.00978851318359375,-0.09347915649414062,1.8269485235214233
1696962671269596000,12.401595947265625,-0.35400390625,0.9597873687744141,0.14593002200126648
1696962671279609600,12.411609619140625,-1.4523897171020508,-1.2401623725891113,-0.06531909108161926
1696962671289623300,12.421623291015624,1.3560705184936523,-0.30813002586364746,-0.24427686631679535
1696962671299637000,12.431636962890625,0.46365833282470703,-0.0348200798034668,-0.24618469178676605
1696962671309650700,12.441650634765624,0.26704978942871094,1.020249605178833,1.9658927917480469
1696962671319664400,12.451664306640625,1.7658414840698242,-0.7466866970062256,1.053335189819336
1696962671329678000,12.461677978515626,-2.54427433013916,-0.3540921211242676,-0.023779213428497314
1696962671339691800,12.47169189453125,2.2546424865722656,-0.35130763053894043,-0.48771122097969055
1696962671349705500,12.48170556640625,-0.8715076446533203,-0.24669408798217773,-0.7189335823059082
1696962671359719200,12.49171923828125,-1.3854436874389648,-0.34536921977996826,1.5820999145507812
1696962671369732900,12.50173291015625,2.2826929092407227,0.9047868251800537,0.8616769313812256
1696962671379746600,12.51174658203125,-0.16069316864013672,0.23960447311401367,-0.2982000708580017
1696962671389760300,12.52176025390625,1.4116668701171875,-0.9543290138244629,-0.018445312976837158
1696962671399774000,12.53177392578125,-1.005722999572754,-1.2039774656295776,-0.4140801429748535
1696962671409787600,12.54178759765625,-3.320589065551758,0.35131514072418213,-0.11319607496261597
1696962671419801300,12.55180126953125,2.4314613342285156,-0.2784823179244995,0.1604190170764923
1696962671429815000,12.56181494140625,-0.9863452911376953,-0.5604767799377441,-0.09592387080192566
1696962671439828700,12.571828857421876,2.0074291229248047,-1.1223443746566772,0.09077087044715881
1696962671449842400,12.581842529296875,0.6074542999267578,0.3306232690811157,-0.12095919251441956
1696962671459856100,12.591856201171876,1.2420434951782227,0.7811652421951294,0.8052878379821777
