time,seconds_elapsed,z,y,x
1696962659032343300,0.16434326171875,0.001997311832383275,-0.0053261648863554,0.006524552125483751
1696962659042222000,0.17422216796875,0.006258244160562754,-0.012782796286046505,-0.004127778112888336
1696962659052132900,0.1841328125,0.006258244160562754,0.0031956990715116262,-0.004127778112888336
1696962659062078700,0.19407861328125,0.009453942999243736,-0.04367455467581749,0.0001331541279796511
1696962659072061200,0.204061279296875,0.0030625448562204838,-0.02236989326775074,0.009720250964164734
1696962659082079500,0.21407958984375,0.013714875094592571,-0.02982652559876442,-0.012649642303586006
1696962659092132400,0.22413232421875,-0.0011983871227130294,0.04047885537147522,-0.006258244160562754
1696962659102216700,0.234216796875,0.010519175790250301,-0.08415340632200241,0.010785484686493874
1696962659112328700,0.24432861328125,-0.0033288532868027687,0.08308817446231842,-0.020106272771954536
1696962659122463000,0.254462890625,0.007323476951569319,-0.03089175745844841,0.007589785382151604
1696962659132614000,0.26461376953125,0.0030625448562204838,0.007456631399691105,-0.001997311832383275
1696962659142775300,0.274775390625,-0.0001331541279796511,0.01704372838139534,0.00226362026296556
1696962659152941000,0.284941162109375,0.006258244160562754,0.01810896210372448,-0.011584409512579441
1696962659163055900,0.295055908203125,-0.0001331541279796511,0.04047885537147522,0.0011983871227130294
1696962659173069600,0.305069580078125,0.008388710208237171,-0.05219641700387001,0.005459319334477186
1696962659183083000,0.3150830078125,0.0030625448562204838,0.06071828305721283,-0.012649642303586006
1696962659193096700,0.3250966796875,0.010519175790250301,-0.0532616525888443,0.009720250964164734
1696962659203110100,0.335110107421875,0.001997311832383275,0.05113118514418602,-0.017975807189941406
1696962659213123800,0.345123779296875,0.0030625448562204838,-0.03515268862247467,0.009720250964164734
1696962659223137500,0.355137451171875,0.011584409512579441,-0.0031956990715116262,-0.031823836266994476
1696962659233151000,0.36515087890625,-0.0001331541279796511,0.007456631399691105,0.011850717477500439
1696962659243164700,0.37516455078125,0.010519175790250301,-0.05645735189318657,-0.019041040912270546
1696962659253178000,0.38517822265625,-0.0001331541279796511,0.0532616525888443,-0.008388710208237171
1696962659263191800,0.39519189453125,0.006258244160562754,-0.07776200771331787,-0.005193010903894901
1696962659273205500,0.40520556640625,-0.0011983871227130294,0.0426093190908432,-0.016910573467612267
1696962659283219000,0.415218994140625,-0.00226362026296556,0.01810896210372448,-0.009453942999243736
1696962659293232600,0.425232666015625,0.006258244160562754,-0.02343512699007988,-0.008388710208237171
1696962659303246000,0.43524609375,-0.007589785382151604,0.05219641700387001,-0.014780107885599136
1696962659313259800,0.445259765625,0.008388710208237171,-0.04473978653550148,0.0011983871227130294
1696962659323273500,0.4552734375,-0.0033288532868027687,0.03941362351179123,-0.013714875094592571
1696962659333287000,0.465286865234375,0.001997311832383275,-0.03302222490310669,-0.0030625448562204838
1696962659343300600,0.475300537109375,0.005193010903894901,0.0159784946590662,-0.010519175790250301
1696962659353314000,0.48531396484375,0.007323476951569319,-0.03621792420744896,-0.0009320789249613881
1696962659363327700,0.49532763671875,0.001997311832383275,0.012782796286046505,0.0033288532868027687
1696962659373341400,0.505341552734375,0.005193010903894901,-0.0213046595454216,-0.0030625448562204838
1696962659383355000,0.51535498046875,0.010519175790250301,-0.01917419396340847,-0.009453942999243736
1696962659393368600,0.52536865234375,-0.0033288532868027687,-0.004260932095348835,0.005459319334477186
1696962659403382000,0.535382080078125,0.014780107885599136,-0.04900071769952774,0.00226362026296556
1696962659413395700,0.545395751953125,0.001997311832383275,-0.0063913981430232525,0.00226362026296556
1696962659423409400,0.555409423828125,0.010519175790250301,-0.03089175745844841,-0.004127778112888336
1696962659433422800,0.5654228515625,0.004127778112888336,-0.009587096981704235,0.007589785382151604
1696962659443436500,0.5754365234375,0.009453942999243736,-0.02236989326775074,-0.007323476951569319
1696962659453450000,0.585449951171875,-0.0011983871227130294,0.01704372838139534,0.008655018173158169
1696962659463463700,0.595463623046875,0.010519175790250301,-0.05219641700387001,0.0001331541279796511
1696962659473477400,0.605477294921875,0.001997311832383275,0.01384802907705307,0.00226362026296556
1696962659483490800,0.61549072265625,0.0009320789249613881,0.02023942768573761,-0.009453942999243736
1696962659493504500,0.62550439453125,0.007323476951569319,-0.03089175745844841,0.005459319334477186
1696962659503518000,0.63551806640625,0.005193010903894901,0.0213046595454216,-0.020106272771954536
1696962659513531600,0.64553173828125,0.001997311832383275,-0.01704372838139534,0.020372580736875534
1696962659523545300,0.65554541015625,0.009453942999243736,-0.00852186419069767,-0.025432437658309937
1696962659533558800,0.665558837890625,0.006258244160562754,0.0106523297727108,0.005459319334477186
1696962659543572500,0.675572509765625,0.007323476951569319,0.004260932095348835,-0.010519175790250301
1696962659553586000,0.6855859375,0.004127778112888336,-0.03621792420744896,0.015046416781842709
1696962659563599600,0.695599609375,0.0030625448562204838,0.05965305119752884,-0.017975807189941406
1696962659573613300,0.70561328125,0.0030625448562204838,-0.02663082629442215,0.0011983871227130294
1696962659583626800,0.715626708984375,-0.0033288532868027687,0.02023942768573761,-0.005193010903894901
1696962659593640400,0.725640380859375,0.007323476951569319,-0.01704372838139534,-0.008388710208237171
1696962659603654000,0.73565380859375,-0.0001331541279796511,0.03834838792681694,-0.005193010903894901
1696962659613667600,0.74566748046875,0.001997311832383275,-0.05219641700387001,0.008655018173158169
1696962659623681300,0.755681396484375,-0.0001331541279796511,0.03834838792681694,-0.012649642303586006
1696962659633694700,0.76569482421875,0.005193010903894901,-0.03941362351179123,0.005459319334477186
1696962659643708400,0.77570849609375,-0.00226362026296556,-0.0031956990715116262,-0.005193010903894901
1696962659653721900,0.785721923828125,0.0030625448562204838,-0.05219641700387001,0.008655018173158169
1696962659663735600,0.795735595703125,0.0009320789249613881,0.007456631399691105,-0.008388710208237171
1696962659673749200,0.805749267578125,-0.0001331541279796511,-0.02876129187643528,0.0011983871227130294
1696962659683762700,0.8157626953125,-0.0001331541279796511,-0.05858781561255455,0.011850717477500439
1696962659693776400,0.8257763671875,0.001997311832383275,0.02023942768573761,-0.015845341607928276
1696962659703789800,0.835789794921875,-0.0011983871227130294,-0.03834838792681694,0.018242115154862404
1696962659713803500,0.845803466796875,-0.005459319334477186,0.009587096981704235,0.0011983871227130294
1696962659723817200,0.855817138671875,-0.005459319334477186,0.0021304660476744175,0.0011983871227130294
1696962659733830700,0.86583056640625,-0.008655018173158169,0.01917419396340847,0.006524552125483751
1696962659743844400,0.87584423828125,-0.010785484686493874,0.03728315606713295,0.0033288532868027687
1696962659753857800,0.88585791015625,-0.004394086077809334,-0.02023942768573761,-0.0030625448562204838
1696962659763871500,0.89587158203125,-0.015046416781842709,0.03941362351179123,-0.004127778112888336
1696962659773885200,0.90588525390625,-0.004394086077809334,-0.05006595328450203,0.016111649572849274
1696962659783898600,0.915898681640625,-0.009720250964164734,0.0532616525888443,-0.022236740216612816
1696962659793912300,0.925912353515625,-0.004394086077809334,-0.04900071769952774,0.006524552125483751
1696962659803925800,0.93592578125,-0.0033288532868027687,-0.04047885537147522,0.005459319334477186
1696962659813939500,0.945939453125,-0.008655018173158169,0.04154408723115921,-0.020106272771954536
1696962659823953200,0.955953125,-0.00226362026296556,-0.07989247888326645,0.017176883295178413
1696962659833966600,0.965966552734375,-0.005459319334477186,0.01917419396340847,-0.016910573467612267
1696962659843980300,0.975980224609375,-0.010785484686493874,-0.02556559257209301,0.018242115154862404
1696962659853993700,0.98599365234375,-0.0001331541279796511,0.004260932095348835,-0.035019535571336746
1696962659864007400,0.99600732421875,-0.012915950268507004,0.02663082629442215,0.00226362026296556
1696962659874021000,1.006021240234375,-0.00226362026296556,-0.03302222490310669,-0.017975807189941406
1696962659884034600,1.01603466796875,-0.008655018173158169,0.04473978653550148,-0.008388710208237171
1696962659894048300,1.02604833984375,-0.007589785382151604,0.0021304660476744175,-0.005193010903894901
1696962659904061700,1.036061767578125,-0.005459319334477186,-0.02236989326775074,0.0033288532868027687
1696962659914075400,1.046075439453125,-0.008655018173158169,0.03728315606713295,-0.0030625448562204838
1696962659924089000,1.056089111328125,-0.011850717477500439,0.012782796286046505,0.0033288532868027687
1696962659934102500,1.0661025390625,0.0009320789249613881,-0.05432688444852829,0.010785484686493874
1696962659944116200,1.0761162109375,-0.008655018173158169,0.03089175745844841,0.00226362026296556
1696962659954129700,1.086129638671875,-0.004394086077809334,0.007456631399691105,0.00226362026296556
1696962659964143400,1.096143310546875,-0.004394086077809334,-0.03941362351179123,0.010785484686493874
1696962659974157000,1.106156982421875,-0.005459319334477186,0.00852186419069767,0.0001331541279796511
1696962659984170500,1.11617041015625,-0.005459319334477186,-0.01704372838139534,0.016111649572849274
1696962659994184200,1.12618408203125,-0.00226362026296556,0.0106523297727108,-0.0009320789249613881
1696962660004197600,1.13619775390625,-0.00226362026296556,-0.02236989326775074,0.021437814459204674
1696962660014211300,1.14621142578125,-0.004394086077809334,-0.02023942768573761,0.005459319334477186
1696962660024225000,1.15622509765625,-0.005459319334477186,0.007456631399691105,0.018242115154862404
1696962660034238500,1.166238525390625,-0.005459319334477186,0.00852186419069767,-0.001997311832383275
1696962660044252200,1.176252197265625,-0.007589785382151604,-0.02982652559876442,0.027829213067889214
1696962660054265600,1.186265625,-0.006524552125483751,0.05432688444852829,-0.027562905102968216
1696962660064279300,1.196279296875,-0.009720250964164734,-0.0031956990715116262,0.028894444927573204
1696962660074293000,1.20629296875,-0.00226362026296556,-0.02876129187643528,-0.008388710208237171
1696962660084306400,1.216306396484375,-0.011850717477500439,-0.0031956990715116262,0.019307348877191544
1696962660094320000,1.226320068359375,-0.012915950268507004,0.05219641700387001,-0.021171506494283676
1696962660104333600,1.23633349609375,-0.007589785382151604,-0.03089175745844841,0.008655018173158169
1696962660114347300,1.24634716796875,-0.012915950268507004,-0.004260932095348835,0.010785484686493874
1696962660124361000,1.25636083984375,-0.007589785382151604,0.0106523297727108,-0.015845341607928276
1696962660134374400,1.26637451171875,-0.007589785382151604,0.03941362351179123,-0.008388710208237171
1696962660144388000,1.27638818359375,-0.011850717477500439,-0.03302222490310669,0.007589785382151604
1696962660154401500,1.286401611328125,-0.007589785382151604,0.0010652330238372087,-0.007323476951569319
1696962660164415200,1.296415283203125,-0.006524552125483751,0.007456631399691105,-0.006258244160562754
1696962660174429000,1.306428955078125,-0.0001331541279796511,-0.02343512699007988,-0.011584409512579441
1696962660184442400,1.3164423828125,-0.009720250964164734,-0.02236989326775074,0.0011983871227130294
1696962660194456000,1.3264560546875,-0.0033288532868027687,0.0053261648863554,-0.011584409512579441
1696962660204469500,1.336469482421875,-0.0011983871227130294,-0.04793548583984375,0.006524552125483751
1696962660214483200,1.346483154296875,-0.005459319334477186,0.03621792420744896,-0.016910573467612267
1696962660224497000,1.356496826171875,-0.006524552125483751,-0.04900071769952774,0.011850717477500439
1696962660234510300,1.36651025390625,-0.006524552125483751,0.03515268862247467,-0.023301972076296806
1696962660244524000,1.37652392578125,-0.012915950268507004,0,0.010785484686493874
1696962660254537700,1.386537841796875,0.004127778112888336,-0.012782796286046505,-0.007323476951569319
1696962660264551400,1.396551513671875,-0.023568280041217804,0.07350108027458191,-0.007323476951569319
1696962660274565000,1.406565185546875,0.001997311832383275,-0.07882724702358246,0.008655018173158169
1696962660284578600,1.41657861328125,-0.013981183059513569,0.05219641700387001,0.0033288532868027687
1696962660294592300,1.42659228515625,-0.0011983871227130294,0.012782796286046505,-0.001997311832383275
1696962660304606000,1.43660595703125,-0.005459319334477186,-0.05965305119752884,0.017176883295178413
1696962660314619600,1.44661962890625,-0.0033288532868027687,0.02876129187643528,-0.005193010903894901
1696962660324633300,1.45663330078125,-0.010785484686493874,-0.0053261648863554,0.009720250964164734
1696962660334646800,1.466646728515625,0.007323476951569319,-0.05965305119752884,0.005459319334477186
1696962660344660500,1.476660400390625,-0.013981183059513569,0.009587096981704235,0.007589785382151604
1696962660354674200,1.486674072265625,-0.004394086077809334,-0.0031956990715116262,-0.011584409512579441
1696962660364688000,1.49668798828125,-0.006524552125483751,0.0063913981430232525,0.009720250964164734
1696962660374701600,1.50670166015625,-0.00226362026296556,-0.0159784946590662,-0.011584409512579441
1696962660384715000,1.516715087890625,-0.019307348877191544,0.03834838792681694,0.010785484686493874
1696962660394728700,1.526728759765625,0.001997311832383275,-0.02769605815410614,-0.010519175790250301
1696962660404742400,1.536742431640625,-0.015046416781842709,0.0319569893181324,0.011850717477500439
1696962660414756000,1.546756103515625,-0.005459319334477186,-0.007456631399691105,-0.006258244160562754
1696962660424769800,1.556769775390625,-0.004394086077809334,-0.03941362351179123,0.00226362026296556
1696962660434783200,1.566783203125,-0.011850717477500439,0.06071828305721283,0.0033288532868027687
1696962660444797000,1.576796875,-0.0011983871227130294,-0.03408745676279068,0.00226362026296556
1696962660454810600,1.586810546875,-0.006524552125483751,-0.0426093190908432,0.022503048181533813
1696962660464824300,1.59682421875,-0.009720250964164734,0.04473978653550148,-0.014780107885599136
1696962660474838000,1.606838134765625,-0.005459319334477186,-0.03089175745844841,0.009720250964164734
1696962660484851500,1.6168515625,-0.016111649572849274,0.02982652559876442,0.004394086077809334
1696962660494865200,1.626865234375,0.0009320789249613881,-0.05752258375287056,0.011850717477500439
1696962660504878800,1.63687890625,-0.018242115154862404,0.07243584841489792,-0.016910573467612267
1696962660514892500,1.646892578125,-0.010785484686493874,-0.0319569893181324,0.017176883295178413
1696962660524906200,1.65690625,-0.017176883295178413,0.03089175745844841,-0.0030625448562204838
1696962660534919700,1.666919677734375,-0.013981183059513569,0.06071828305721283,0.0001331541279796511
1696962660544933400,1.676933349609375,-0.019307348877191544,-0.0021304660476744175,0.007589785382151604
1696962660554947000,1.686947021484375,-0.015046416781842709,0.02236989326775074,-0.0009320789249613881
1696962660564960800,1.696960693359375,-0.019307348877191544,0.05113118514418602,-0.006258244160562754
1696962660574974500,1.706974365234375,-0.010785484686493874,0.0213046595454216,0.0033288532868027687
1696962660584988000,1.71698779296875,-0.017176883295178413,0.05006595328450203,-0.009453942999243736
1696962660595001600,1.727001708984375,-0.0033288532868027687,-0.08628387749195099,0.020372580736875534
1696962660605015300,1.737015380859375,-0.015046416781842709,0.0745663121342659,-0.021171506494283676
1696962660615029000,1.747029052734375,-0.010785484686493874,-0.02663082629442215,0.012915950268507004
1696962660625042700,1.757042724609375,-0.007589785382151604,-0.02450035884976387,-0.009453942999243736
1696962660635056000,1.76705615234375,-0.012915950268507004,-0.0021304660476744175,0.009720250964164734
1696962660645069800,1.77706982421875,-0.00226362026296556,-0.004260932095348835,-0.016910573467612267
1696962660655083500,1.78708349609375,-0.006524552125483751,-0.04473978653550148,0.016111649572849274
1696962660665097200,1.79709716796875,-0.006524552125483751,-0.03941362351179123,-0.006258244160562754
1696962660675111000,1.80711083984375,-0.011850717477500439,0.02769605815410614,0.0001331541279796511
1696962660685124400,1.817124267578125,-0.012915950268507004,0.01171756349503994,-0.009453942999243736
1696962660695138000,1.827137939453125,-0.009720250964164734,-0.02343512699007988,0.012915950268507004
1696962660705151700,1.83715185546875,-0.011850717477500439,0.04367455467581749,-0.014780107885599136
1696962660715165200,1.847165283203125,-0.009720250964164734,-0.01384802907705307,0.021437814459204674
1696962660725179000,1.857178955078125,-0.015046416781842709,0.04473978653550148,-0.017975807189941406
1696962660735192300,1.8671923828125,-0.012915950268507004,-0.0010652330238372087,0.016111649572849274
1696962660745206000,1.8772060546875,-0.015046416781842709,0.02450035884976387,-0.006258244160562754
1696962660755219700,1.8872197265625,-0.010785484686493874,0.0031956990715116262,0.008655018173158169
1696962660765233200,1.897233154296875,-0.015046416781842709,0.0159784946590662,-0.009453942999243736
1696962660775246800,1.907246826171875,-0.005459319334477186,-0.07776200771331787,0.024633513763546944
1696962660785260300,1.91726025390625,-0.010785484686493874,-0.007456631399691105,-0.010519175790250301
1696962660795274000,1.92727392578125,-0.009720250964164734,0.0031956990715116262,0.006524552125483751
1696962660805287700,1.93728759765625,-0.006524552125483751,-0.08095771074295044,0.0011983871227130294
1696962660815301000,1.947301025390625,-0.006524552125483751,-0.05752258375287056,0.011850717477500439
1696962660825314800,1.957314697265625,-0.010785484686493874,0.04047885537147522,-0.011584409512579441
1696962660835328300,1.967328369140625,-0.007589785382151604,-0.04793548583984375,0.009720250964164734
1696962660845342000,1.977342041015625,-0.006524552125483751,-0.01917419396340847,0.011850717477500439
1696962660855355600,1.987355712890625,-0.009720250964164734,0.0053261648863554,0.0001331541279796511
1696962660865369000,1.997369140625,-0.013981183059513569,0.06284874677658081,-0.005193010903894901
1696962660875382800,2.0073828125,-0.005459319334477186,-0.05539211630821228,0.028894444927573204
1696962660885396200,2.017396240234375,-0.013981183059513569,0.06817491352558136,-0.016910573467612267
1696962660895410000,2.027409912109375,-0.012915950268507004,-0.0159784946590662,0.020372580736875534
1696962660905423600,2.037423583984375,-0.007589785382151604,0.0063913981430232525,-0.008388710208237171
1696962660915437000,2.04743701171875,-0.022503048181533813,0.05965305119752884,0.0033288532868027687
1696962660925450800,2.05745068359375,-0.0011983871227130294,-0.06604444980621338,0.018242115154862404
1696962660935464200,2.067464111328125,-0.013981183059513569,0.03941362351179123,-0.027562905102968216
1696962660945478000,2.077477783203125,-0.016111649572849274,0.0010652330238372087,0.022503048181533813
1696962660955491600,2.08749169921875,-0.0033288532868027687,-0.0532616525888443,-0.006258244160562754
1696962660965505000,2.097505126953125,-0.023568280041217804,0.04900071769952774,0.005459319334477186
1696962660975518700,2.107518798828125,-0.010785484686493874,-0.012782796286046505,-0.0009320789249613881
1696962660985532200,2.1175322265625,-0.007589785382151604,-0.01171756349503994,0.0033288532868027687
1696962660995545900,2.1275458984375,-0.018242115154862404,0.01810896210372448,0.0011983871227130294
1696962661005559600,2.1375595703125,-0.006524552125483751,-0.02450035884976387,0.013981183059513569
1696962661015573000,2.147572998046875,-0.015046416781842709,0.05006595328450203,-0.013714875094592571
1696962661025586700,2.157586669921875,-0.015046416781842709,-0.0159784946590662,0.012915950268507004
1696962661035600100,2.16760009765625,-0.013981183059513569,0.03728315606713295,0.0011983871227130294
1696962661045613800,2.17761376953125,-0.010785484686493874,0.02769605815410614,-0.013714875094592571
1696962661055627500,2.18762744140625,-0.012915950268507004,0.009587096981704235,0.021437814459204674
1696962661065641000,2.197640869140625,-0.013981183059513569,0.02876129187643528,-0.015845341607928276
1696962661075654700,2.207654541015625,-0.015046416781842709,-0.02450035884976387,0.031024912372231483
1696962661085668000,2.217668212890625,-0.010785484686493874,0.05645735189318657,-0.027562905102968216
1696962661095681800,2.227681884765625,-0.015046416781842709,0.03941362351179123,0.009720250964164734
1696962661105695500,2.237695556640625,-0.007589785382151604,-0.00852186419069767,-0.012649642303586006
1696962661115709000,2.247708984375,-0.008655018173158169,-0.03728315606713295,0.005459319334477186
1696962661125722600,2.25772265625,-0.011850717477500439,0.09800143539905548,-0.012649642303586006
1696962661135736300,2.267736328125,-0.005459319334477186,-0.04154408723115921,0.007589785382151604
1696962661145750000,2.27775,-0.012915950268507004,0.01384802907705307,0.0001331541279796511
1696962661155763500,2.287763427734375,-0.012915950268507004,-0.0031956990715116262,-0.021171506494283676
1696962661165777200,2.297777099609375,-0.011850717477500439,0.0532616525888443,0.008655018173158169
1696962661175790800,2.307790771484375,-0.0033288532868027687,-0.05752258375287056,-0.005193010903894901
1696962661185804500,2.317804443359375,-0.008655018173158169,-0.02769605815410614,0.013981183059513569
1696962661195818200,2.327818359375,-0.012915950268507004,0.01704372838139534,-0.004127778112888336
1696962661205831700,2.337831787109375,-0.009720250964164734,-0.02556559257209301,0.012915950268507004
1696962661215845400,2.347845458984375,-0.007589785382151604,-0.01491326279938221,0.019307348877191544
1696962661225859000,2.357859130859375,-0.011850717477500439,-0.02023942768573761,0.0033288532868027687
1696962661235872800,2.367872802734375,-0.006524552125483751,-0.03515268862247467,0.03528584539890289
1696962661245886500,2.377886474609375,-0.010785484686493874,0.04580501839518547,-0.008388710208237171
1696962661255900000,2.38789990234375,-0.006524552125483751,-0.07882724702358246,0.044872939586639404
1696962661265913600,2.39791357421875,-0.018242115154862404,0.0426093190908432,-0.005193010903894901
1696962661275927300,2.40792724609375,-0.011850717477500439,0.02982652559876442,0.0001331541279796511
1696962661285941000,2.41794091796875,-0.011850717477500439,-0.02023942768573761,0.023568280041217804
1696962661295954700,2.42795458984375,-0.015046416781842709,0.03941362351179123,-0.017975807189941406
1696962661305968000,2.437968017578125,-0.018242115154862404,-0.0319569893181324,0.025698747485876083
1696962661315981800,2.44798193359375,-0.017176883295178413,0.09693620353937149,-0.033954303711652756
1696962661325995500,2.45799560546875,-0.021437814459204674,0.004260932095348835,0.009720250964164734
1696962661336009200,2.46800927734375,-0.013981183059513569,-0.03621792420744896,-0.008388710208237171
1696962661346023000,2.47802294921875,-0.023568280041217804,0.1065233051776886,-0.019041040912270546
1696962661356036400,2.488036376953125,-0.005459319334477186,-0.08202294260263443,-0.001997311832383275
1696962661366050000,2.498050048828125,-0.024633513763546944,0.05858781561255455,0.006524552125483751
1696962661376063700,2.508063720703125,-0.011850717477500439,0,-0.035019535571336746
1696962661386077400,2.518077392578125,-0.019307348877191544,0.04473978653550148,0.006524552125483751
1696962661396091100,2.528091064453125,-0.018242115154862404,0.03302222490310669,-0.019041040912270546
1696962661406104600,2.5381044921875,-0.019307348877191544,-0.0053261648863554,0.0011983871227130294
1696962661416118300,2.5481181640625,-0.016111649572849274,0.04900071769952774,-0.019041040912270546
1696962661426132000,2.558132080078125,-0.017176883295178413,0.01171756349503994,0.00226362026296556
1696962661436145700,2.568145751953125,-0.015046416781842709,0.012782796286046505,-0.0009320789249613881
1696962661446159400,2.578159423828125,-0.013981183059513569,-0.03621792420744896,0.009720250964164734
1696962661456172800,2.5881728515625,-0.012915950268507004,0.01491326279938221,-0.006258244160562754
1696962661466186500,2.5981865234375,-0.013981183059513569,-0.01917419396340847,0.012915950268507004
1696962661476200200,2.6082001953125,-0.012915950268507004,0.01917419396340847,-0.010519175790250301
1696962661486214000,2.6182138671875,-0.006524552125483751,-0.03728315606713295,0.027829213067889214
1696962661496227600,2.6282275390625,-0.012915950268507004,0.04473978653550148,-0.029693370684981346
1696962661506241000,2.638240966796875,-0.019307348877191544,-0.0159784946590662,0.041677240282297134
1696962661516254700,2.648254638671875,-0.008655018173158169,0.0106523297727108,-0.029693370684981346
1696962661526268400,2.658268310546875,-0.019307348877191544,0.0532616525888443,0.009720250964164734
1696962661536282000,2.6682822265625,-0.010785484686493874,-0.03834838792681694,-0.013714875094592571
1696962661546295800,2.6782958984375,-0.017176883295178413,0.04154408723115921,0.0011983871227130294
1696962661556309200,2.688309326171875,-0.005459319334477186,0.03302222490310669,-0.028628136962652206
1696962661566323000,2.698322998046875,-0.013981183059513569,0.01704372838139534,0.006524552125483751
1696962661576336600,2.708336669921875,-0.006524552125483751,-0.03728315606713295,-0.017975807189941406
1696962661586350300,2.718350341796875,-0.017176883295178413,0.06924014538526535,-0.023301972076296806
1696962661596364000,2.728364013671875,-0.004394086077809334,-0.01491326279938221,-0.019041040912270546
1696962661606377500,2.73837744140625,-0.009720250964164734,0.0010652330238372087,-0.021171506494283676
1696962661616391200,2.74839111328125,-0.010785484686493874,0.007456631399691105,-0.0009320789249613881
1696962661626404900,2.75840478515625,0.007323476951569319,-0.05965305119752884,-0.025432437658309937
1696962661636418600,2.76841845703125,-0.018242115154862404,0.05539211630821228,-0.012649642303586006
1696962661646432300,2.778432373046875,-0.004394086077809334,-0.10119713842868805,0.004394086077809334
1696962661656446000,2.788446044921875,-0.013981183059513569,0.08628387749195099,-0.042476166039705276
1696962661666459400,2.79845947265625,-0.013981183059513569,0.007456631399691105,0.0011983871227130294
1696962661676473000,2.80847314453125,-0.007589785382151604,-0.0319569893181324,-0.006258244160562754
1696962661686486800,2.81848681640625,-0.017176883295178413,0.02556559257209301,0.007589785382151604
1696962661696500500,2.82850048828125,-0.012915950268507004,0.03302222490310669,-0.028628136962652206
1696962661706514200,2.83851416015625,-0.019307348877191544,0.03515268862247467,0.007589785382151604
1696962661716527600,2.848527587890625,-0.015046416781842709,-0.009587096981704235,-0.006258244160562754
1696962661726541300,2.858541259765625,-0.009720250964164734,0.01704372838139534,-0.009453942999243736
1696962661736555000,2.868554931640625,-0.009720250964164734,0.03728315606713295,-0.001997311832383275
1696962661746568700,2.878568603515625,-0.0011983871227130294,-0.11291470378637314,0.025698747485876083
1696962661756582400,2.88858251953125,-0.009720250964164734,0.05219641700387001,-0.012649642303586006
1696962661766595800,2.898595947265625,-0.004394086077809334,-0.07030537724494934,0.006524552125483751
1696962661776609500,2.908609619140625,-0.006524552125483751,0.03515268862247467,0.004394086077809334
1696962661786623200,2.918623291015625,0.0009320789249613881,-0.09693620353937149,0.013981183059513569
1696962661796637000,2.928636962890625,-0.0033288532868027687,0.08628387749195099,-0.015845341607928276
1696962661806650600,2.938650634765625,-0.004394086077809334,-0.07882724702358246,0.019307348877191544
1696962661816664000,2.9486640625,-0.004394086077809334,0.02663082629442215,0.004394086077809334
1696962661826677800,2.958677734375,-0.010785484686493874,0.05965305119752884,0.0001331541279796511
1696962661836691500,2.96869140625,-0.0011983871227130294,0.02236989326775074,-0.014780107885599136
1696962661846705200,2.978705078125,-0.012915950268507004,0.03834838792681694,0.016111649572849274
1696962661856720600,2.988720703125,-0.005459319334477186,0.07563154399394989,-0.025432437658309937
1696962661866732500,2.998732666015625,-0.004394086077809334,0.02982652559876442,0.012915950268507004
1696962661876744700,3.00874462890625,-0.009720250964164734,0.07989247888326645,-0.020106272771954536
1696962661886756900,3.0187568359375,-0.005459319334477186,0.03515268862247467,0.0011983871227130294
1696962661896769000,3.02876904296875,0.006258244160562754,0.03089175745844841,-0.024367205798625946
1696962661906781700,3.03878173828125,0.0030625448562204838,-0.0021304660476744175,-0.001997311832383275
1696962661916794400,3.04879443359375,-0.0001331541279796511,0.01384802907705307,-0.005193010903894901
1696962661926807300,3.058807373046875,0.007323476951569319,0.03408745676279068,-0.037150003015995026
1696962661936820700,3.06882080078125,0.006258244160562754,0.02023942768573761,0.007589785382151604
1696962661946834200,3.078834228515625,0.010519175790250301,-0.03941362351179123,-0.023301972076296806
1696962661956848000,3.08884814453125,0.0009320789249613881,0.02236989326775074,-0.001997311832383275
1696962661966862300,3.0988623046875,0.013714875094592571,-0.02343512699007988,-0.012649642303586006
1696962661976876500,3.10887646484375,-0.00226362026296556,0.05965305119752884,0.008655018173158169
1696962661986891000,3.11889111328125,0.007323476951569319,-0.05113118514418602,-0.009453942999243736
1696962661996905700,3.12890576171875,-0.0011983871227130294,0.06178351491689682,0.018242115154862404
1696962662006920400,3.13892041015625,0.001997311832383275,0.03408745676279068,-0.011584409512579441
1696962662016935400,3.148935302734375,-0.0011983871227130294,-0.01704372838139534,0.040612008422613144
1696962662026950100,3.1589501953125,-0.00226362026296556,0.06284874677658081,-0.0009320789249613881
1696962662036964600,3.168964599609375,0.0030625448562204838,0.04047885537147522,0.026763979345560074
1696962662046978300,3.178978271484375,0.0030625448562204838,0.0031956990715116262,0.025698747485876083
1696962662056992000,3.188991943359375,-0.0011983871227130294,0.02663082629442215,0.024633513763546944
1696962662067005400,3.19900537109375,0.005193010903894901,0.05113118514418602,0.011850717477500439
1696962662077019100,3.20901904296875,0.010519175790250301,0.0010652330238372087,0.021437814459204674
1696962662087032800,3.21903271484375,0.010519175790250301,-0.03515268862247467,0.033155377954244614
1696962662097046500,3.229046630859375,0.012649642303586006,-0.03941362351179123,0.006524552125483751
1696962662107060200,3.239060302734375,0.008388710208237171,0.04793548583984375,0.018242115154862404
1696962662117074000,3.249073974609375,0.016910573467612267,-0.05432688444852829,0.015046416781842709
1696962662127087400,3.25908740234375,0.017975807189941406,0.0021304660476744175,-0.006258244160562754
1696962662137101000,3.26910107421875,0.010519175790250301,0.02450035884976387,0.007589785382151604
1696962662147114800,3.27911474609375,0.025432437658309937,-0.07137060910463333,0.03209014609456062
1696962662157128400,3.28912841796875,0.007323476951569319,0.06178351491689682,-0.005193010903894901
1696962662167142100,3.29914208984375,0.006258244160562754,0.09906667470932007,-0.028628136962652206
1696962662177155600,3.309155517578125,0.014780107885599136,-0.0010652330238372087,0.025698747485876083
1696962662187169300,3.319169189453125,0.017975807189941406,0.0159784946590662,-0.030758604407310486
1696962662197183000,3.329182861328125,0.007323476951569319,0.03408745676279068,0.033155377954244614
1696962662207196700,3.33919677734375,0.024367205798625946,0.01704372838139534,-0.06378082931041718
1696962662217210400,3.34921044921875,0.015845341607928276,-0.007456631399691105,0.034220609813928604
1696962662227223800,3.359223876953125,0.029693370684981346,-0.05113118514418602,-0.023301972076296806
1696962662237237500,3.369237548828125,0.014780107885599136,0.03834838792681694,-0.0009320789249613881
1696962662247251200,3.379251220703125,0.028628136962652206,-0.03089175745844841,-0.021171506494283676
1696962662257265000,3.389264892578125,0.026497671380639076,-0.09906667470932007,0.05232957378029823
1696962662267278600,3.399278564453125,0.023301972076296806,0.02236989326775074,-0.013714875094592571
1696962662277292000,3.4092919921875,0.015845341607928276,0.01384802907705307,0.009720250964164734
1696962662287305700,3.4193056640625,0.016910573467612267,0.004260932095348835,0.006524552125483751
1696962662297319400,3.4293193359375,0.008388710208237171,0.04047885537147522,0.022503048181533813
1696962662307333000,3.4393330078125,0.010519175790250301,0.05006595328450203,0.026763979345560074
1696962662317346800,3.449346923828125,0.011584409512579441,0.03941362351179123,0.00226362026296556
1696962662327360300,3.4593603515625,-0.00226362026296556,0.05645735189318657,0.03209014609456062
1696962662337374000,3.4693740234375,0.012649642303586006,0.04793548583984375,0.00226362026296556
1696962662347387600,3.4793876953125,0.008388710208237171,0.01491326279938221,0.019307348877191544
1696962662357401300,3.4894013671875,0.011584409512579441,0.012782796286046505,0.021437814459204674
1696962662367415000,3.4994150390625,0.011584409512579441,0.0010652330238372087,0.028894444927573204
1696962662377428500,3.509428466796875,0.011584409512579441,0.03408745676279068,-0.0030625448562204838
1696962662387442200,3.519442138671875,0.008388710208237171,-0.004260932095348835,0.020372580736875534
1696962662397456000,3.529455810546875,0.016910573467612267,-0.0021304660476744175,0.00226362026296556
1696962662407469600,3.539469482421875,0.015845341607928276,-0.02769605815410614,0.016111649572849274
1696962662417483300,3.549483154296875,0.013714875094592571,0.02982652559876442,-0.0030625448562204838
1696962662427496700,3.55949658203125,0.020106272771954536,-0.03941362351179123,-0.005193010903894901
1696962662437510400,3.569510498046875,0.026497671380639076,-0.03089175745844841,0.007589785382151604
1696962662447524000,3.579524169921875,0.017975807189941406,0.02556559257209301,-0.020106272771954536
1696962662457537800,3.589537841796875,0.015845341607928276,-0.0063913981430232525,0.007589785382151604
1696962662467551500,3.599551513671875,0.022236740216612816,-0.02236989326775074,-0.0030625448562204838
1696962662477565000,3.60956494140625,0.014780107885599136,0.06817491352558136,-0.012649642303586006
1696962662487578600,3.61957861328125,0.023301972076296806,-0.03941362351179123,0.0001331541279796511
1696962662497592300,3.62959228515625,0.014780107885599136,0.01491326279938221,0.010785484686493874
1696962662507606000,3.63960595703125,0.015845341607928276,0.07989247888326645,-0.025432437658309937
1696962662517619700,3.64961962890625,0.022236740216612816,-0.03408745676279068,0.0001331541279796511
1696962662527633200,3.659633056640625,0.014780107885599136,0.01171756349503994,0.010785484686493874
1696962662537646800,3.669646728515625,0.025432437658309937,-0.02556559257209301,-0.012649642303586006
1696962662547660500,3.67966064453125,0.016910573467612267,0.04900071769952774,-0.006258244160562754
1696962662557674200,3.68967431640625,0.026497671380639076,-0.06178351491689682,0.009720250964164734
1696962662567688000,3.69968798828125,0.026497671380639076,-0.02876129187643528,0.016111649572849274
1696962662577701400,3.709701416015625,0.016910573467612267,0.009587096981704235,0.0011983871227130294
1696962662587715000,3.719715087890625,0.03288906812667847,-0.05432688444852829,0.020372580736875534
1696962662597728800,3.729728759765625,0.014780107885599136,0.05752258375287056,-0.007323476951569319
1696962662607742500,3.739742431640625,0.015845341607928276,-0.04367455467581749,0.031024912372231483
1696962662617756200,3.749756103515625,0.011584409512579441,0.08415340632200241,0.004394086077809334
1696962662627769900,3.759769775390625,0.022236740216612816,-0.04900071769952774,0.024633513763546944
1696962662637783300,3.769783203125,0.008388710208237171,0.04793548583984375,0.008655018173158169
1696962662647797000,3.779796875,0.009453942999243736,-0.0031956990715116262,-0.0009320789249613881
1696962662657810700,3.789810791015625,0.025432437658309937,-0.0159784946590662,0.027829213067889214
1696962662667824400,3.799824462890625,0.012649642303586006,0.05219641700387001,-0.009453942999243736
1696962662677838000,3.809838134765625,0.020106272771954536,-0.07882724702358246,0.019307348877191544
1696962662687851500,3.8198515625,0.012649642303586006,0.0159784946590662,-0.012649642303586006
1696962662697865200,3.829865234375,0.021171506494283676,0.01384802907705307,-0.010519175790250301
1696962662707879000,3.83987890625,0.014780107885599136,0.0213046595454216,-0.013714875094592571
1696962662717892600,3.849892578125,0.014780107885599136,0.0031956990715116262,-0.0009320789249613881
1696962662727906300,3.85990625,0.021171506494283676,0.02343512699007988,-0.017975807189941406
1696962662737919700,3.869919677734375,0.015845341607928276,-0.00852186419069767,-0.0009320789249613881
1696962662747933400,3.879933349609375,0.014780107885599136,0.07030537724494934,-0.03288906812667847
1696962662757947100,3.889947021484375,0.016910573467612267,0.04793548583984375,-0.009453942999243736
1696962662767960800,3.8999609375,0.023301972076296806,0.004260932095348835,-0.008388710208237171
1696962662777974500,3.909974609375,0.023301972076296806,0.0021304660476744175,-0.004127778112888336
1696962662787988000,3.919988037109375,0.021171506494283676,0.009587096981704235,0.009720250964164734
1696962662798001700,3.930001708984375,0.022236740216612816,0.03834838792681694,-0.033954303711652756
1696962662808015400,3.940015380859375,0.022236740216612816,-0.05432688444852829,0.020372580736875534
1696962662818029000,3.950029052734375,0.020106272771954536,0.01704372838139534,-0.011584409512579441
1696962662828042800,3.960042724609375,0.023301972076296806,-0.0010652330238372087,0.008655018173158169
1696962662838056200,3.97005615234375,0.022236740216612816,0.004260932095348835,-0.010519175790250301
1696962662848070000,3.98006982421875,0.013714875094592571,-0.012782796286046505,-0.0030625448562204838
1696962662858083600,3.99008349609375,0.020106272771954536,0.012782796286046505,0.011850717477500439
1696962662868097300,4.00009716796875,0.024367205798625946,-0.0159784946590662,-0.008388710208237171
1696962662878111000,4.010111083984375,0.017975807189941406,0.009587096981704235,0.013981183059513569
1696962662888124400,4.02012451171875,0.010519175790250301,-0.0063913981430232525,0.008655018173158169
1696962662898138000,4.03013818359375,0.016910573467612267,0.004260932095348835,0.008655018173158169
1696962662908151800,4.04015185546875,0.020106272771954536,-0.04154408723115921,0.0011983871227130294
1696962662918165500,4.05016552734375,0.006258244160562754,0.01704372838139534,0.007589785382151604
1696962662928179200,4.06017919921875,0.004127778112888336,-0.0031956990715116262,0.010785484686493874
1696962662938193000,4.07019287109375,0.017975807189941406,-0.03728315606713295,0.005459319334477186
1696962662948206600,4.08020654296875,0.005193010903894901,0.0106523297727108,0.0033288532868027687
1696962662958220300,4.09022021484375,0.012649642303586006,-0.0639139786362648,0.005459319334477186
1696962662968234000,4.10023388671875,-0.004394086077809334,0.06710968166589737,0.0011983871227130294
1696962662978247700,4.11024755859375,0.008388710208237171,-0.05858781561255455,-0.005193010903894901
1696962662988261400,4.120261474609375,-0.0001331541279796511,-0.0031956990715116262,0.0033288532868027687
1696962662998275000,4.130275146484375,0.004127778112888336,-0.05645735189318657,-0.0009320789249613881
1696962663008288800,4.140288818359375,-0.0011983871227130294,0.03728315606713295,-0.017975807189941406
1696962663018302500,4.150302490234375,0.0009320789249613881,-0.08095771074295044,0.00226362026296556
1696962663028316200,4.160316162109375,-0.008655018173158169,0.03408745676279068,-0.010519175790250301
1696962663038329900,4.170329833984375,0.001997311832383275,0.03089175745844841,-0.017975807189941406
1696962663048343600,4.180343505859375,-0.0001331541279796511,-0.03408745676279068,-0.0009320789249613881
1696962663058357200,4.190357177734375,-0.0033288532868027687,-0.01704372838139534,0.009720250964164734
1696962663068371000,4.200370849609375,-0.00226362026296556,0.02556559257209301,-0.011584409512579441
1696962663078384600,4.210384521484375,-0.0033288532868027687,0.0031956990715116262,0.015046416781842709
1696962663088398300,4.2203984375,-0.00226362026296556,-0.04580501839518547,0.00226362026296556
1696962663098412000,4.230412109375,-0.010785484686493874,0.06178351491689682,0.008655018173158169
1696962663108425700,4.24042578125,0.0030625448562204838,-0.10971900075674057,0.013981183059513569
1696962663118439400,4.250439453125,-0.010785484686493874,0.04473978653550148,0.0033288532868027687
1696962663128453000,4.260453125,-0.0011983871227130294,-0.07563154399394989,0.026763979345560074
1696962663138466800,4.270466796875,-0.007589785382151604,0.009587096981704235,-0.010519175790250301
1696962663148480500,4.28048046875,-0.008655018173158169,-0.03089175745844841,0.041677240282297134
1696962663158494200,4.290494140625,-0.0011983871227130294,0.03941362351179123,-0.029693370684981346
1696962663168508000,4.3005078125,-0.009720250964164734,0.0010652330238372087,0.034220609813928604
1696962663178521600,4.310521484375,-0.00226362026296556,-0.02343512699007988,0.007589785382151604
1696962663188535300,4.320535400390625,-0.013981183059513569,-0.01384802907705307,0.03848154470324516
1696962663198549000,4.330549072265625,-0.004394086077809334,0.04900071769952774,-0.020106272771954536
1696962663208562700,4.340562744140625,-0.011850717477500439,0.02450035884976387,0.019307348877191544
1696962663218576400,4.350576416015625,-0.005459319334477186,-0.0532616525888443,0.033155377954244614
1696962663228590000,4.360590087890625,-0.009720250964164734,-0.0063913981430232525,0.0033288532868027687
1696962663238603800,4.370603759765625,-0.010785484686493874,0.02876129187643528,0.019307348877191544
1696962663248617500,4.380617431640625,-0.004394086077809334,0.01491326279938221,0.00226362026296556
1696962663258631200,4.390631103515625,-0.004394086077809334,-0.0745663121342659,0.03209014609456062
1696962663268644900,4.400644775390625,-0.004394086077809334,-0.0021304660476744175,-0.014780107885599136
1696962663278658600,4.410658447265625,-0.011850717477500439,-0.0063913981430232525,0.03848154470324516
1696962663288672300,4.42067236328125,-0.0001331541279796511,-0.02769605815410614,-0.020106272771954536
1696962663298686000,4.43068603515625,-0.023568280041217804,0.07989247888326645,-0.010519175790250301
1696962663308699600,4.44069970703125,-0.00226362026296556,-0.12037133425474167,0.009720250964164734
1696962663318713300,4.45071337890625,-0.021437814459204674,0.12037133425474167,-0.022236740216612816
1696962663328727000,4.46072705078125,0.001997311832383275,-0.0426093190908432,-0.021171506494283676
1696962663338740700,4.47074072265625,-0.010785484686493874,-0.05006595328450203,0.008655018173158169
1696962663348754400,4.48075439453125,-0.016111649572849274,0.06178351491689682,-0.006258244160562754
1696962663358768000,4.49076806640625,0.0030625448562204838,0.02982652559876442,-0.033954303711652756
1696962663368781800,4.50078173828125,-0.004394086077809334,-0.03941362351179123,0.0001331541279796511
1696962663378795500,4.51079541015625,-0.015046416781842709,-0.05113118514418602,0.027829213067889214
1696962663388809200,4.520809326171875,-0.00226362026296556,0.0319569893181324,-0.023301972076296806
1696962663398823000,4.530822998046875,-0.006524552125483751,0.02236989326775074,-0.016910573467612267
1696962663408836600,4.540836669921875,-0.007589785382151604,-0.09693620353937149,0.004394086077809334
1696962663418850300,4.550850341796875,-0.010785484686493874,0.06710968166589737,-0.026497671380639076
1696962663428864000,4.560864013671875,0.0030625448562204838,-0.06071828305721283,-0.009453942999243736
1696962663438877700,4.570877685546875,-0.005459319334477186,0.0159784946590662,-0.005193010903894901
1696962663448891400,4.580891357421875,-0.007589785382151604,-0.04154408723115921,0.007589785382151604
1696962663458905000,4.590905029296875,-0.0011983871227130294,0.02876129187643528,-0.004127778112888336
1696962663468918800,4.600918701171875,-0.007589785382151604,-0.03408745676279068,0.0033288532868027687
1696962663478932500,4.610932373046875,-0.007589785382151604,0.00852186419069767,0.0033288532868027687
1696962663488946200,4.6209462890625,-0.011850717477500439,0.11397993564605713,-0.030758604407310486
1696962663498960000,4.6309599609375,0.0030625448562204838,-0.13102366030216217,0.03528584539890289
1696962663508973600,4.6409736328125,-0.016111649572849274,0.0031956990715116262,0.028894444927573204
1696962663518987300,4.6509873046875,-0.0011983871227130294,-0.03834838792681694,-0.012649642303586006
1696962663529001000,4.6610009765625,-0.006524552125483751,0.01384802907705307,0.0011983871227130294
1696962663539014700,4.6710146484375,-0.006524552125483751,-0.10971900075674057,0.040612008422613144
1696962663549028400,4.6810283203125,-0.012915950268507004,0.06284874677658081,-0.019041040912270546
1696962663559042000,4.6910419921875,-0.005459319334477186,-0.03834838792681694,0.006524552125483751
1696962663569055700,4.7010556640625,-0.007589785382151604,-0.04367455467581749,0.007589785382151604
1696962663579069400,4.7110693359375,-0.019307348877191544,-0.0106523297727108,0.016111649572849274
1696962663589083100,4.721083251953125,-0.007589785382151604,0.0053261648863554,-0.03608476743102074
1696962663599096800,4.731096923828125,-0.015046416781842709,0.02556559257209301,0.004394086077809334
1696962663609110500,4.741110595703125,-0.008655018173158169,-0.08415340632200241,0.011850717477500439
1696962663619124200,4.751124267578125,-0.012915950268507004,0.04900071769952774,-0.022236740216612816
1696962663629138000,4.761137939453125,-0.012915950268507004,0.07563154399394989,-0.030758604407310486
1696962663639151600,4.771151611328125,0.0030625448562204838,-0.1501978635787964,0.022503048181533813
1696962663649165300,4.781165283203125,-0.010785484686493874,0.03089175745844841,0.0001331541279796511
1696962663659179000,4.791178955078125,0.0009320789249613881,-0.05752258375287056,-0.006258244160562754
1696962663669192700,4.801192626953125,-0.008655018173158169,0.00852186419069767,-0.006258244160562754
1696962663679206400,4.811206298828125,-0.005459319334477186,-0.0745663121342659,0.019307348877191544
1696962663689220000,4.82122021484375,-0.00226362026296556,-0.0639139786362648,0.0001331541279796511
1696962663699233800,4.83123388671875,-0.004394086077809334,0.05113118514418602,-0.008388710208237171
1696962663709247500,4.84124755859375,-0.00226362026296556,-0.08202294260263443,0.022503048181533813
1696962663719261200,4.85126123046875,-0.006524552125483751,0.04154408723115921,-0.009453942999243736
1696962663729275000,4.86127490234375,-0.004394086077809334,-0.04473978653550148,0.04274247586727142
1696962663739288600,4.87128857421875,0.001997311832383275,-0.03941362351179123,0.00226362026296556
1696962663749302300,4.88130224609375,-0.012915950268507004,0.05965305119752884,0.027829213067889214
1696962663759316000,4.89131591796875,-0.0001331541279796511,-0.08734910935163498,0.012915950268507004
1696962663769329700,4.90132958984375,-0.008655018173158169,0.04154408723115921,0.026763979345560074
1696962663779343400,4.91134326171875,-0.0011983871227130294,-0.03621792420744896,0.033155377954244614
1696962663789357000,4.921357177734375,-0.012915950268507004,0.0021304660476744175,0.008655018173158169
1696962663799370800,4.931370849609375,-0.008655018173158169,-0.0213046595454216,0.04593817517161369
1696962663809384400,4.941384521484375,-0.0001331541279796511,0.02663082629442215,0.008655018173158169
1696962663819398100,4.951398193359375,-0.005459319334477186,-0.05752258375287056,0.033155377954244614
1696962663829411800,4.961411865234375,-0.010785484686493874,-0.03621792420744896,0.03528584539890289
1696962663839425500,4.971425537109375,-0.010785484686493874,0.05645735189318657,-0.010519175790250301
1696962663849439200,4.981439208984375,-0.009720250964164734,-0.03728315606713295,0.050199106335639954
1696962663859453000,4.991452880859375,-0.013981183059513569,0.01704372838139534,-0.008388710208237171
1696962663869466600,5.001466552734375,-0.015046416781842709,-0.00852186419069767,0.019307348877191544
1696962663879480000,5.01147998046875,-0.005459319334477186,0,-0.012649642303586006
1696962663889493800,5.02149365234375,-0.008655018173158169,-0.03834838792681694,0.0033288532868027687
1696962663899507500,5.031507568359375,-0.010785484686493874,0.04580501839518547,-0.012649642303586006
1696962663909521200,5.041521240234375,-0.006524552125483751,-0.01491326279938221,-0.004127778112888336
1696962663919534800,5.051534912109375,-0.00226362026296556,-0.03302222490310669,-0.0030625448562204838
1696962663929548300,5.06154833984375,-0.010785484686493874,0.012782796286046505,-0.001997311832383275
1696962663939562000,5.07156201171875,-0.0011983871227130294,-0.02876129187643528,-0.024367205798625946
1696962663949575700,5.08157568359375,-0.016111649572849274,0.00852186419069767,0.010785484686493874
1696962663959589400,5.09158935546875,-0.0011983871227130294,-0.04473978653550148,-0.010519175790250301
1696962663969603000,5.10160302734375,-0.0011983871227130294,0.004260932095348835,-0.023301972076296806
1696962663979616500,5.111616455078125,-0.010785484686493874,-0.009587096981704235,0.007589785382151604
1696962663989630200,5.121630126953125,0.0009320789249613881,-0.03515268862247467,-0.0009320789249613881
1696962663999644000,5.131643798828125,-0.005459319334477186,0.04900071769952774,-0.011584409512579441
1696962664009657600,5.14165771484375,-0.0001331541279796511,-0.0319569893181324,0.0033288532868027687
1696962664019671300,5.15167138671875,-0.006524552125483751,-0.04900071769952774,-0.004127778112888336
1696962664029684700,5.161684814453125,-0.009720250964164734,0.07350108027458191,0.008655018173158169
1696962664039698400,5.171698486328125,0.004127778112888336,-0.08947957307100296,-0.005193010903894901
1696962664049712000,5.181712158203125,-0.009720250964164734,0.02343512699007988,0.0033288532868027687
1696962664059725800,5.191725830078125,-0.006524552125483751,-0.04154408723115921,0.018242115154862404
1696962664069739500,5.201739501953125,-0.0001331541279796511,-0.02450035884976387,0.004394086077809334
1696962664079753200,5.211753173828125,-0.009720250964164734,0.02556559257209301,0.009720250964164734
1696962664089767000,5.221766845703125,-0.0011983871227130294,-0.10332760214805603,0.027829213067889214
1696962664099780600,5.231780517578125,-0.018242115154862404,0.07669677585363388,-0.015845341607928276
1696962664109794300,5.241794189453125,-0.0033288532868027687,-0.0426093190908432,0.031024912372231483
1696962664119808000,5.25180810546875,-0.012915950268507004,-0.004260932095348835,-0.014780107885599136
1696962664129821700,5.26182177734375,-0.008655018173158169,-0.05432688444852829,0.03954677656292915
1696962664139835400,5.27183544921875,-0.012915950268507004,0.08628387749195099,-0.03288906812667847
1696962664149849000,5.28184912109375,-0.004394086077809334,-0.08947957307100296,0.015046416781842709
1696962664159862800,5.29186279296875,-0.012915950268507004,0.0159784946590662,-0.005193010903894901
1696962664169876500,5.30187646484375,-0.010785484686493874,0.06178351491689682,-0.03608476743102074
1696962664179890400,5.311890380859375,-0.00226362026296556,-0.07563154399394989,-0.005193010903894901
1696962664189904100,5.321904052734375,-0.008655018173158169,0.004260932095348835,-0.0009320789249613881
1696962664199917800,5.331917724609375,-0.011850717477500439,-0.02450035884976387,-0.031823836266994476
1696962664209931500,5.341931640625,-0.0011983871227130294,-0.0106523297727108,-0.006258244160562754
1696962664219945500,5.351945556640625,-0.012915950268507004,0.04580501839518547,-0.03608476743102074
1696962664229959200,5.361959228515625,-0.00226362026296556,-0.06817491352558136,-0.0030625448562204838
1696962664239972900,5.371972900390625,-0.005459319334477186,0.0532616525888443,-0.030758604407310486
1696962664249986600,5.381986572265625,-0.005459319334477186,-0.03621792420744896,0.015046416781842709
1696962664260000300,5.392000244140625,-0.0001331541279796511,-0.04367455467581749,-0.010519175790250301
1696962664270014200,5.40201416015625,-0.009720250964164734,0.09800143539905548,-0.023301972076296806
1696962664280028000,5.41202783203125,-0.007589785382151604,-0.12143656611442566,0.022503048181533813
1696962664290041600,5.42204150390625,-0.010785484686493874,0.08947957307100296,0.017176883295178413
1696962664300055300,5.43205517578125,-0.00226362026296556,-0.04047885537147522,-0.0030625448562204838
1696962664310069000,5.442069091796875,-0.012915950268507004,0.00852186419069767,0.012915950268507004
1696962664320083000,5.4520830078125,-0.011850717477500439,0.0021304660476744175,0.031024912372231483
1696962664330096600,5.4620966796875,0.0030625448562204838,0.004260932095348835,-0.0009320789249613881
1696962664340110300,5.4721103515625,-0.008655018173158169,-0.06284874677658081,0.034220609813928604
1696962664350124000,5.4821240234375,-0.017176883295178413,0.05539211630821228,0.019307348877191544
1696962664360138000,5.492137939453125,-0.011850717477500439,0.009587096981704235,-0.0009320789249613881
1696962664370151700,5.502151611328125,-0.015046416781842709,0.0010652330238372087,0.040612008422613144
1696962664380165400,5.512165283203125,-0.004394086077809334,-0.004260932095348835,-0.006258244160562754
1696962664390179000,5.522178955078125,-0.022503048181533813,0.0159784946590662,0.013981183059513569
1696962664400192800,5.53219287109375,0.0030625448562204838,-0.05006595328450203,0.013981183059513569
1696962664410206500,5.54220654296875,-0.010785484686493874,0.03302222490310669,-0.013714875094592571
1696962664420220200,5.55222021484375,-0.00226362026296556,-0.09267527610063553,0.012915950268507004
1696962664430233900,5.56223388671875,-0.017176883295178413,0.08628387749195099,-0.014780107885599136
1696962664440247600,5.57224755859375,0.0030625448562204838,-0.02982652559876442,-0.020106272771954536
1696962664450261200,5.58226123046875,-0.010785484686493874,0.01171756349503994,0.0011983871227130294
1696962664460275000,5.59227490234375,-0.006524552125483751,-0.0010652330238372087,-0.001997311832383275
1696962664470288600,5.60228857421875,-0.007589785382151604,0.02556559257209301,-0.022236740216612816
1696962664480302300,5.61230224609375,-0.00226362026296556,0.02876129187643528,0.00226362026296556
1696962664490316000,5.62231591796875,-0.010785484686493874,0.03302222490310669,-0.020106272771954536
1696962664500329700,5.632329833984375,-0.00226362026296556,-0.01917419396340847,0.0011983871227130294
1696962664510343400,5.642343505859375,-0.005459319334477186,0.0639139786362648,-0.008388710208237171
1696962664520357000,5.652357177734375,0.0030625448562204838,-0.02236989326775074,0.0001331541279796511
1696962664530370800,5.662370849609375,-0.008655018173158169,0.03089175745844841,0.00226362026296556
1696962664540384500,5.672384521484375,0.0009320789249613881,-0.01917419396340847,0.010785484686493874
1696962664550398200,5.682398193359375,-0.004394086077809334,0.0021304660476744175,0.00226362026296556
1696962664560412000,5.692411865234375,0.004127778112888336,-0.02450035884976387,0.027829213067889214
1696962664570425600,5.702425537109375,0.0009320789249613881,0.02556559257209301,-0.011584409512579441
1696962664580439300,5.712439208984375,0.0009320789249613881,-0.03621792420744896,0.029959678649902344
1696962664590453000,5.722452880859375,-0.0011983871227130294,-0.03941362351179123,0.018242115154862404
1696962664600467000,5.732467041015625,0.0030625448562204838,0.05645735189318657,-0.03288906812667847
1696962664610480600,5.742480712890625,-0.005459319334477186,-0.0159784946590662,0.03954677656292915
1696962664620494300,5.752494384765625,-0.0033288532868027687,-0.007456631399691105,-0.004127778112888336
1696962664630508000,5.762508056640625,-0.007589785382151604,0.004260932095348835,-0.006258244160562754
1696962664640521700,5.772521728515625,0.0009320789249613881,0.01704372838139534,0.012915950268507004
1696962664650535400,5.782535400390625,-0.006524552125483751,0.02023942768573761,-0.017975807189941406
1696962664660549000,5.792549072265625,-0.0011983871227130294,-0.03834838792681694,0.0033288532868027687
1696962664670562800,5.802562744140625,-0.0001331541279796511,0.08415340632200241,-0.030758604407310486
1696962664680576500,5.812576416015625,-0.0001331541279796511,-0.07669677585363388,0.013981183059513569
1696962664690590200,5.822590087890625,-0.0033288532868027687,0.02663082629442215,-0.023301972076296806
1696962664700604000,5.83260400390625,-0.007589785382151604,0.08308817446231842,-0.021171506494283676
1696962664710617600,5.84261767578125,0.001997311832383275,-0.08415340632200241,-0.009453942999243736
1696962664720631300,5.85263134765625,-0.0033288532868027687,0.004260932095348835,0.010785484686493874
1696962664730645000,5.86264501953125,0.005193010903894901,0.05752258375287056,-0.033954303711652756
1696962664740658700,5.87265869140625,0.0030625448562204838,-0.04687025398015976,0.012915950268507004
1696962664750672400,5.88267236328125,-0.00226362026296556,0.02556559257209301,-0.017975807189941406
1696962664760686000,5.89268603515625,0.008388710208237171,-0.08308817446231842,0.007589785382151604
1696962664770699800,5.90269970703125,-0.0001331541279796511,0.05645735189318657,-0.006258244160562754
1696962664780713500,5.91271337890625,0.005193010903894901,-0.004260932095348835,0.009720250964164734
1696962664790727200,5.92272705078125,0.0030625448562204838,-0.03834838792681694,0.00226362026296556
1696962664800740900,5.932740966796875,-0.0001331541279796511,-0.07243584841489792,0.036351077258586884
1696962664810754600,5.942754638671875,-0.0011983871227130294,0.1800243854522705,-0.055258963257074356
1696962664820768300,5.952768310546875,0.010519175790250301,-0.07989247888326645,0.03209014609456062
1696962664830782000,5.962781982421875,-0.005459319334477186,-0.03408745676279068,0.027829213067889214
1696962664840795600,5.972795654296875,0.0030625448562204838,-0.07350108027458191,0.006524552125483751
1696962664850809300,5.982809326171875,0.0030625448562204838,0.0745663121342659,-0.026497671380639076
1696962664860823000,5.992822998046875,-0.0011983871227130294,-0.012782796286046505,0.022503048181533813
1696962664870836700,6.002836669921875,-0.00226362026296556,-0.05752258375287056,-0.004127778112888336
1696962664880850400,6.012850341796875,-0.005459319334477186,0.02663082629442215,0.007589785382151604
1696962664890864000,6.022864013671875,0.011584409512579441,-0.04687025398015976,-0.009453942999243736
1696962664900877800,6.0328779296875,-0.0011983871227130294,-0.0031956990715116262,-0.011584409512579441
1696962664910891500,6.0428916015625,-0.004394086077809334,0,0.009720250964164734
1696962664920905200,6.0529052734375,-0.0011983871227130294,-0.0010652330238372087,-0.031823836266994476
1696962664930919000,6.0629189453125,-0.0011983871227130294,0.04154408723115921,-0.019041040912270546
1696962664940932600,6.0729326171875,-0.004394086077809334,0.007456631399691105,-0.0009320789249613881
1696962664950946300,6.0829462890625,0.0009320789249613881,-0.03621792420744896,-0.012649642303586006
1696962664960960000,6.0929599609375,-0.008655018173158169,0.05432688444852829,-0.008388710208237171
1696962664970973700,6.1029736328125,0.0009320789249613881,0.03089175745844841,-0.013714875094592571
1696962664980987400,6.1129873046875,0.007323476951569319,-0.0213046595454216,-0.020106272771954536
1696962664991001000,6.1230009765625,-0.0001331541279796511,0.0053261648863554,0.03209014609456062
1696962665001014800,6.133014892578125,0.001997311832383275,0.004260932095348835,-0.024367205798625946
1696962665011028500,6.143028564453125,-0.006524552125483751,0.03408745676279068,0.00226362026296556
1696962665021042200,6.153042236328125,0.007323476951569319,-0.02663082629442215,0.006524552125483751
1696962665031056000,6.163055908203125,-0.008655018173158169,0.02663082629442215,0.005459319334477186
1696962665041069600,6.173069580078125,0.012649642303586006,-0.04580501839518547,0.012915950268507004
1696962665051083300,6.183083251953125,0.0030625448562204838,0.01384802907705307,0.006524552125483751
1696962665061097000,6.193096923828125,0.006258244160562754,-0.07030537724494934,0.016111649572849274
1696962665071110700,6.203110595703125,0.010519175790250301,0.01810896210372448,-0.001997311832383275
1696962665081124400,6.213124267578125,0.001997311832383275,-0.03728315606713295,0.010785484686493874
1696962665091138000,6.223137939453125,-0.010785484686493874,0.04900071769952774,0.0033288532868027687
1696962665101151700,6.23315185546875,0.008388710208237171,-0.0159784946590662,0.016111649572849274
1696962665111165400,6.24316552734375,-0.004394086077809334,-0.007456631399691105,0.012915950268507004
1696962665121179100,6.25317919921875,-0.008655018173158169,0.007456631399691105,0.017176883295178413
1696962665131192800,6.26319287109375,-0.008655018173158169,0.07563154399394989,-0.001997311832383275
1696962665141206500,6.27320654296875,0.0030625448562204838,-0.01917419396340847,0.012915950268507004
1696962665151220200,6.28322021484375,-0.008655018173158169,0.02982652559876442,0.005459319334477186
1696962665161234000,6.29323388671875,-0.011850717477500439,0.02663082629442215,0.012915950268507004
1696962665171247600,6.30324755859375,0.006258244160562754,-0.03941362351179123,-0.009453942999243736
1696962665181261300,6.31326123046875,-0.006524552125483751,0.03408745676279068,0.015046416781842709
1696962665191275000,6.32327490234375,-0.0001331541279796511,-0.03089175745844841,-0.011584409512579441
1696962665201288700,6.333288818359375,0.004127778112888336,-0.01491326279938221,0.013981183059513569
1696962665211302400,6.343302490234375,0.0009320789249613881,-0.02023942768573761,0.009720250964164734
1696962665221316000,6.353316162109375,-0.0011983871227130294,0.01810896210372448,0.004394086077809334
1696962665231329800,6.363329833984375,0.006258244160562754,-0.03515268862247467,-0.0009320789249613881
1696962665241343500,6.373343505859375,-0.007589785382151604,0.02876129187643528,0.021437814459204674
1696962665251357200,6.383357177734375,-0.006524552125483751,0.03515268862247467,-0.014780107885599136
1696962665261371000,6.393370849609375,0.004127778112888336,-0.0319569893181324,0.028894444927573204
1696962665271384600,6.403384521484375,-0.013981183059513569,0.0639139786362648,-0.004127778112888336
1696962665281398300,6.413398193359375,-0.0011983871227130294,-0.01171756349503994,-0.012649642303586006
1696962665291412000,6.423411865234375,0.007323476951569319,0.01810896210372448,0.03528584539890289
1696962665301425700,6.43342578125,0.013714875094592571,-0.05965305119752884,-0.005193010903894901
1696962665311439400,6.443439453125,-0.012915950268507004,0.02876129187643528,-0.008388710208237171
1696962665321453000,6.453453125,-0.008655018173158169,0.0010652330238372087,0.03209014609456062
1696962665331466800,6.463466796875,0.008388710208237171,-0.02023942768573761,-0.019041040912270546
1696962665341480400,6.47348046875,-0.005459319334477186,-0.02663082629442215,0.0011983871227130294
1696962665351494100,6.483494140625,-0.007589785382151604,0.03941362351179123,0.015046416781842709
1696962665361507800,6.4935078125,0.0030625448562204838,-0.03941362351179123,-0.013714875094592571
1696962665371521500,6.503521484375,-0.004394086077809334,0.02982652559876442,0.0011983871227130294
1696962665381535200,6.51353515625,-0.011850717477500439,0.02556559257209301,0.005459319334477186
1696962665391549000,6.523548828125,0.001997311832383275,-0.08841434121131897,0.009720250964164734
1696962665401562600,6.533562744140625,-0.018242115154862404,0.08628387749195099,-0.006258244160562754
1696962665411576300,6.543576416015625,0.009453942999243736,-0.12250179797410965,0.019307348877191544
1696962665421590000,6.553590087890625,-0.010785484686493874,0.07669677585363388,-0.023301972076296806
1696962665431603700,6.563603759765625,-0.011850717477500439,0.01810896210372448,0.03209014609456062
1696962665441617400,6.573617431640625,0.005193010903894901,-0.04367455467581749,0.011850717477500439
1696962665451631000,6.583631103515625,-0.008655018173158169,0.05006595328450203,0.0033288532868027687
1696962665461644800,6.593644775390625,-0.0033288532868027687,-0.02023942768573761,0.015046416781842709
1696962665471658500,6.603658447265625,-0.006524552125483751,0.004260932095348835,0.012915950268507004
1696962665481672200,6.613672119140625,-0.009720250964164734,0.0021304660476744175,0.010785484686493874
1696962665491686000,6.623685791015625,-0.006524552125483751,0.08841434121131897,0.005459319334477186
1696962665501699600,6.633699462890625,0.009453942999243736,-0.14274121820926666,0.025698747485876083
1696962665511713300,6.64371337890625,-0.008655018173158169,0.03408745676279068,0.010785484686493874
1696962665521727000,6.65372705078125,0.0030625448562204838,-0.012782796286046505,0.031024912372231483
1696962665531740700,6.66374072265625,-0.0011983871227130294,-0.03089175745844841,-0.013714875094592571
1696962665541754400,6.67375439453125,-0.012915950268507004,-0.02450035884976387,0.05978620424866676
1696962665551768000,6.68376806640625,-0.0001331541279796511,0.007456631399691105,-0.007323476951569319
1696962665561781800,6.69378173828125,-0.009720250964164734,-0.0106523297727108,0.021437814459204674
1696962665571795500,6.70379541015625,-0.010785484686493874,-0.0426093190908432,0.017176883295178413
1696962665581809200,6.71380908203125,-0.0001331541279796511,0.03089175745844841,0.0011983871227130294
1696962665591822800,6.72382275390625,-0.0033288532868027687,-0.03941362351179123,0.008655018173158169
1696962665601836500,6.73383642578125,-0.012915950268507004,0.05113118514418602,0.005459319334477186
1696962665611850200,6.743850341796875,-0.011850717477500439,-0.02343512699007988,0.016111649572849274
1696962665621864000,6.753864013671875,-0.005459319334477186,-0.007456631399691105,-0.004127778112888336
1696962665631877600,6.763877685546875,-0.022503048181533813,0.06817491352558136,-0.001997311832383275
1696962665641891300,6.773891357421875,-0.00226362026296556,-0.07030537724494934,-0.005193010903894901
1696962665651905000,6.783905029296875,-0.016111649572849274,0.14593692123889923,-0.03608476743102074
1696962665661918700,6.793918701171875,-0.00226362026296556,-0.08095771074295044,0.018242115154862404
1696962665671932400,6.803932373046875,-0.0033288532868027687,0.03089175745844841,-0.007323476951569319
1696962665681946000,6.813946044921875,-0.021437814459204674,0.02023942768573761,0.007589785382151604
1696962665691959800,6.823959716796875,-0.00226362026296556,0.05645735189318657,-0.028628136962652206
1696962665701973500,6.833973388671875,-0.012915950268507004,-0.02023942768573761,0.025698747485876083
1696962665711987200,6.8439873046875,-0.010785484686493874,0.01810896210372448,-0.030758604407310486
1696962665722001000,6.8540009765625,-0.013981183059513569,0.08841434121131897,-0.007323476951569319
1696962665732014600,6.8640146484375,0.017975807189941406,-0.10758853703737259,0.007589785382151604
1696962665742028300,6.8740283203125,-0.023568280041217804,0.03941362351179123,0.04274247586727142
1696962665752042000,6.8840419921875,-0.0011983871227130294,-0.03834838792681694,-0.022236740216612816
1696962665762055700,6.8940556640625,-0.005459319334477186,0.04154408723115921,0.016111649572849274
1696962665772069400,6.9040693359375,-0.006524552125483751,-0.05965305119752884,0.010785484686493874
1696962665782083000,6.9140830078125,0.0009320789249613881,-0.0532616525888443,0.029959678649902344
1696962665792096800,6.9240966796875,-0.016111649572849274,0.07776200771331787,-0.005193010903894901
1696962665802110500,6.9341103515625,0.014780107885599136,-0.11184946447610855,0.034220609813928604
1696962665812124200,6.944124267578125,-0.016111649572849274,0.0053261648863554,-0.008388710208237171
1696962665822137900,6.954137939453125,-0.00226362026296556,-0.0426093190908432,0.029959678649902344
1696962665832151600,6.964151611328125,-0.017176883295178413,0.13102366030216217,-0.023301972076296806
1696962665842165200,6.974165283203125,-0.0001331541279796511,-0.09161003679037094,0.048068638890981674
1696962665852179000,6.984178955078125,-0.021437814459204674,0.1065233051776886,-0.029693370684981346
1696962665862192600,6.994192626953125,-0.010785484686493874,-0.06604444980621338,0.034220609813928604
1696962665872206300,7.004206298828125,-0.008655018173158169,0.11291470378637314,-0.030758604407310486
1696962665882220000,7.014219970703125,-0.019307348877191544,-0.05006595328450203,0.03954677656292915
1696962665892234000,7.02423388671875,-0.010785484686493874,0.07776200771331787,-0.033954303711652756
1696962665902247700,7.03424755859375,-0.010785484686493874,0.00852186419069767,0.029959678649902344
1696962665912261400,7.044261474609375,-0.011850717477500439,0.0319569893181324,0.0001331541279796511
1696962665922275000,7.054275146484375,-0.016111649572849274,-0.004260932095348835,0.007589785382151604
1696962665932289000,7.0642890625,-0.007589785382151604,0.0063913981430232525,-0.017975807189941406
1696962665942302700,7.074302734375,-0.010785484686493874,0.07563154399394989,0.008655018173158169
1696962665952316400,7.08431640625,-0.004394086077809334,-0.03408745676279068,0.0033288532868027687
1696962665962330000,7.094330078125,-0.008655018173158169,-0.0106523297727108,-0.0030625448562204838
1696962665972343800,7.10434375,-0.011850717477500439,0.04367455467581749,0.022503048181533813
1696962665982357800,7.114357666015625,-0.004394086077809334,0.0053261648863554,-0.024367205798625946
1696962665992371500,7.124371337890625,-0.012915950268507004,0.0010652330238372087,0.013981183059513569
1696962666002385200,7.13438525390625,-0.011850717477500439,0.004260932095348835,-0.013714875094592571
1696962666012398800,7.14439892578125,-0.009720250964164734,0.05539211630821228,-0.015845341607928276
1696962666022412500,7.15441259765625,-0.008655018173158169,-0.007456631399691105,0.004394086077809334
1696962666032426500,7.164426513671875,-0.006524552125483751,-0.03728315606713295,-0.017975807189941406
1696962666042440200,7.174440185546875,-0.024633513763546944,0.06071828305721283,0.0011983871227130294
1696962666052454000,7.184453857421875,-0.006524552125483751,0.07669677585363388,-0.028628136962652206
1696962666062467600,7.194467529296875,-0.012915950268507004,-0.04047885537147522,-0.015845341607928276
1696962666072481300,7.204481201171875,-0.006524552125483751,-0.08095771074295044,-0.006258244160562754
1696962666082495200,7.2144951171875,-0.013981183059513569,0.14061075448989868,-0.023301972076296806
1696962666092509000,7.224509033203125,-0.0001331541279796511,-0.1278279572725296,0.012915950268507004
1696962666102522600,7.234522705078125,-0.011850717477500439,0.03941362351179123,-0.027562905102968216
1696962666112536300,7.244536376953125,-0.013981183059513569,0.10758853703737259,-0.009453942999243736
1696962666122550300,7.25455029296875,-0.006524552125483751,-0.08308817446231842,-0.004127778112888336
1696962666132564000,7.26456396484375,-0.013981183059513569,0.04473978653550148,-0.0009320789249613881
1696962666142577700,7.27457763671875,-0.022503048181533813,0.07350108027458191,0.015046416781842709
1696962666152591400,7.28459130859375,-0.004394086077809334,0.0532616525888443,-0.03608476743102074
1696962666162605000,7.29460498046875,-0.016111649572849274,0.012782796286046505,0.0001331541279796511
1696962666172619000,7.304618896484375,-0.00226362026296556,0.009587096981704235,0.00226362026296556
1696962666182632700,7.3146328125,-0.008655018173158169,0.02343512699007988,-0.014780107885599136
1696962666192646400,7.324646484375,-0.011850717477500439,0.02663082629442215,0.015046416781842709
1696962666202660000,7.33466015625,-0.012915950268507004,-0.01917419396340847,0.009720250964164734
1696962666212673800,7.344673828125,0.0030625448562204838,-0.03728315606713295,-0.022236740216612816
1696962666222687700,7.354687744140625,-0.008655018173158169,0.012782796286046505,0.017176883295178413
1696962666232701400,7.364701416015625,0.004127778112888336,-0.08415340632200241,0.005459319334477186
1696962666242715100,7.374715087890625,-0.015046416781842709,0.05219641700387001,-0.014780107885599136
1696962666252728800,7.384728759765625,-0.004394086077809334,-0.07350108027458191,0.031024912372231483
1696962666262742500,7.394742431640625,-0.013981183059513569,0.04367455467581749,-0.009453942999243736
1696962666272756200,7.404756103515625,-0.018242115154862404,0.01810896210372448,-0.012649642303586006
1696962666282770000,7.41477001953125,-0.009720250964164734,-0.0213046595454216,0.016111649572849274
1696962666292783600,7.42478369140625,-0.010785484686493874,0.02982652559876442,-0.014780107885599136
1696962666302797600,7.434797607421875,-0.007589785382151604,-0.04687025398015976,0.013981183059513569
1696962666312811300,7.444811279296875,-0.016111649572849274,0.10865376889705658,-0.004127778112888336
1696962666322825000,7.454824951171875,-0.006524552125483751,-0.07563154399394989,0.009720250964164734
1696962666332838700,7.464838623046875,-0.015046416781842709,0.08202294260263443,-0.011584409512579441
1696962666342852400,7.474852294921875,-0.009720250964164734,-0.02663082629442215,0.020372580736875534
1696962666352866000,7.484865966796875,-0.010785484686493874,0.02343512699007988,-0.028628136962652206
1696962666362879700,7.494879638671875,-0.013981183059513569,0.03408745676279068,0.00226362026296556
1696962666372893400,7.5048935546875,-0.0001331541279796511,-0.01917419396340847,0.007589785382151604
1696962666382907100,7.5149072265625,-0.006524552125483751,0.05965305119752884,-0.029693370684981346
1696962666392920800,7.5249208984375,-0.019307348877191544,0.0010652330238372087,0.004394086077809334
1696962666402934500,7.5349345703125,-0.011850717477500439,0.06817491352558136,0.009720250964164734
1696962666412948200,7.5449482421875,-0.016111649572849274,0.0426093190908432,-0.001997311832383275
1696962666422962000,7.5549619140625,-0.013981183059513569,0.01384802907705307,0.011850717477500439
1696962666432975600,7.5649755859375,-0.013981183059513569,0.06604444980621338,0.0033288532868027687
1696962666442989300,7.5749892578125,-0.007589785382151604,-0.02876129187643528,0.016111649572849274
1696962666453003000,7.5850029296875,-0.015046416781842709,0.04900071769952774,0.0033288532868027687
1696962666463016700,7.5950166015625,-0.018242115154862404,0.02663082629442215,0.0001331541279796511
1696962666473030400,7.605030517578125,-0.010785484686493874,-0.04154408723115921,0.017176883295178413
1696962666483044000,7.615044189453125,-0.013981183059513569,0.06071828305721283,-0.004127778112888336
1696962666493057800,7.625057861328125,-0.004394086077809334,-0.03621792420744896,0.015046416781842709
1696962666503071500,7.635071533203125,-0.005459319334477186,-0.06604444980621338,0.006524552125483751
1696962666513085200,7.645085205078125,-0.008655018173158169,0.04367455467581749,0.010785484686493874
1696962666523099000,7.655098876953125,-0.009720250964164734,0.0053261648863554,0.0033288532868027687
1696962666533112600,7.665112548828125,-0.009720250964164734,-0.02236989326775074,0.007589785382151604
1696962666543126300,7.675126220703125,-0.018242115154862404,0.03834838792681694,0.019307348877191544
1696962666553140000,7.685139892578125,-0.009720250964164734,0.03302222490310669,-0.005193010903894901
1696962666563153700,7.695153564453125,-0.010785484686493874,0.0063913981430232525,0.007589785382151604
1696962666573167400,7.70516748046875,-0.0033288532868027687,-0.05006595328450203,0.037416309118270874
1696962666583181000,7.71518115234375,-0.010785484686493874,0.03302222490310669,-0.016910573467612267
1696962666593194800,7.72519482421875,-0.016111649572849274,0.03515268862247467,0.019307348877191544
1696962666603208400,7.73520849609375,-0.0001331541279796511,-0.09054480493068695,0.022503048181533813
1696962666613222100,7.74522216796875,-0.011850717477500439,0.0106523297727108,0.016111649572849274
1696962666623235800,7.75523583984375,-0.005459319334477186,-0.00852186419069767,0.0011983871227130294
1696962666633249500,7.76524951171875,-0.006524552125483751,-0.02876129187643528,0.041677240282297134
1696962666643263200,7.77526318359375,-0.006524552125483751,-0.08947957307100296,0.008655018173158169
1696962666653277000,7.78527685546875,-0.021437814459204674,0.08415340632200241,-0.001997311832383275
1696962666663290600,7.79529052734375,-0.011850717477500439,-0.01171756349503994,-0.001997311832383275
1696962666673304300,7.80530419921875,-0.018242115154862404,0.007456631399691105,0.0011983871227130294
1696962666683318000,7.815318115234375,-0.021437814459204674,0.04687025398015976,-0.0009320789249613881
1696962666693331700,7.825331787109375,-0.016111649572849274,0.10971900075674057,-0.010519175790250301
1696962666703345400,7.835345458984375,-0.008655018173158169,-0.06710968166589737,0.005459319334477186
1696962666713359000,7.845359130859375,-0.017176883295178413,0.04047885537147522,-0.0009320789249613881
1696962666723372800,7.855372802734375,-0.016111649572849274,0.04580501839518547,-0.015845341607928276
1696962666733386500,7.865386474609375,-0.015046416781842709,0.05432688444852829,-0.016910573467612267
1696962666743400200,7.875400146484375,-0.012915950268507004,-0.03302222490310669,0.012915950268507004
1696962666753414000,7.885413818359375,-0.015046416781842709,0.09906667470932007,-0.020106272771954536
1696962666763427600,7.895427490234375,-0.008655018173158169,-0.06071828305721283,0.008655018173158169
1696962666773441300,7.905441162109375,0.010519175790250301,-0.04367455467581749,0.010785484686493874
1696962666783455000,7.915455078125,-0.015046416781842709,0.0426093190908432,-0.001997311832383275
1696962666793468700,7.92546875,-0.012915950268507004,-0.06178351491689682,0.005459319334477186
1696962666803482400,7.935482421875,-0.011850717477500439,0.07350108027458191,-0.001997311832383275
1696962666813496000,7.94549609375,-0.011850717477500439,-0.03941362351179123,0.03528584539890289
1696962666823509800,7.955509765625,-0.006524552125483751,0.01917419396340847,-0.013714875094592571
1696962666833523500,7.9655234375,-0.007589785382151604,-0.01491326279938221,0.020372580736875534
1696962666843537200,7.975537109375,-0.009720250964164734,-0.0021304660476744175,0.007589785382151604
1696962666853550800,7.98555078125,-0.018242115154862404,-0.004260932095348835,0.020372580736875534
1696962666863564500,7.995564453125,-0.005459319334477186,-0.012782796286046505,-0.010519175790250301
1696962666873578200,8.005578125,-0.010785484686493874,-0.012782796286046505,0.012915950268507004
1696962666883592000,8.015592041015625,-0.009720250964164734,-0.03728315606713295,-0.010519175790250301
1696962666893605600,8.025605712890625,0.005193010903894901,-0.0426093190908432,0.015046416781842709
1696962666903619300,8.035619384765624,0.006258244160562754,-0.11611039936542511,0.004394086077809334
1696962666913633000,8.045633056640625,-0.020372580736875534,0.02769605815410614,0.0033288532868027687
1696962666923646700,8.055646728515624,-0.008655018173158169,-0.02236989326775074,-0.005193010903894901
1696962666933660400,8.065660400390625,-0.009720250964164734,0.03408745676279068,-0.016910573467612267
1696962666943674000,8.075674072265626,-0.011850717477500439,-0.05752258375287056,0.009720250964164734
1696962666953688000,8.08568798828125,-0.018242115154862404,0.11824086308479309,-0.0030625448562204838
1696962666963701800,8.09570166015625,-0.0001331541279796511,-0.09800143539905548,0.012915950268507004
1696962666973715500,8.105715576171875,-0.006524552125483751,-0.00852186419069767,0.025698747485876083
1696962666983729200,8.115729248046875,-0.017176883295178413,0.06178351491689682,-0.014780107885599136
1696962666993742800,8.125742919921874,-0.011850717477500439,-0.04900071769952774,0.017176883295178413
1696962667003756800,8.1357568359375,-0.009720250964164734,0.02343512699007988,0.006524552125483751
1696962667013770500,8.1457705078125,-0.008655018173158169,-0.012782796286046505,0.033155377954244614
1696962667023784200,8.1557841796875,0.008388710208237171,-0.06284874677658081,-0.007323476951569319
1696962667033798000,8.1657978515625,-0.006524552125483751,-0.02556559257209301,0.025698747485876083
1696962667043811600,8.1758115234375,-0.005459319334477186,-0.0532616525888443,0.015046416781842709
1696962667053825500,8.185825439453126,-0.016111649572849274,0.02236989326775074,-0.013714875094592571
1696962667063839200,8.195839111328125,-0.006524552125483751,-0.01917419396340847,0.008655018173158169
1696962667073853000,8.20585302734375,-0.013981183059513569,-0.0063913981430232525,0.007589785382151604
1696962667083866600,8.21586669921875,-0.006524552125483751,0.03621792420744896,-0.035019535571336746
1696962667093880600,8.225880615234376,-0.007589785382151604,-0.05858781561255455,0.03209014609456062
1696962667103894300,8.235894287109375,-0.0001331541279796511,0.02876129187643528,-0.015845341607928276
1696962667113908000,8.245907958984375,-0.019307348877191544,0.01384802907705307,0.0011983871227130294
1696962667123921700,8.255921630859374,-0.010785484686493874,0.0053261648863554,-0.008388710208237171
1696962667133935400,8.265935302734375,-0.015046416781842709,0.02343512699007988,0.0001331541279796511
1696962667143949300,8.27594921875,-0.006524552125483751,0.02023942768573761,-0.017975807189941406
1696962667153963000,8.285962890625,-0.004394086077809334,-0.07030537724494934,0.026763979345560074
1696962667163976700,8.295976806640626,0.0030625448562204838,-0.03834838792681694,-0.004127778112888336
1696962667173990400,8.305990478515625,-0.007589785382151604,-0.01704372838139534,-0.006258244160562754
1696962667184004000,8.316004150390626,-0.0011983871227130294,-0.03515268862247467,0.006524552125483751
1696962667194018000,8.32601806640625,-0.015046416781842709,-0.03728315606713295,0.018242115154862404
1696962667204031700,8.33603173828125,-0.007589785382151604,0.0021304660476744175,0.0033288532868027687
1696962667214045400,8.34604541015625,-0.00226362026296556,0.004260932095348835,0.015046416781842709
1696962667224059100,8.35605908203125,-0.0033288532868027687,-0.10226237028837204,0.031024912372231483
1696962667234073000,8.366072998046874,-0.008655018173158169,0.03302222490310669,-0.010519175790250301
1696962667244086800,8.376086669921875,-0.022503048181533813,0.03621792420744896,0.024633513763546944
1696962667254100500,8.3861005859375,-0.0033288532868027687,-0.04687025398015976,-0.0009320789249613881
1696962667264114200,8.3961142578125,-0.019307348877191544,0.05113118514418602,-0.005193010903894901
1696962667274128000,8.4061279296875,-0.012915950268507004,-0.02663082629442215,0.008655018173158169
1696962667284141600,8.4161416015625,-0.008655018173158169,0.007456631399691105,0.006524552125483751
1696962667294155300,8.4261552734375,-0.005459319334477186,-0.06497921794652939,0.009720250964164734
1696962667304169000,8.4361689453125,-0.018242115154862404,0.04367455467581749,-0.015845341607928276
1696962667314182700,8.4461826171875,-0.015046416781842709,0.0063913981430232525,0.0033288532868027687
1696962667324196400,8.4561962890625,-0.012915950268507004,-0.01384802907705307,-0.001997311832383275
1696962667334210000,8.4662099609375,-0.010785484686493874,0.03089175745844841,-0.016910573467612267
1696962667344223700,8.4762236328125,-0.006524552125483751,-0.04687025398015976,0.010785484686493874
1696962667354237400,8.486237548828125,-0.00226362026296556,-0.02876129187643528,-0.012649642303586006
1696962667364251100,8.496251220703124,-0.017176883295178413,0.05006595328450203,-0.011584409512579441
1696962667374264800,8.506264892578125,-0.010785484686493874,-0.01810896210372448,0.006524552125483751
1696962667384278500,8.516278564453126,-0.011850717477500439,-0.0010652330238372087,-0.021171506494283676
1696962667394292200,8.526292236328125,-0.013981183059513569,0.02876129187643528,-0.0030625448562204838
1696962667404306000,8.536305908203126,-0.007589785382151604,-0.01810896210372448,-0.017975807189941406
1696962667414319600,8.546319580078125,0.001997311832383275,-0.08415340632200241,-0.004127778112888336
1696962667424333300,8.556333251953125,-0.008655018173158169,0.03089175745844841,-0.025432437658309937
1696962667434347000,8.566346923828124,-0.005459319334477186,-0.04154408723115921,0.011850717477500439
1696962667444360700,8.576360595703125,-0.004394086077809334,-0.03621792420744896,-0.024367205798625946
1696962667454374400,8.58637451171875,-0.011850717477500439,0.02556559257209301,-0.011584409512579441
1696962667464388000,8.59638818359375,-0.015046416781842709,-0.04367455467581749,-0.001997311832383275
1696962667474401800,8.60640185546875,-0.00226362026296556,0.02023942768573761,-0.019041040912270546
1696962667484415700,8.616415771484375,-0.011850717477500439,-0.02236989326775074,-0.005193010903894901
1696962667494429400,8.626429443359376,-0.008655018173158169,0.012782796286046505,-0.008388710208237171
1696962667504443100,8.636443115234375,-0.008655018173158169,0.04687025398015976,-0.026497671380639076
1696962667514456800,8.646456787109376,-0.013981183059513569,-0.1171756312251091,0.018242115154862404
1696962667524470500,8.656470458984375,-0.016111649572849274,0.17895914614200592,-0.044606633484363556
1696962667534484200,8.666484130859375,-0.00226362026296556,-0.0852186381816864,0.023568280041217804
1696962667544498000,8.676497802734374,-0.007589785382151604,-0.02450035884976387,-0.020106272771954536
1696962667554511600,8.68651171875,-0.021437814459204674,0.05432688444852829,0.0011983871227130294
1696962667564525300,8.696525390625,0.007323476951569319,-0.06497921794652939,-0.012649642303586006
1696962667574539000,8.7065390625,-0.016111649572849274,0.01810896210372448,-0.004127778112888336
1696962667584552700,8.716552734375,-0.004394086077809334,-0.03515268862247467,0.009720250964164734
1696962667594566400,8.72656640625,-0.006524552125483751,-0.0213046595454216,-0.0030625448562204838
1696962667604580000,8.736580078125,-0.0001331541279796511,-0.05965305119752884,0.00226362026296556
1696962667614593800,8.74659375,-0.011850717477500439,0.00852186419069767,0.017176883295178413
1696962667624607500,8.756607421875,-0.008655018173158169,-0.03408745676279068,-0.010519175790250301
1696962667634621200,8.76662109375,-0.016111649572849274,0.02343512699007988,0.011850717477500439
1696962667644635000,8.776634765625,-0.017176883295178413,0.05006595328450203,0.0033288532868027687
1696962667654648600,8.786648681640624,-0.0033288532868027687,-0.0532616525888443,-0.013714875094592571
1696962667664662300,8.796662353515625,-0.015046416781842709,0.01491326279938221,-0.001997311832383275
1696962667674676000,8.806676025390624,-0.017176883295178413,0.0159784946590662,0.015046416781842709
1696962667684689700,8.816689697265625,-0.013981183059513569,0.05006595328450203,-0.025432437658309937
1696962667694703400,8.826703369140626,-0.008655018173158169,-0.05539211630821228,0.013981183059513569
1696962667704717000,8.836717041015625,-0.023568280041217804,0.08628387749195099,-0.015845341607928276
1696962667714730800,8.846730712890626,-0.015046416781842709,0.0010652330238372087,-0.011584409512579441
1696962667724744400,8.856744384765625,-0.013981183059513569,0.03621792420744896,-0.008388710208237171
1696962667734758100,8.866758056640625,-0.00226362026296556,-0.07243584841489792,-0.011584409512579441
1696962667744771800,8.876771728515624,-0.012915950268507004,0.11078423261642456,-0.037150003015995026
1696962667754785500,8.88678564453125,-0.0033288532868027687,-0.09693620353937149,0.0001331541279796511
1696962667764799200,8.89679931640625,-0.007589785382151604,0.03728315606713295,-0.019041040912270546
1696962667774813000,8.90681298828125,-0.0001331541279796511,-0.06710968166589737,-0.008388710208237171
1696962667784826600,8.91682666015625,-0.009720250964164734,0,-0.011584409512579441
1696962667794840300,8.92684033203125,-0.010785484686493874,-0.0106523297727108,-0.005193010903894901
1696962667804854000,8.93685400390625,-0.0033288532868027687,0.0063913981430232525,-0.020106272771954536
1696962667814867700,8.94686767578125,-0.008655018173158169,-0.07030537724494934,0.0001331541279796511
1696962667824881400,8.95688134765625,-0.017176883295178413,0.08095771074295044,-0.009453942999243736
1696962667834895000,8.96689501953125,-0.006524552125483751,-0.05219641700387001,0.0001331541279796511
1696962667844908800,8.97690869140625,-0.006524552125483751,-0.02343512699007988,-0.009453942999243736
1696962667854922500,8.986922607421874,-0.018242115154862404,0.0021304660476744175,0.0001331541279796511
1696962667864936200,8.996936279296875,-0.016111649572849274,0.04580501839518547,-0.005193010903894901
1696962667874950000,9.006949951171874,-0.018242115154862404,0.04367455467581749,-0.025432437658309937
1696962667884963600,9.016963623046875,-0.012915950268507004,0,0.022503048181533813
1696962667894977300,9.026977294921876,-0.010785484686493874,0.02023942768573761,-0.015845341607928276
1696962667904991000,9.036990966796875,-0.011850717477500439,-0.0063913981430232525,-0.0030625448562204838
1696962667915004700,9.047004638671876,-0.009720250964164734,0.01171756349503994,-0.010519175790250301
1696962667925018400,9.057018310546875,-0.012915950268507004,0.0021304660476744175,-0.001997311832383275
1696962667935032000,9.067031982421875,-0.009720250964164734,0.0159784946590662,-0.007323476951569319
1696962667945045800,9.077045654296874,-0.009720250964164734,0.0010652330238372087,0.0001331541279796511
1696962667955059500,9.0870595703125,-0.0001331541279796511,-0.02876129187643528,0.0001331541279796511
1696962667965073200,9.0970732421875,-0.006524552125483751,-0.02556559257209301,0.008655018173158169
1696962667975086800,9.1070869140625,-0.008655018173158169,0.0213046595454216,-0.005193010903894901
1696962667985100500,9.1171005859375,-0.005459319334477186,-0.04473978653550148,0.007589785382151604
1696962667995114200,9.1271142578125,-0.009720250964164734,0,0.005459319334477186
1696962668005128000,9.1371279296875,-0.004394086077809334,-0.03941362351179123,0.044872939586639404
1696962668015141600,9.1471416015625,-0.009720250964164734,0.05006595328450203,-0.033954303711652756
1696962668025155300,9.1571552734375,-0.009720250964164734,-0.09800143539905548,0.0555252730846405
1696962668035169000,9.1671689453125,-0.009720250964164734,0.09693620353937149,-0.017975807189941406
1696962668045182700,9.1771826171875,-0.017176883295178413,-0.00852186419069767,0.012915950268507004
1696962668055196400,9.187196533203124,-0.012915950268507004,0.009587096981704235,0.013981183059513569
1696962668065210000,9.197210205078125,-0.021437814459204674,0.07563154399394989,0.009720250964164734
1696962668075223800,9.207223876953124,-0.006524552125483751,-0.03408745676279068,0.018242115154862404
1696962668085237500,9.217237548828125,-0.016111649572849274,0.02663082629442215,0.0033288532868027687
1696962668095251200,9.227251220703126,-0.011850717477500439,0.009587096981704235,0.020372580736875534
1696962668105265000,9.237264892578125,-0.020372580736875534,0.0745663121342659,-0.011584409512579441
1696962668115278600,9.247278564453126,-0.006524552125483751,-0.04793548583984375,0.03209014609456062
1696962668125292300,9.257292236328125,-0.012915950268507004,0.04793548583984375,-0.001997311832383275
1696962668135306000,9.267305908203125,-0.0011983871227130294,-0.0639139786362648,0.03209014609456062
1696962668145319700,9.277319580078125,-0.0001331541279796511,-0.06284874677658081,0.0011983871227130294
1696962668155333400,9.28733349609375,-0.013981183059513569,0.05858781561255455,0.004394086077809334
1696962668165347000,9.29734716796875,-0.007589785382151604,-0.07882724702358246,0.024633513763546944
1696962668175360800,9.30736083984375,-0.008655018173158169,0.03515268862247467,0.013981183059513569
1696962668185374500,9.31737451171875,-0.012915950268507004,-0.01384802907705307,0.012915950268507004
1696962668195388200,9.32738818359375,-0.011850717477500439,-0.0010652330238372087,0.029959678649902344
1696962668205401900,9.33740185546875,-0.007589785382151604,-0.03089175745844841,0.006524552125483751
1696962668215415600,9.34741552734375,-0.019307348877191544,0.03089175745844841,0.022503048181533813
1696962668225429200,9.35742919921875,-0.017176883295178413,0.06497921794652939,0.006524552125483751
1696962668235443000,9.36744287109375,-0.005459319334477186,-0.07243584841489792,0.025698747485876083
1696962668245456600,9.37745654296875,-0.018242115154862404,0.10226237028837204,-0.0009320789249613881
1696962668255470300,9.38747021484375,-0.007589785382151604,-0.06604444980621338,0.03954677656292915
1696962668265484000,9.397484130859375,0.0009320789249613881,-0.05752258375287056,-0.009453942999243736
1696962668275497700,9.407497802734374,-0.012915950268507004,-0.02236989326775074,0.031024912372231483
1696962668285511400,9.417511474609375,-0.008655018173158169,0.05539211630821228,-0.014780107885599136
1696962668295525000,9.427525146484374,-0.004394086077809334,-0.04793548583984375,0.019307348877191544
1696962668305538800,9.437538818359375,-0.006524552125483751,-0.01491326279938221,-0.005193010903894901
1696962668315552500,9.447552490234376,-0.008655018173158169,0.02023942768573761,0.021437814459204674
1696962668325566200,9.457566162109375,0.0030625448562204838,-0.06178351491689682,0.00226362026296556
1696962668335580000,9.467579833984376,-0.005459319334477186,0.02236989326775074,-0.011584409512579441
1696962668345593600,9.477593505859375,-0.012915950268507004,-0.00852186419069767,0.023568280041217804
1696962668355607300,9.487607177734375,0.006258244160562754,-0.00852186419069767,-0.004127778112888336
1696962668365621000,9.49762109375,-0.004394086077809334,-0.012782796286046505,0.011850717477500439
1696962668375634700,9.507634765625,0.006258244160562754,-0.07137060910463333,0.028894444927573204
1696962668385648400,9.5176484375,-0.0033288532868027687,0.01810896210372448,0.00226362026296556
1696962668395662000,9.527662109375,0.0030625448562204838,-0.0021304660476744175,0.011850717477500439
1696962668405675800,9.53767578125,-0.012915950268507004,0.05645735189318657,0.010785484686493874
1696962668415689500,9.547689453125,-0.0001331541279796511,-0.04580501839518547,0.011850717477500439
1696962668425703200,9.557703125,-0.009720250964164734,0.15658925473690033,-0.012649642303586006
1696962668435716900,9.567716796875,-0.005459319334477186,-0.05858781561255455,0.031024912372231483
1696962668445730600,9.57773046875,0.0030625448562204838,0.012782796286046505,-0.006258244160562754
1696962668455744300,9.587744140625,-0.004394086077809334,0.05539211630821228,-0.023301972076296806
1696962668465758000,9.597758056640625,0.001997311832383275,-0.0063913981430232525,-0.0009320789249613881
1696962668475771600,9.607771728515624,-0.0011983871227130294,0.0532616525888443,-0.009453942999243736
1696962668485785300,9.617785400390625,0.013714875094592571,-0.06604444980621338,-0.004127778112888336
1696962668495799000,9.627799072265624,0.012649642303586006,-0.02769605815410614,-0.004127778112888336
1696962668505812700,9.637812744140625,0.011584409512579441,-0.05113118514418602,0.006524552125483751
1696962668515826700,9.64782666015625,0.007323476951569319,-0.009587096981704235,-0.015845341607928276
1696962668525840400,9.65784033203125,0.006258244160562754,-0.0319569893181324,0.016111649572849274
1696962668535854000,9.66785400390625,0.009453942999243736,-0.009587096981704235,0.0001331541279796511
1696962668545867800,9.67786767578125,0.007323476951569319,-0.05113118514418602,0.010785484686493874
1696962668555881700,9.6878818359375,0.010519175790250301,-0.02663082629442215,0.0001331541279796511
1696962668565895400,9.6978955078125,-0.0011983871227130294,0.04367455467581749,0.016111649572849274
1696962668575909000,9.7079091796875,-0.00226362026296556,0.02982652559876442,0.006524552125483751
1696962668585922800,9.7179228515625,-0.0001331541279796511,-0.01704372838139534,0.012915950268507004
1696962668595936500,9.7279365234375,-0.00226362026296556,0.08734910935163498,-0.007323476951569319
1696962668605950500,9.737950439453124,-0.0001331541279796511,-0.01810896210372448,0.018242115154862404
1696962668615964200,9.747964111328125,0.014780107885599136,-0.06284874677658081,0.008655018173158169
1696962668625977900,9.757977783203126,-0.00226362026296556,0.07350108027458191,-0.006258244160562754
1696962668635991600,9.767991455078125,0.001997311832383275,0,0.008655018173158169
1696962668646005200,9.778005126953126,0.0030625448562204838,0.01384802907705307,0.008655018173158169
1696962668656019200,9.788019287109375,0.006258244160562754,0.02876129187643528,-0.004127778112888336
1696962668666033000,9.798032958984376,0.007323476951569319,-0.04900071769952774,0.017176883295178413
1696962668676046600,9.808046630859375,0.017975807189941406,-0.03621792420744896,-0.0030625448562204838
1696962668686060300,9.818060302734375,0.004127778112888336,0.0319569893181324,0.004394086077809334
1696962668696074000,9.828073974609374,0.009453942999243736,-0.03515268862247467,0.004394086077809334
1696962668706088000,9.838087890625,0.006258244160562754,0.012782796286046505,0.012915950268507004
1696962668716101600,9.8481015625,0.008388710208237171,-0.02663082629442215,0.026763979345560074
1696962668726115300,9.858115234375,0.015845341607928276,-0.09906667470932007,0.03209014609456062
1696962668736129000,9.86812890625,0.0030625448562204838,0.07137060910463333,-0.017975807189941406
1696962668746143000,9.87814306640625,-0.0033288532868027687,0.02343512699007988,0.019307348877191544
1696962668756156700,9.88815673828125,0.007323476951569319,-0.04047885537147522,0.013981183059513569
1696962668766170400,9.89817041015625,-0.00226362026296556,0.11078423261642456,-0.0009320789249613881
1696962668776184000,9.90818408203125,-0.0011983871227130294,-0.04900071769952774,0.031024912372231483
1696962668786197800,9.91819775390625,0.015845341607928276,-0.02876129187643528,0.0011983871227130294
1696962668796211700,9.928211669921875,-0.00226362026296556,0.04047885537147522,-0.015845341607928276
1696962668806225400,9.938225341796874,0.0030625448562204838,-0.0159784946590662,0.016111649572849274
1696962668816239000,9.948239013671875,0.001997311832383275,0.05006595328450203,-0.015845341607928276
1696962668826252800,9.958252685546874,-0.0001331541279796511,0.05113118514418602,-0.013714875094592571
1696962668836266500,9.9682666015625,0.005193010903894901,-0.0063913981430232525,0.009720250964164734
1696962668846280200,9.9782802734375,0.010519175790250301,-0.04580501839518547,-0.006258244160562754
1696962668856294000,9.9882939453125,0.004127778112888336,0.0426093190908432,-0.017975807189941406
1696962668866307600,9.9983076171875,0.014780107885599136,-0.06284874677658081,0.005459319334477186
1696962668876321300,10.0083212890625,0.010519175790250301,0.02236989326775074,-0.0009320789249613881
1696962668886335000,10.0183349609375,0.010519175790250301,-0.08947957307100296,-0.007323476951569319
1696962668896348700,10.0283486328125,0.013714875094592571,0.01704372838139534,-0.010519175790250301
1696962668906362400,10.0383623046875,0.007323476951569319,-0.02982652559876442,-0.001997311832383275
1696962668916376000,10.0483759765625,0.0030625448562204838,0.02663082629442215,-0.011584409512579441
1696962668926389800,10.0583896484375,0.001997311832383275,0.0213046595454216,-0.019041040912270546
1696962668936403500,10.068403564453124,-0.00226362026296556,0.0319569893181324,-0.0030625448562204838
1696962668946417200,10.078417236328125,-0.0011983871227130294,0.04367455467581749,-0.014780107885599136
1696962668956430800,10.088430908203126,0.010519175790250301,-0.04154408723115921,-0.005193010903894901
1696962668966444500,10.098444580078125,-0.0033288532868027687,0.10545806586742401,-0.033954303711652756
1696962668976458200,10.108458251953126,0.005193010903894901,-0.05113118514418602,0.010785484686493874
1696962668986472000,10.118471923828125,0.006258244160562754,0.03302222490310669,-0.026497671380639076
1696962668996485600,10.128485595703125,0.004127778112888336,0.03302222490310669,-0.001997311832383275
1696962669006499300,10.138499267578124,0.012649642303586006,-0.03728315606713295,0.0011983871227130294
1696962669016513000,10.148512939453125,0.008388710208237171,0.0053261648863554,-0.019041040912270546
1696962669026526700,10.158526611328124,0.006258244160562754,-0.0053261648863554,-0.004127778112888336
1696962669036540400,10.16854052734375,0.007323476951569319,0.03834838792681694,0.015046416781842709
1696962669046554000,10.17855419921875,0.014780107885599136,-0.03834838792681694,-0.011584409512579441
1696962669056567800,10.18856787109375,-0.004394086077809334,0.07350108027458191,0.004394086077809334
1696962669066581500,10.19858154296875,0.007323476951569319,-0.02023942768573761,0.026763979345560074
1696962669076595200,10.20859521484375,0.004127778112888336,0.03408745676279068,0.004394086077809334
1696962669086609000,10.21860888671875,0.008388710208237171,0,-0.004127778112888336
1696962669096622600,10.22862255859375,0.005193010903894901,0.004260932095348835,0.017176883295178413
1696962669106636300,10.23863623046875,0.006258244160562754,0.012782796286046505,0.009720250964164734
1696962669116650000,10.24864990234375,0.010519175790250301,-0.03941362351179123,0.006524552125483751
1696962669126663700,10.25866357421875,0.010519175790250301,0.0159784946590662,-0.0009320789249613881
1696962669136677400,10.268677490234374,0.009453942999243736,-0.01171756349503994,0.004394086077809334
1696962669146691000,10.278691162109375,0.001997311832383275,0.0426093190908432,0.0033288532868027687
1696962669156704800,10.288704833984376,0.005193010903894901,0.01704372838139534,-0.0009320789249613881
1696962669166718500,10.298718505859375,0.011584409512579441,0.05006595328450203,-0.0009320789249613881
1696962669176732200,10.308732177734376,0.009453942999243736,-0.02663082629442215,-0.006258244160562754
1696962669186745900,10.318745849609375,0.012649642303586006,-0.02556559257209301,0.0033288532868027687
1696962669196759600,10.328759521484375,0.004127778112888336,0.14061075448989868,-0.017975807189941406
1696962669206773500,10.3387734375,0.025432437658309937,-0.11930610239505768,0.011850717477500439
1696962669216787200,10.348787109375,0.015845341607928276,0.012782796286046505,-0.015845341607928276
1696962669226801000,10.35880078125,0.014780107885599136,-0.02236989326775074,0.026763979345560074
1696962669236814600,10.368814697265625,0.013714875094592571,0.06924014538526535,-0.014780107885599136
1696962669246828300,10.378828369140624,0.007323476951569319,-0.04580501839518547,0.024633513763546944
1696962669256842000,10.388842041015625,0.017975807189941406,0.04580501839518547,-0.035019535571336746
1696962669266855700,10.398855712890626,0.008388710208237171,0.05113118514418602,0.004394086077809334
1696962669276869400,10.408869384765625,0.007323476951569319,0.0106523297727108,0.008655018173158169
1696962669286883000,10.418883056640626,0.016910573467612267,0.007456631399691105,0.0001331541279796511
1696962669296896800,10.428896728515625,0.014780107885599136,0.03728315606713295,-0.024367205798625946
1696962669306910500,10.438910400390625,0.012649642303586006,-0.01171756349503994,-0.001997311832383275
1696962669316924200,10.448924072265624,0.009453942999243736,0.05006595328450203,-0.0009320789249613881
1696962669326937900,10.458937744140625,0.026497671380639076,-0.04473978653550148,-0.016910573467612267
1696962669336951600,10.46895166015625,0.011584409512579441,-0.0021304660476744175,0.009720250964164734
1696962669346965200,10.47896533203125,0.022236740216612816,-0.012782796286046505,-0.006258244160562754
1696962669356980000,10.48897998046875,0.015845341607928276,0.01917419396340847,-0.005193010903894901
1696962669366993200,10.4989931640625,0.017975807189941406,-0.0010652330238372087,0.010785484686493874
1696962669377006300,10.50900634765625,0.011584409512579441,0.04367455467581749,0.010785484686493874
1696962669387019500,10.51901953125,0.023301972076296806,-0.06604444980621338,0.016111649572849274
1696962669397033000,10.529032958984375,0.016910573467612267,0.05113118514418602,0.00226362026296556
1696962669407046100,10.539046142578124,0.006258244160562754,0.02769605815410614,0.015046416781842709
1696962669417059600,10.5490595703125,0.009453942999243736,0.03834838792681694,0.012915950268507004
1696962669427073000,10.559072998046876,0.012649642303586006,0.07350108027458191,-0.008388710208237171
1696962669437086700,10.569086669921875,0.014780107885599136,-0.03089175745844841,0.03209014609456062
1696962669447100200,10.57910009765625,0.009453942999243736,0.07137060910463333,0.007589785382151604
1696962669457114000,10.589114013671875,0.010519175790250301,0.01917419396340847,0.010785484686493874
1696962669467127800,10.5991279296875,0.012649642303586006,0.02876129187643528,0.025698747485876083
1696962669477141800,10.609141845703125,0.0009320789249613881,0.10865376889705658,0.012915950268507004
1696962669487155500,10.619155517578125,0.005193010903894901,0.04473978653550148,0.022503048181533813
1696962669497169400,10.62916943359375,0.019041040912270546,-0.04047885537147522,0.020372580736875534
1696962669507183600,10.63918359375,0.009453942999243736,0.0639139786362648,-0.0009320789249613881
1696962669517197600,10.649197509765624,0.004127778112888336,0.03621792420744896,0.012915950268507004
1696962669527211500,10.65921142578125,0.025432437658309937,-0.02450035884976387,-0.0009320789249613881
1696962669537225500,10.6692255859375,0.019041040912270546,0.0213046595454216,0.013981183059513569
1696962669547239700,10.67923974609375,0.020106272771954536,-0.06284874677658081,0.024633513763546944
1696962669557253600,10.689253662109374,0.021171506494283676,-0.01171756349503994,0.004394086077809334
1696962669567267300,10.699267333984375,0.014780107885599136,0.0053261648863554,0.005459319334477186
1696962669577281000,10.709281005859374,0.006258244160562754,0.04793548583984375,-0.010519175790250301
1696962669587294700,10.719294677734375,0.014780107885599136,0.0213046595454216,0.011850717477500439
1696962669597308400,10.729308349609376,0.005193010903894901,0.07243584841489792,-0.009453942999243736
1696962669607322000,10.739322021484375,0.012649642303586006,-0.02023942768573761,0.033155377954244614
1696962669617335800,10.749335693359376,0.012649642303586006,0.06071828305721283,-0.022236740216612816
1696962669627349500,10.759349609375,0.007323476951569319,0.05752258375287056,-0.0030625448562204838
1696962669637363200,10.76936328125,0.005193010903894901,0.0010652330238372087,0.006524552125483751
1696962669647377000,10.779376953125,0.009453942999243736,0.13528458774089813,-0.004127778112888336
1696962669657390600,10.789390625,0.010519175790250301,-0.04900071769952774,0.020372580736875534
1696962669667404300,10.799404296875,0.022236740216612816,-0.0426093190908432,0.006524552125483751
1696962669677418000,10.80941796875,0.006258244160562754,0.17256775498390198,-0.037150003015995026
1696962669687431700,10.819431640625,0.020106272771954536,-0.0958709716796875,0.023568280041217804
1696962669697445400,10.8294453125,0.012649642303586006,0.12995843589305878,-0.007323476951569319
1696962669707459000,10.839458984375,0.023301972076296806,-0.07776200771331787,0.023568280041217804
1696962669717472800,10.84947265625,0.020106272771954536,-0.01704372838139534,0.00226362026296556
1696962669727486500,10.859486572265626,0.005193010903894901,0.06710968166589737,-0.004127778112888336
1696962669737500200,10.869500244140625,0.015845341607928276,0.0159784946590662,0.006524552125483751
1696962669747513900,10.879513916015625,0.017975807189941406,0.0426093190908432,-0.007323476951569319
1696962669757527600,10.889527587890624,0.016910573467612267,-0.05006595328450203,0.018242115154862404
1696962669767541200,10.899541259765625,0.025432437658309937,-0.03089175745844841,0.025698747485876083
1696962669777555000,10.909554931640624,0.019041040912270546,-0.03089175745844841,-0.009453942999243736
1696962669787568600,10.919568603515625,0.008388710208237171,0.02769605815410614,-0.007323476951569319
1696962669797582300,10.929582275390626,0.019041040912270546,-0.01384802907705307,0.0011983871227130294
1696962669807596000,10.939595947265625,0.016910573467612267,0.06924014538526535,-0.017975807189941406
1696962669817609700,10.949609619140626,0.025432437658309937,-0.09374050796031952,0.013981183059513569
1696962669827623400,10.95962353515625,0.013714875094592571,0.0021304660476744175,0.005459319334477186
1696962669837637000,10.96963720703125,0.011584409512579441,0.05752258375287056,-0.038215234875679016
1696962669847650800,10.97965087890625,0.013714875094592571,0.05219641700387001,-0.0030625448562204838
1696962669857664500,10.98966455078125,0.027562905102968216,-0.03302222490310669,-0.010519175790250301
1696962669867678200,10.99967822265625,0.010519175790250301,0.03302222490310669,0.011850717477500439
1696962669877692000,11.00969189453125,0.024367205798625946,-0.02982652559876442,0.015046416781842709
1696962669887705600,11.01970556640625,0.026497671380639076,-0.04473978653550148,0.0001331541279796511
1696962669897719300,11.02971923828125,0.006258244160562754,0.0958709716796875,-0.012649642303586006
1696962669907733000,11.03973291015625,0.020106272771954536,-0.04047885537147522,0.011850717477500439
1696962669917746700,11.04974658203125,0.015845341607928276,0.07882724702358246,-0.0030625448562204838
1696962669927760400,11.059760498046876,0.024367205798625946,-0.0958709716796875,0.033155377954244614
1696962669937774000,11.069774169921875,0.017975807189941406,0.004260932095348835,0.004394086077809334
1696962669947787800,11.079787841796875,0.006258244160562754,0.09906667470932007,-0.014780107885599136
1696962669957801500,11.089801513671874,0.014780107885599136,0.02236989326775074,-0.001997311832383275
1696962669967815200,11.099815185546875,0.023301972076296806,-0.03302222490310669,0.0033288532868027687
1696962669977828900,11.109828857421874,0.014780107885599136,0.02556559257209301,-0.0009320789249613881
1696962669987842600,11.119842529296875,0.017975807189941406,-0.0639139786362648,0.03848154470324516
1696962669997856300,11.129856201171876,0.022236740216612816,-0.0053261648863554,-0.021171506494283676
1696962670007870000,11.139869873046875,0.015845341607928276,0.0532616525888443,-0.016910573467612267
1696962670017883600,11.149883544921876,0.024367205798625946,-0.07243584841489792,0.020372580736875534
1696962670027897300,11.1598974609375,0.023301972076296806,-0.02663082629442215,0.013981183059513569
1696962670037911000,11.1699111328125,0.023301972076296806,-0.0745663121342659,0.031024912372231483
1696962670047924700,11.1799248046875,0.022236740216612816,-0.02663082629442215,0.0011983871227130294
1696962670057938400,11.1899384765625,0.006258244160562754,0.06497921794652939,0.00226362026296556
1696962670067952000,11.1999521484375,0.020106272771954536,-0.0319569893181324,0.012915950268507004
1696962670077965800,11.2099658203125,0.009453942999243736,0.05965305119752884,-0.012649642303586006
1696962670087979500,11.2199794921875,0.016910573467612267,-0.06817491352558136,0.036351077258586884
1696962670097993200,11.2299931640625,0.010519175790250301,0.08947957307100296,-0.020106272771954536
1696962670108007000,11.2400068359375,0.007323476951569319,-0.004260932095348835,0.004394086077809334
1696962670118020600,11.2500205078125,0.013714875094592571,0.05752258375287056,-0.023301972076296806
1696962670128034300,11.260034423828126,0.016910573467612267,-0.0319569893181324,0.012915950268507004
1696962670138048000,11.270048095703125,0.017975807189941406,0.01171756349503994,-0.007323476951569319
1696962670148061700,11.280061767578125,0.013714875094592571,-0.06284874677658081,0.013981183059513569
1696962670158075400,11.290075439453124,0.008388710208237171,0.08095771074295044,-0.050998032093048096
1696962670168089000,11.300089111328125,0.020106272771954536,0.02343512699007988,-0.016910573467612267
1696962670178102800,11.310102783203124,0.028628136962652206,-0.0852186381816864,0.0011983871227130294
1696962670188116500,11.320116455078125,0.012649642303586006,0.03621792420744896,-0.013714875094592571
1696962670198130400,11.33013037109375,0.030758604407310486,-0.11611039936542511,0.0033288532868027687
1696962670208144100,11.34014404296875,0.024367205798625946,-0.0010652330238372087,-0.027562905102968216
1696962670218157800,11.35015771484375,0.011584409512579441,0.007456631399691105,-0.015845341607928276
1696962670228171500,11.360171630859375,0.021171506494283676,0.007456631399691105,-0.013714875094592571
1696962670238185200,11.370185302734376,0.020106272771954536,-0.01491326279938221,-0.004127778112888336
1696962670248199000,11.380198974609375,0.026497671380639076,-0.10226237028837204,-0.0030625448562204838
1696962670258212600,11.390212646484375,0.012649642303586006,0.05858781561255455,-0.023301972076296806
1696962670268226300,11.400226318359374,0.011584409512579441,0.03728315606713295,-0.028628136962652206
1696962670278240000,11.410239990234375,0.013714875094592571,0.0010652330238372087,-0.005193010903894901
1696962670288253700,11.420253662109374,0.012649642303586006,0.04047885537147522,-0.015845341607928276
1696962670298267400,11.430267333984375,0.007323476951569319,0.03515268862247467,0.005459319334477186
1696962670308281000,11.440281005859376,0.013714875094592571,0.0063913981430232525,-0.017975807189941406
1696962670318294800,11.450294677734375,0.010519175790250301,0.01810896210372448,0.0001331541279796511
1696962670328308500,11.46030859375,0.015845341607928276,0.06071828305721283,-0.023301972076296806
1696962670338322200,11.470322265625,0.019041040912270546,-0.02556559257209301,0.007589785382151604
1696962670348335900,11.4803359375,0.024367205798625946,-0.07882724702358246,0.026763979345560074
1696962670358349600,11.490349609375,0.013714875094592571,0.06604444980621338,0.010785484686493874
1696962670368363300,11.50036328125,0.014780107885599136,-0.05113118514418602,0.021437814459204674
1696962670378377000,11.510376953125,0.019041040912270546,-0.04900071769952774,-0.0009320789249613881
1696962670388390700,11.520390625,0.005193010903894901,0.10971900075674057,0.015046416781842709
1696962670398404400,11.530404296875,0.014780107885599136,-0.07776200771331787,0.033155377954244614
1696962670408418000,11.54041796875,0.017975807189941406,-0.02023942768573761,0.023568280041217804
1696962670418431700,11.550431640625,-0.0033288532868027687,0.08202294260263443,-0.004127778112888336
1696962670428445400,11.560445556640625,0.010519175790250301,-0.03302222490310669,0.026763979345560074
1696962670438459100,11.570459228515626,0.010519175790250301,0,0.017176883295178413
1696962670448472800,11.580472900390625,0.005193010903894901,-0.01491326279938221,0.027829213067889214
1696962670458486500,11.590486572265625,0.004127778112888336,0.01491326279938221,0.016111649572849274
1696962670468500200,11.600500244140624,0.006258244160562754,-0.0053261648863554,0.015046416781842709
1696962670478514000,11.610513916015625,0.006258244160562754,0.0053261648863554,0.017176883295178413
1696962670488527600,11.620527587890624,0.010519175790250301,-0.01384802907705307,0.017176883295178413
1696962670498541300,11.630541259765625,-0.0033288532868027687,0.04793548583984375,0.006524552125483751
1696962670508555000,11.640554931640626,0.009453942999243736,-0.11397993564605713,0.048068638890981674
1696962670518568700,11.650568603515625,0.005193010903894901,0.14487169682979584,-0.038215234875679016
1696962670528582400,11.66058251953125,-0.0001331541279796511,-0.06924014538526535,0.022503048181533813
1696962670538596000,11.67059619140625,0.014780107885599136,-0.02023942768573761,-0.0030625448562204838
1696962670548609800,11.68060986328125,0.010519175790250301,-0.0639139786362648,0.028894444927573204
1696962670558623500,11.69062353515625,0.008388710208237171,0.0010652330238372087,-0.001997311832383275
1696962670568637200,11.70063720703125,0.001997311832383275,-0.10119713842868805,0.03209014609456062
1696962670578651000,11.71065087890625,0.005193010903894901,0.0532616525888443,-0.020106272771954536
1696962670588664600,11.72066455078125,-0.005459319334477186,0,0.010785484686493874
1696962670598678300,11.73067822265625,0.010519175790250301,-0.04154408723115921,0.016111649572849274
1696962670608692000,11.74069189453125,-0.006524552125483751,0.0021304660476744175,0.019307348877191544
1696962670618705700,11.75070556640625,-0.0033288532868027687,0.05006595328450203,0.007589785382151604
1696962670628719400,11.76071923828125,-0.009720250964164734,0.02343512699007988,0.017176883295178413
1696962670638733000,11.770733154296876,0.004127778112888336,0.03302222490310669,-0.0009320789249613881
1696962670648746800,11.780746826171875,-0.00226362026296556,-0.04473978653550148,0.03528584539890289
1696962670658760400,11.790760498046875,0.001997311832383275,0.06178351491689682,0.006524552125483751
1696962670668774100,11.800774169921874,-0.0033288532868027687,-0.04900071769952774,0.023568280041217804
1696962670678787800,11.810787841796875,0.008388710208237171,0.0063913981430232525,0.010785484686493874
1696962670688801500,11.820801513671874,-0.00226362026296556,-0.03408745676279068,0.024633513763546944
1696962670698815200,11.830815185546875,0.0030625448562204838,0.02343512699007988,-0.011584409512579441
1696962670708829000,11.840828857421876,0.001997311832383275,-0.07563154399394989,0.021437814459204674
1696962670718842600,11.850842529296875,-0.007589785382151604,0.04154408723115921,-0.006258244160562754
1696962670728856300,11.860856201171876,0.001997311832383275,-0.01704372838139534,0.0001331541279796511
1696962670738870000,11.8708701171875,0.007323476951569319,-0.01384802907705307,-0.010519175790250301
1696962670748883700,11.8808837890625,0.004127778112888336,-0.09374050796031952,0.016111649572849274
1696962670758897400,11.8908974609375,-0.0011983871227130294,-0.0159784946590662,-0.004127778112888336
1696962670768911000,11.9009111328125,0.001997311832383275,0.00852186419069767,-0.022236740216612816
1696962670778924800,11.9109248046875,-0.004394086077809334,-0.02023942768573761,0.004394086077809334
1696962670788938500,11.9209384765625,-0.004394086077809334,0.0213046595454216,-0.004127778112888336
1696962670798952200,11.9309521484375,-0.00226362026296556,0.02556559257209301,-0.027562905102968216
1696962670808966000,11.9409658203125,0.004127778112888336,-0.07882724702358246,0.007589785382151604
1696962670818979600,11.9509794921875,-0.007589785382151604,0.03515268862247467,-0.014780107885599136
1696962670828993300,11.9609931640625,-0.008655018173158169,0.05113118514418602,-0.023301972076296806
1696962670839007000,11.971007080078126,0.008388710208237171,-0.0159784946590662,-0.009453942999243736
1696962670849020700,11.981020751953125,-0.005459319334477186,-0.02343512699007988,-0.005193010903894901
1696962670859034400,11.991034423828125,-0.0011983871227130294,-0.0213046595454216,-0.007323476951569319
1696962670869048000,12.001048095703124,0.001997311832383275,-0.012782796286046505,-0.030758604407310486
1696962670879061800,12.011061767578125,-0.006524552125483751,0.04367455467581749,-0.017975807189941406
1696962670889075500,12.021075439453124,0.006258244160562754,-0.03408745676279068,-0.021171506494283676
1696962670899089200,12.031089111328125,0.004127778112888336,-0.012782796286046505,-0.015845341607928276
1696962670909102800,12.041102783203126,-0.0001331541279796511,-0.07243584841489792,-0.014780107885599136
1696962670919116500,12.051116455078125,-0.007589785382151604,0.02236989326775074,-0.019041040912270546
1696962670929130200,12.061130126953126,-0.0033288532868027687,0.03089175745844841,-0.041410934180021286
