time,seconds_elapsed,z,y,x
1720785171462738200,0.12273828125,0,0,0
1720785171472738800,0.13273876953125,-0.0041866302490234375,-0.035073280334472656,-0.016152143478393555
1720785171482740200,0.142740234375,-0.27211666107177734,-0.17427444458007812,-0.21241497993469238
1720785171492743400,0.152743408203125,-0.8114471435546875,-0.23225760459899902,-0.7876524925231934
1720785171502748200,0.162748046875,-1.008535385131836,-0.521639347076416,-1.5770673751831055
1720785171512755200,0.172755126953125,-0.023181915283203125,-0.801511287689209,-2.7097065448760986
1720785171522764300,0.182764404296875,2.8957719802856445,-0.6010992527008057,-2.2946481704711914
1720785171532776200,0.192776123046875,1.1421394348144531,-1.1070318222045898,-0.9060896039009094
1720785171542790000,0.202789794921875,0.8829822540283203,-1.163225769996643,0.9237673282623291
1720785171552806100,0.21280615234375,-0.9803409576416016,-1.5430469512939453,2.744539260864258
1720785171562824700,0.22282470703125,-3.277510166168213,-1.955566644668579,2.9841156005859375
1720785171572844800,0.2328447265625,-3.7620978355407715,-1.6324597597122192,0.9703212976455688
1720785171582866700,0.24286669921875,-1.95607328414917,-0.2432398796081543,0.07131302356719971
1720785171592889300,0.252889404296875,-0.7967195510864258,1.0813641548156738,0.3633972406387329
1720785171602912800,0.262912841796875,-0.43370628356933594,1.9119961261749268,0.6732467412948608
1720785171612936700,0.272936767578125,3.7415504455566406,2.0513908863067627,0.6263370513916016
1720785171622957600,0.28295751953125,0.623321533203125,1.7230677604675293,0.7063106298446655
1720785171632971500,0.292971435546875,-2.0636730194091797,0.5913090705871582,0.04379051923751831
1720785171642985200,0.302985107421875,-0.7191667556762695,-0.2041642665863037,-0.7647292613983154
1720785171652999000,0.3129990234375,0.4841623306274414,-0.93001389503479,0.19097000360488892
1720785171663012600,0.3230126953125,2.324366569519043,-0.7462916374206543,1.0072314739227295
1720785171673026300,0.3330263671875,4.160094261169434,-0.08359074592590332,1.0707710981369019
1720785171683040000,0.3430400390625,3.98575496673584,0.8300654888153076,0.5586894750595093
1720785171693053700,0.3530537109375,1.9662666320800781,2.1853830814361572,-0.7568153142929077
1720785171703067400,0.3630673828125,-0.1875457763671875,2.9559128284454346,-2.277620315551758
1720785171713081000,0.3730810546875,-1.9344158172607422,2.7338058948516846,-2.5981838703155518
1720785171723094800,0.3830947265625,-2.868161678314209,1.9147961139678955,-1.6613012552261353
1720785171733108500,0.3931083984375,-2.3955469131469727,1.557678461074829,-1.6032546758651733
1720785171743122200,0.4031220703125,-0.7201805114746094,1.3595607280731201,-1.3723340034484863
1720785171753135900,0.413135986328125,0.4150581359863281,1.178246259689331,-0.8420997858047485
1720785171763149600,0.423149658203125,0.9811124801635742,1.2451989650726318,-1.3550620079040527
1720785171773163300,0.433163330078125,3.1435747146606445,1.3616290092468262,-2.035801887512207
1720785171783177000,0.443177001953125,2.3954200744628906,0.5575582981109619,-0.8218258619308472
1720785171793190700,0.453190673828125,2.1897106170654297,1.0418992042541504,0.47363734245300293
1720785171803204400,0.463204345703125,1.4049654006958008,1.625758409500122,1.296509027481079
1720785171813218000,0.473218017578125,-0.40860843658447266,1.1081936359405518,2.5897107124328613
1720785171823231700,0.483231689453125,-1.4448862075805664,0.25298166275024414,3.2695000171661377
1720785171833245400,0.493245361328125,-1.3162841796875,-0.2571392059326172,2.1122241020202637
1720785171843259100,0.503259033203125,-1.6749334335327148,-0.9470877647399902,0.7463282942771912
1720785171853272800,0.51327294921875,-2.1659178733825684,-1.7758101224899292,-0.3126702904701233
1720785171863286500,0.52328662109375,-2.729278087615967,-2.5294923782348633,-1.699787974357605
1720785171873300200,0.53330029296875,-2.9486374855041504,-2.584427833557129,-2.895644187927246
1720785171883314000,0.54331396484375,-2.7181758880615234,-2.38131046295166,-3.0474166870117188
1720785171893327600,0.55332763671875,-1.633406639099121,-1.7475969791412354,-2.6563358306884766
1720785171903341300,0.56334130859375,-0.5167417526245117,-0.5861985683441162,-2.118736505508423
1720785171913355000,0.57335498046875,-0.18030643463134766,0.37361764907836914,-0.8007985949516296
1720785171923368700,0.58336865234375,0.9071054458618164,1.1604788303375244,0.4868330955505371
1720785171933382400,0.59338232421875,8.993561744689941,2.3072986602783203,1.6210167407989502
1720785171943396000,0.60339599609375,-2.033757209777832,-0.3867805004119873,5.1110615730285645
1720785171953410000,0.61341015625,-5.537820339202881,0.39682674407958984,3.2839484214782715
1720785171963423700,0.623423828125,-3.4315671920776367,1.092123031616211,0.9068607091903687
1720785171973437400,0.6334375,-1.4757742881774902,-0.2951624393463135,0.5028197169303894
1720785171983451100,0.643451171875,-1.1155080795288086,-0.7568979263305664,0.23140764236450195
1720785171993465000,0.653465087890625,-3.353884220123291,-2.259861946105957,-0.5153492093086243
1720785172003478800,0.663478759765625,-3.0782127380371094,-1.6611473560333252,-0.931073784828186
1720785172013492500,0.673492431640625,-2.268527030944824,-0.7017931938171387,-1.441267728805542
1720785172023506200,0.683506103515625,1.0143651962280273,-1.6608374118804932,-0.776970386505127
1720785172033519900,0.693519775390625,2.3647470474243164,-2.133744955062866,-0.054280757904052734
1720785172043533800,0.703533935546875,1.4942693710327148,-0.6495084762573242,0.041390419006347656
1720785172053547500,0.713547607421875,-0.6278839111328125,1.3108932971954346,0.18670117855072021
1720785172063561200,0.723561279296875,-2.3067502975463867,1.6302273273468018,0.4475809335708618
1720785172073575000,0.733574951171875,-2.580181121826172,0.9365463256835938,0.608117938041687
1720785172083588600,0.743588623046875,-1.8770103454589844,0.5958425998687744,0.7218197584152222
1720785172093602600,0.7536025390625,-1.0224223136901855,0.9868600368499756,0.3736276626586914
1720785172103616300,0.7636162109375,0.047661781311035156,1.7728054523468018,-2.028712749481201
1720785172113630000,0.7736298828125,0.7153911590576172,1.7665908336639404,-1.7187073230743408
1720785172123643600,0.7836435546875,0.4402904510498047,1.1234030723571777,-0.6891964673995972
1720785172133657300,0.7936572265625,0.19106578826904297,-0.1483304500579834,0.2575874328613281
1720785172143671300,0.80367138671875,0.3148307800292969,-1.8303364515304565,0.7200090885162354
1720785172153685000,0.81368505859375,0.6132307052612305,-2.334568738937378,0.1459900140762329
1720785172163698700,0.82369873046875,0.9356584548950195,-2.212712287902832,-0.6890028715133667
1720785172173712400,0.83371240234375,1.038771629333496,-0.7471282482147217,-0.7034690380096436
1720785172183726300,0.843726318359375,0.41606712341308594,1.4228312969207764,-0.24916279315948486
1720785172193740000,0.853739990234375,-0.28626441955566406,2.5637476444244385,1.0470213890075684
1720785172203753700,0.863753662109375,-0.8880720138549805,1.3304600715637207,1.6168954372406006
1720785172213767400,0.873767333984375,-0.5675067901611328,0.13899874687194824,1.0947082042694092
1720785172223781000,0.883781005859375,0.11894798278808594,-0.5811944007873535,0.7679227590560913
1720785172233795000,0.893795166015625,0.4991607666015625,-0.9653763771057129,0.18260562419891357
1720785172243808800,0.903808837890625,0.4886922836303711,-0.7960619926452637,-0.03313100337982178
1720785172253822500,0.913822509765625,-0.19309329986572266,-0.6109035015106201,0.3495512008666992
1720785172263836400,0.92383642578125,-0.48777008056640625,-0.3859443664550781,0.5574139356613159
1720785172273850000,0.93385009765625,-0.2122182846069336,0.3574643135070801,0.23288583755493164
1720785172283864000,0.943864013671875,-0.10632705688476562,0.4426572322845459,-0.4352964758872986
1720785172293877800,0.953877685546875,0.05428886413574219,-0.2664492130279541,-0.9207558631896973
1720785172303891500,0.963891357421875,0.32785511016845703,-0.42084789276123047,-0.7724161744117737
1720785172313905400,0.973905517578125,0.2510261535644531,-0.36408519744873047,-0.7581237554550171
1720785172323919000,0.983919189453125,-0.17331695556640625,-0.587864875793457,-0.9087728261947632
1720785172333933000,0.99393310546875,0.12628841400146484,-0.6715903282165527,-1.1793500185012817
1720785172343946800,1.00394677734375,0.7723236083984375,-0.7438919544219971,-0.9826520085334778
1720785172353960700,1.013960693359375,0.5540866851806641,-0.30812859535217285,-0.18027865886688232
1720785172363974400,1.023974365234375,0.1957387924194336,-0.0813140869140625,0.10286605358123779
1720785172373988000,1.033988037109375,0.19513797760009766,0.17375540733337402,-0.09286999702453613
1720785172384002000,1.044001953125,0.6054716110229492,0.37531065940856934,-0.0025175809860229492
1720785172394015700,1.054015625,1.140913963317871,0.11947822570800781,-0.23996639251708984
1720785172404029700,1.06402978515625,1.3341283798217773,-0.13947391510009766,-0.7535696029663086
1720785172414043400,1.07404345703125,1.5205268859863281,-0.4987068176269531,-0.9926201105117798
1720785172424057000,1.08405712890625,1.1158447265625,-0.9777649641036987,-0.7824564576148987
1720785172434071000,1.094071044921875,1.1753931045532227,-1.543432354927063,-0.6897833347320557
1720785172444084700,1.104084716796875,0.5112113952636719,-2.27286434173584,-1.188230276107788
1720785172454098700,1.1140986328125,-1.0049924850463867,-1.900153398513794,-0.6240994334220886
1720785172464112400,1.1241123046875,-1.6490607261657715,0.7629153728485107,-0.5136051774024963
1720785172474126300,1.134126220703125,-0.7708826065063477,2.6064717769622803,-0.45410674810409546
1720785172484140000,1.14414013671875,-0.04025459289550781,2.6074564456939697,1.3242175579071045
1720785172494153700,1.15415380859375,-1.495460033416748,1.1040642261505127,2.3395438194274902
1720785172504167700,1.164167724609375,-4.946930885314941,-1.0356537103652954,2.9414777755737305
1720785172514181400,1.174181396484375,-7.054336071014404,-0.6604824066162109,0.2666769027709961
1720785172524195300,1.1841953125,-6.908942222595215,-0.07792139053344727,-1.5354399681091309
1720785172534209000,1.194208984375,-6.6965203285217285,-0.2612028121948242,-1.1138428449630737
1720785172544222700,1.20422265625,-6.2584075927734375,-0.4732232093811035,0.22897684574127197
1720785172554236700,1.214236572265625,-5.069267272949219,-0.30341029167175293,1.773820400238037
1720785172564250400,1.22425048828125,-5.019191265106201,-0.8595784902572632,2.202765941619873
1720785172574264000,1.23426416015625,-2.3409767150878906,-2.7798871994018555,-0.27744436264038086
1720785172584277800,1.24427783203125,1.5650825500488281,-5.686126232147217,-1.4374028444290161
1720785172594291500,1.25429150390625,9.07049560546875,-3.73974871635437,-0.6668592691421509
1720785172604305400,1.264305419921875,14.457759857177734,-0.34343528747558594,-0.8661180734634399
1720785172614319000,1.274319091796875,10.126304626464844,1.0951859951019287,-0.26921629905700684
1720785172624332800,1.284332763671875,3.4426956176757812,0.9929051399230957,0.6967325210571289
1720785172634346500,1.294346435546875,-0.9303035736083984,0.16986942291259766,1.0709760189056396
1720785172644360400,1.3043603515625,-5.6306304931640625,-0.878650426864624,1.5410453081130981
1720785172654374100,1.3143740234375,-10.934967994689941,0.5955179333686829,1.8180022239685059
1720785172664387800,1.324387939453125,-10.733060836791992,-0.1310804784297943,2.399766683578491
1720785172674401500,1.334401611328125,-2.438528537750244,-0.9935506582260132,-0.5743385553359985
1720785172684415200,1.344415283203125,0.9722261428833008,-2.7314064502716064,-2.4912102222442627
1720785172694429200,1.35442919921875,2.723233222961426,-5.746888637542725,-4.583661079406738
1720785172704443000,1.36444287109375,1.8507843017578125,-5.493905067443848,-3.3789875507354736
1720785172714456600,1.37445654296875,1.581984519958496,-4.681607246398926,0.4787505865097046
1720785172724470300,1.38447021484375,-1.4532279968261719,-2.455493927001953,4.731907367706299
1720785172734484000,1.39448388671875,-7.277193069458008,-0.5885574817657471,0.749431848526001
1720785172744498000,1.404497802734375,-3.5235514640808105,1.1100260019302368,-3.3251330852508545
1720785172754511600,1.41451171875,-0.7776117324829102,2.693721294403076,-2.085815668106079
1720785172764525300,1.424525390625,-2.0131330490112305,2.0631895065307617,-0.0567244291305542
1720785172774539000,1.4345390625,-2.3774971961975098,0.6516915559768677,2.01224684715271
1720785172784552700,1.444552734375,-2.2900757789611816,-0.37876465916633606,3.622117519378662
1720785172794566700,1.454566650390625,-3.1436853408813477,-1.2297366857528687,3.519529342651367
1720785172804580400,1.464580322265625,-2.924729824066162,-2.641482353210449,1.7917311191558838
1720785172814594000,1.474593994140625,-0.09934520721435547,-2.2213799953460693,0.930689811706543
1720785172824607700,1.484607666015625,6.613465309143066,1.2526870965957642,1.451141119003296
1720785172834621700,1.49462158203125,13.940899848937988,4.948700904846191,1.701682209968567
1720785172844635400,1.504635498046875,15.692300796508789,5.35953426361084,0.8302396535873413
1720785172854649000,1.514649169921875,12.200881004333496,3.9821527004241943,-0.2517353892326355
1720785172864662800,1.524662841796875,9.138737678527832,1.9691873788833618,0.6324619054794312
1720785172874676500,1.534676513671875,8.843084335327148,-0.2600278854370117,3.5437216758728027
1720785172884690400,1.5446904296875,3.2205286026000977,1.374976634979248,2.880723476409912
1720785172894704000,1.5547041015625,-1.0138959884643555,3.121659994125366,2.772770404815674
1720785172904717800,1.5647177734375,-1.927530288696289,2.70600962638855,4.050439357757568
1720785172914731500,1.5747314453125,-2.892566680908203,2.1525564193725586,3.8738059997558594
1720785172924745200,1.5847451171875,-2.8358960151672363,2.997738838195801,2.6713361740112305
1720785172934759200,1.59475927734375,-2.0612902641296387,2.2801547050476074,0.2721548080444336
1720785172944772900,1.60477294921875,-1.946143627166748,-0.6949479579925537,-1.2132365703582764
1720785172954786600,1.61478662109375,-1.7337522506713867,-3.056089162826538,-2.04512882232666
1720785172964800300,1.62480029296875,-2.4364261627197266,-4.411372661590576,-3.456285238265991
1720785172974814200,1.634814208984375,-2.9696807861328125,-4.726123809814453,-4.080068111419678
1720785172984828000,1.644827880859375,-4.065675258636475,-4.060145378112793,-3.6064019203186035
1720785172994841600,1.654841552734375,-5.228689193725586,-1.9227359294891357,-3.0869407653808594
1720785173004855300,1.664855224609375,-5.309713363647461,-0.7489767074584961,-2.179051637649536
1720785173014869000,1.674868896484375,-3.7100143432617188,-1.5426862239837646,-0.5921506285667419
1720785173024883000,1.684883056640625,-0.30553722381591797,-0.910020112991333,0.09318727254867554
1720785173034896600,1.694896728515625,22.183917999267578,3.4468743801116943,2.9333558082580566
1720785173044910300,1.704910400390625,23.29499626159668,4.003846168518066,5.0081305503845215
1720785173054924000,1.714924072265625,3.476250648498535,0.21444249153137207,2.856518507003784
1720785173064937700,1.724937744140625,1.0366487503051758,-0.43639588356018066,3.1029675006866455
1720785173074951700,1.73495166015625,-0.12343406677246094,-0.4107935428619385,3.7855191230773926
1720785173084965400,1.74496533203125,-2.449798583984375,-2.6642234325408936,2.5024971961975098
1720785173094979000,1.75497900390625,-3.241879463195801,-4.531771659851074,1.6784684658050537
1720785173104992800,1.76499267578125,-1.1351938247680664,-2.6487860679626465,-1.8745800256729126
1720785173115006500,1.77500634765625,0.9975500106811523,-2.0625200271606445,-2.7788658142089844
1720785173125020400,1.7850205078125,2.1277666091918945,-0.0004723072052001953,-0.6566956639289856
1720785173135034000,1.7950341796875,0.9320592880249023,1.9270663261413574,0.19582974910736084
1720785173145047800,1.8050478515625,0.24769020080566406,2.334486961364746,0.0976409912109375
1720785173155061500,1.8150615234375,-0.08532333374023438,1.885679006576538,-0.5631102323532104
1720785173165075500,1.825075439453125,0.0448760986328125,1.416980504989624,-1.4283210039138794
1720785173175089200,1.835089111328125,0.5581474304199219,0.6497604846954346,-1.427706241607666
1720785173185102800,1.845102783203125,0.9720687866210938,-1.0654711723327637,-0.23142242431640625
1720785173195116800,1.85511669921875,0.6014699935913086,-2.4163098335266113,1.0047338008880615
1720785173205130500,1.865130615234375,0.12218856811523438,-1.7205862998962402,1.7377194166183472
1720785173215144400,1.87514453125,-0.3255643844604492,-0.9373025894165039,1.2022417783737183
1720785173225158100,1.885158203125,1.1686344146728516,-1.0921564102172852,0.7041735649108887
1720785173235171800,1.895171875,2.187687873840332,-0.19412851333618164,0.4925506114959717
1720785173245185800,1.905185791015625,2.1827383041381836,1.2078821659088135,0.4210226535797119
1720785173255199500,1.915199462890625,2.43662166595459,1.233479380607605,0.46027278900146484
1720785173265213400,1.92521337890625,2.9649267196655273,-0.1837751865386963,-0.009963035583496094
1720785173275227100,1.93522705078125,3.0839614868164062,-1.1056673526763916,-0.7858607769012451
1720785173285240800,1.94524072265625,3.7128162384033203,-1.0450334548950195,-0.5913748741149902
1720785173295254800,1.9552548828125,2.97414493560791,-0.3863253593444824,0.20355820655822754
1720785173305268500,1.9652685546875,1.2568368911743164,-0.5912115573883057,0.6986937522888184
1720785173315282400,1.975282470703125,0.8730001449584961,-2.3370916843414307,0.8691349029541016
1720785173325296000,1.985296142578125,-5.106082439422607,-3.0574004650115967,-0.15153884887695312
1720785173335310000,1.99531005859375,-2.4458179473876953,-1.5168927907943726,1.1269097328186035
1720785173345323800,2.00532373046875,-7.070560455322266,-1.8664884567260742,-0.9824349880218506
1720785173355337500,2.01533740234375,-5.738712310791016,-2.168485164642334,-0.2508223056793213
1720785173365351400,2.025351318359375,-1.1557245254516602,-2.6834065914154053,-1.0154445171356201
1720785173375365000,2.035365234375,1.631422996520996,-1.9130432605743408,-2.2456352710723877
1720785173385379000,2.045379150390625,1.1634531021118164,-0.7870304584503174,-0.316312313079834
1720785173395392800,2.055392822265625,1.404470443725586,0.0652308464050293,2.6883702278137207
1720785173405406500,2.065406494140625,-0.6313109397888184,-1.033747673034668,4.759066104888916
1720785173415420400,2.07542041015625,2.731936454772949,-3.215373992919922,0.5003385543823242
1720785173425434000,2.08543408203125,2.442880630493164,-4.395415306091309,0.21968698501586914
1720785173435448000,2.095447998046875,-2.5147604942321777,-1.189591884613037,-2.703324794769287
1720785173445461800,2.105461669921875,-5.306591510772705,-2.5159664154052734,-2.3944554328918457
1720785173455475700,2.115475830078125,-5.3086748123168945,-3.277280807495117,-1.4008088111877441
1720785173465489400,2.125489501953125,-3.887683629989624,-0.8037576675415039,0.8050332069396973
1720785173475503000,2.135503173828125,-3.9695239067077637,-1.1164593696594238,4.920093059539795
1720785173485517000,2.14551708984375,-2.0663247108459473,-1.4461312294006348,5.947340965270996
1720785173495530800,2.15553076171875,-1.2988262176513672,-0.9067039489746094,6.714938640594482
1720785173505544700,2.165544677734375,-5.610745429992676,2.9498157501220703,7.50605583190918
1720785173515558400,2.175558349609375,-6.901356220245361,6.241673469543457,7.446855068206787
1720785173525572000,2.185572021484375,-4.170106887817383,4.18691349029541,5.419717788696289
1720785173535586000,2.1955859375,-1.420032024383545,2.0538463592529297,2.247141122817993
1720785173545599700,2.205599853515625,-0.30229711532592773,3.091646194458008,-0.44222068786621094
1720785173555613700,2.21561376953125,0.6355748176574707,3.751525402069092,-1.111734390258789
1720785173565627400,2.22562744140625,1.5482358932495117,2.724503993988037,-0.7612042427062988
1720785173575641000,2.23564111328125,1.2246737480163574,1.8299450874328613,0.3671140670776367
1720785173585655000,2.245655029296875,1.6370515823364258,1.7167325019836426,-0.12252950668334961
1720785173595668700,2.255668701171875,10.939891815185547,0.9323630332946777,-5.6259050369262695
1720785173605682700,2.2656826171875,27.789718627929688,0.38568735122680664,-12.965938568115234
1720785173615696400,2.2756962890625,0.37457704544067383,1.7525262832641602,-4.531588077545166
1720785173625710300,2.28571044921875,-5.118722438812256,2.6472840309143066,-0.3746180534362793
1720785173635724000,2.29572412109375,-1.552201747894287,-0.2840390205383301,-2.0318551063537598
1720785173645737700,2.30573779296875,-0.15627765655517578,-1.9616384506225586,-3.582402229309082
1720785173655751700,2.315751708984375,0.7315058708190918,-1.9145169258117676,-3.519948959350586
1720785173665765400,2.325765380859375,1.6984615325927734,-0.5141081809997559,-3.780271530151367
1720785173675779300,2.335779296875,2.0273871421813965,0.661888599395752,-2.8937501907348633
1720785173685793000,2.34579296875,1.1582579612731934,0.6389532089233398,-3.0634307861328125
1720785173695806700,2.355806640625,0.3005061149597168,0.6274142265319824,-3.553330898284912
1720785173705820700,2.365820556640625,-1.241133689880371,0.24263763427734375,-1.9823532104492188
1720785173715834400,2.37583447265625,-0.941154956817627,1.3359084129333496,-0.755612850189209
1720785173725848300,2.385848388671875,-0.4921555519104004,2.9879302978515625,0.7683229446411133
1720785173735862000,2.395862060546875,0.645719051361084,5.396853446960449,0.7481174468994141
1720785173745876000,2.4058759765625,-0.6368474960327148,3.879769802093506,1.6111836433410645
1720785173755889700,2.4158896484375,-0.5097799301147461,1.253610610961914,1.6855201721191406
1720785173765903400,2.4259033203125,1.1384377479553223,-0.7735834121704102,0.9866094589233398
1720785173775917000,2.4359169921875,0.42858028411865234,-1.6001830101013184,0.2562408447265625
1720785173785930800,2.4459306640625,0.4075503349304199,-2.221303939819336,-0.36942052841186523
1720785173795944700,2.45594482421875,-2.0526862144470215,0.45395755767822266,-2.342151165008545
1720785173805958400,2.46595849609375,-1.0767064094543457,0.8578290939331055,-5.736801624298096
1720785173815972000,2.47597216796875,-1.5602335929870605,1.0534944534301758,-7.70615291595459
1720785173825985800,2.48598583984375,2.020476818084717,0.4866981506347656,-3.221822738647461
1720785173835999500,2.49599951171875,3.2271246910095215,-3.8030290603637695,-1.223691463470459
1720785173846013400,2.506013427734375,-0.541276216506958,-1.154740333557129,-0.3925952911376953
1720785173856027100,2.516027099609375,0.05965089797973633,2.682560920715332,-0.40373802185058594
1720785173866040800,2.526040771484375,4.8595051765441895,1.3669114112854004,6.921896934509277
1720785173876054500,2.536054443359375,-2.5400705337524414,-0.6965603828430176,-3.401108741760254
1720785173886068200,2.546068115234375,-2.837747573852539,4.491887092590332,-4.651545524597168
1720785173896082200,2.556082275390625,-0.5591237545013428,1.4026260375976562,-5.159824371337891
1720785173906095900,2.566095947265625,-1.8453254699707031,-1.2190847396850586,-4.687328338623047
1720785173916109600,2.576109619140625,-0.5471429824829102,0.8941469192504883,0.033179283142089844
1720785173926123300,2.586123291015625,0.5464401245117188,2.2190933227539062,2.3904788494110107
1720785173936137200,2.59613720703125,-0.9778232574462891,1.4565401077270508,4.770139694213867
1720785173946151000,2.60615087890625,-2.154660940170288,1.5461254119873047,7.972151756286621
1720785173956164600,2.61616455078125,0.017703533172607422,1.1963152885437012,6.751825332641602
1720785173966178300,2.62617822265625,2.681490421295166,0.0593266487121582,2.1545536518096924
1720785173976192000,2.63619189453125,2.9873523712158203,-0.03684854507446289,1.1874570846557617
1720785173986206000,2.6462060546875,0.8717656135559082,0.3627457618713379,1.4519565105438232
1720785173996219600,2.6562197265625,-0.29393625259399414,-0.2179551124572754,0.51080322265625
1720785174006233300,2.6662333984375,-0.4066166877746582,-1.5934700965881348,-0.2916879653930664
1720785174016248300,2.676248291015625,-1.4856300354003906,-2.67616605758667,-0.17791509628295898
1720785174026262000,2.686261962890625,-1.0904803276062012,-3.2224841117858887,-0.3257761001586914
1720785174036275700,2.696275634765625,-0.6618061065673828,-1.161731243133545,0.500582218170166
1720785174046289400,2.706289306640625,-0.15859603881835938,1.4525041580200195,0.8831286430358887
1720785174056303000,2.71630322265625,1.2061595916748047,3.0878448486328125,1.2514874935150146
1720785174066316800,2.72631689453125,1.4918193817138672,3.0183420181274414,1.535703420639038
1720785174076330500,2.73633056640625,2.003526210784912,3.11665678024292,1.8137714862823486
1720785174086344200,2.74634423828125,1.0517563819885254,3.7577970027923584,1.4377021789550781
1720785174096358000,2.75635791015625,-1.1360468864440918,2.2544121742248535,0.10880374908447266
1720785174106371600,2.76637158203125,0.48505449295043945,1.3227028846740723,0.9115376472473145
1720785174116385300,2.77638525390625,-0.9734363555908203,0.7338604927062988,2.3334755897521973
1720785174126399000,2.78639892578125,-1.981400489807129,-0.7274384498596191,0.9179708957672119
1720785174136412700,2.79641259765625,0.5444226264953613,-3.343721389770508,0.4843297004699707
1720785174146426400,2.80642626953125,3.636457920074463,-2.7565865516662598,0.35260963439941406
1720785174156440000,2.816440185546875,3.7827038764953613,-0.8157925605773926,1.8847460746765137
1720785174166453800,2.826453857421875,2.3498311042785645,-0.05548906326293945,2.333120107650757
1720785174176467500,2.836467529296875,1.0217013359069824,1.2529749870300293,4.0011420249938965
1720785174186481400,2.8464814453125,-1.009878158569336,-1.354252815246582,-0.04713916778564453
1720785174196495000,2.8564951171875,-1.1275758743286133,-4.380295753479004,-5.575226306915283
1720785174206508800,2.8665087890625,-1.0013632774353027,-1.9031248092651367,-3.8939757347106934
1720785174216522800,2.876522705078125,-1.6653261184692383,-1.9973530769348145,-2.3087940216064453
1720785174226536400,2.886536376953125,-0.707730770111084,-2.3120899200439453,-0.4119906425476074
1720785174236550400,2.89655029296875,0.25045013427734375,-3.4289350509643555,-2.324789524078369
1720785174246564000,2.906564208984375,-0.42137956619262695,-1.9547243118286133,-1.8239974975585938
1720785174256578000,2.916578125,0.35457658767700195,-0.5119023323059082,-1.4177799224853516
1720785174266592500,2.926592529296875,1.4054417610168457,0.6066431999206543,-1.3538861274719238
1720785174276606700,2.936606689453125,1.5604238510131836,1.775773525238037,-0.8067545890808105
1720785174286622000,2.9466220703125,1.197038173675537,1.6410284042358398,-0.21189260482788086
1720785174296634400,2.95663427734375,1.1940717697143555,0.701171875,-0.9311738014221191
1720785174306646800,2.966646728515625,1.9223670959472656,0.5460100173950195,-1.0232295989990234
1720785174316659200,2.9766591796875,2.0275774002075195,0.2075815200805664,0.2630124092102051
1720785174326671600,2.986671630859375,1.5724782943725586,0.8312816619873047,0.8235616683959961
1720785174336684500,2.9966845703125,-0.4632377624511719,0.7401680946350098,-0.8979983329772949
1720785174346697500,3.006697509765625,-1.6430487632751465,-1.1145005226135254,0.646697998046875
1720785174356710700,3.016710693359375,-3.865360736846924,-1.84535551071167,0.8366079330444336
1720785174366724000,3.02672412109375,-3.84842848777771,-1.2114181518554688,1.8134562969207764
1720785174376738000,3.036738037109375,-2.7140579223632812,-0.769892692565918,2.194261312484741
1720785174386752000,3.046751953125,-1.0443530082702637,-1.979200839996338,2.666229248046875
1720785174396766200,3.05676611328125,-0.21390676498413086,-4.319479465484619,2.5696451663970947
1720785174406780700,3.06678076171875,-0.9184479713439941,-4.023735523223877,0.6104650497436523
1720785174416795100,3.076795166015625,-1.2239055633544922,-3.3005075454711914,0.6285545825958252
1720785174426809900,3.086809814453125,-0.8361177444458008,-2.278985023498535,0.3962993621826172
1720785174436824800,3.096824951171875,0.7793087959289551,-0.9380931854248047,0.8121507167816162
1720785174446839600,3.106839599609375,1.3953242301940918,0.6092524528503418,1.93784761428833
1720785174456854500,3.1168544921875,0.2039780616760254,1.0735177993774414,2.3065381050109863
1720785174466869000,3.126868896484375,-1.0611753463745117,1.0736207962036133,2.2778615951538086
1720785174476882700,3.136882568359375,-2.0615668296813965,-0.11901187896728516,-0.5064959526062012
1720785174486896400,3.146896484375,-0.47511863708496094,-0.724794864654541,-3.7185611724853516
1720785174496910300,3.156910400390625,1.045720100402832,0.6136994361877441,-1.0509052276611328
1720785174506924000,3.166924072265625,1.7703299522399902,1.7923665046691895,2.4406352043151855
1720785174516938000,3.17693798828125,0.775843620300293,1.5784707069396973,3.217721462249756
1720785174526951700,3.18695166015625,-0.1836857795715332,1.2787046432495117,4.192398548126221
1720785174536965400,3.19696533203125,0.1334848403930664,1.4638605117797852,3.024775505065918
1720785174546979300,3.206979248046875,1.4966998100280762,2.8724241256713867,1.159877061843872
1720785174556993000,3.216992919921875,2.699329376220703,3.1761889457702637,-0.5892808437347412
1720785174567006700,3.2270068359375,1.4722294807434082,1.6841347217559814,-2.478308916091919
1720785174577020700,3.237020751953125,-0.13762140274047852,0.5108942985534668,-6.97004508972168
1720785174587034400,3.247034423828125,0.33124685287475586,1.177149772644043,-9.42402458190918
1720785174597048000,3.257048095703125,2.079078197479248,3.0644969940185547,-7.330390930175781
1720785174607061800,3.267061767578125,1.1420669555664062,5.220224857330322,-1.8482334613800049
1720785174617075700,3.27707568359375,-0.2573723793029785,5.981557369232178,0.03540372848510742
1720785174627089400,3.28708935546875,0.059633731842041016,3.3183982372283936,-0.752366304397583
1720785174637103000,3.29710302734375,4.351457595825195,0.07352733612060547,-0.37596726417541504
1720785174647116800,3.30711669921875,4.243485450744629,-2.570828914642334,-0.6065244674682617
1720785174657130500,3.317130615234375,1.1235990524291992,-1.4041595458984375,-0.3979952335357666
1720785174667144400,3.32714453125,-0.6408882141113281,-0.5977640151977539,1.8806469440460205
1720785174677158100,3.337158203125,-6.984287261962891,-1.0560812950134277,3.3784124851226807
1720785174687171800,3.347171875,-6.561402797698975,0.08789205551147461,0.7357364892959595
1720785174697185500,3.357185546875,-2.4442086219787598,1.036905288696289,-1.0316946506500244
1720785174707199200,3.36719921875,2.4987449645996094,-0.09614944458007812,-1.957979440689087
1720785174717213200,3.377213134765625,3.3870010375976562,-0.7794523239135742,-2.524188995361328
1720785174727227000,3.387226806640625,4.498480796813965,-2.6465983390808105,-1.8382384777069092
1720785174737240600,3.397240478515625,5.028326034545898,-3.2449240684509277,-1.9147741794586182
1720785174747254300,3.407254150390625,3.178818702697754,-3.519969940185547,-1.2077057361602783
1720785174757268000,3.41726806640625,-0.5511255264282227,-4.5942487716674805,0.021327733993530273
1720785174767282000,3.427281982421875,-3.5102810859680176,-4.955385208129883,-0.03830146789550781
1720785174777295600,3.437295654296875,-3.620774269104004,-3.0365748405456543,0.32907915115356445
1720785174787309300,3.447309326171875,-3.266463279724121,-0.3701181411743164,1.7131356000900269
1720785174797323000,3.457322998046875,-0.9368429183959961,-0.3547086715698242,1.543007254600525
1720785174807337000,3.4673369140625,-2.2141571044921875,-1.522913932800293,4.070194244384766
1720785174817350700,3.4773505859375,-2.263955593109131,-2.5229403972625732,5.455785274505615
1720785174827364400,3.4873642578125,-2.911022663116455,-1.0518980026245117,2.9043259620666504
1720785174837378300,3.49737841796875,-1.0697007179260254,-0.7176847457885742,0.33513355255126953
1720785174847392000,3.50739208984375,-3.0256056785583496,-0.47754573822021484,-0.022293567657470703
1720785174857406000,3.517406005859375,-10.027113914489746,0.3556833267211914,4.181417465209961
1720785174867419600,3.527419677734375,0.7759079933166504,-1.8537859916687012,1.5348725318908691
1720785174877433300,3.537433349609375,10.553302764892578,-0.928260326385498,1.422144889831543
1720785174887447300,3.547447265625,7.766757488250732,-0.802739143371582,-1.4803571701049805
1720785174897461000,3.5574609375,3.3202133178710938,-1.0474886894226074,-3.181356906890869
1720785174907475000,3.567474853515625,1.2856926918029785,-0.5828366279602051,-3.4159164428710938
1720785174917488600,3.577488525390625,0.31526899337768555,-1.2731704711914062,-1.0406646728515625
1720785174927502600,3.587502685546875,-1.1843247413635254,-1.0755505561828613,0.5383725166320801
1720785174937516300,3.597516357421875,-1.6184539794921875,0.39678239822387695,0.9584865570068359
1720785174947530000,3.607530029296875,0.8650741577148438,1.7041172981262207,0.7108478546142578
1720785174957544000,3.6175439453125,1.8211851119995117,2.5051932334899902,1.0157880783081055
1720785174967557600,3.6275576171875,1.0345139503479004,1.9502334594726562,0.8647451400756836
1720785174977571600,3.637571533203125,0.8225507736206055,1.1957507133483887,0.31789207458496094
1720785174987585300,3.647585205078125,0.7256684303283691,0.6089000701904297,0.07140445709228516
1720785174997599000,3.657598876953125,-0.08173656463623047,0.015248298645019531,-0.6533217430114746
1720785175007613000,3.667613037109375,-1.577108383178711,-0.22162294387817383,-1.4610037803649902
1720785175017626600,3.677626708984375,-1.5036754608154297,0.6749505996704102,-1.0286355018615723
1720785175027640600,3.687640625,0.46561527252197266,1.8976786136627197,-0.9536266326904297
1720785175037654300,3.697654296875,1.3635106086730957,2.7361583709716797,-1.6514077186584473
1720785175047668200,3.707668212890625,0.6524233818054199,2.6008362770080566,-1.575188159942627
1720785175057682200,3.71768212890625,0.5443782806396484,1.8716025352478027,0.30258655548095703
1720785175067695900,3.72769580078125,0.1784954071044922,2.189375400543213,1.7070975303649902
1720785175077709800,3.737709716796875,-1.1530542373657227,3.052243709564209,2.1602916717529297
1720785175087723500,3.7477236328125,-2.3606977462768555,2.0286149978637695,2.1623525619506836
1720785175097737500,3.757737548828125,-2.7402091026306152,-0.06848549842834473,1.6657238006591797
1720785175107751400,3.76775146484375,-1.3794589042663574,-1.4520134925842285,1.4025630950927734
1720785175117765000,3.77776513671875,-1.388791561126709,-0.6703057289123535,0.8616328239440918
1720785175127779000,3.787779052734375,-3.2043910026550293,0.5086815357208252,-0.6413497924804688
1720785175137792800,3.797792724609375,-4.560259819030762,0.8414254188537598,-2.4850845336914062
1720785175147806700,3.807806640625,-3.331181287765503,1.0936639308929443,-2.5348496437072754
1720785175157820700,3.817820556640625,0.8161449432373047,0.8925867080688477,-0.8609423637390137
1720785175167834400,3.82783447265625,6.410906791687012,-1.044041633605957,0.43587636947631836
1720785175177848300,3.837848388671875,4.971437931060791,-1.8739776611328125,0.8098807334899902
1720785175187862300,3.8478623046875,-0.1572885513305664,0.8758201599121094,1.002148151397705
1720785175197876000,3.8578759765625,-3.4719982147216797,-0.5733904838562012,2.7828822135925293
1720785175207890000,3.867889892578125,-3.1087942123413086,0.7539548873901367,2.8076295852661133
1720785175217903600,3.877903564453125,-0.6713881492614746,3.571300983428955,2.3121156692504883
1720785175227917600,3.88791748046875,1.834754467010498,3.8586254119873047,0.9890007972717285
1720785175237931500,3.897931640625,2.6961121559143066,0.7937533855438232,-1.4938416481018066
1720785175247945200,3.9079453125,1.3454384803771973,0.7508630752563477,-2.858025074005127
1720785175257959200,3.917959228515625,0.5807723999023438,0.35802578926086426,-2.9917755126953125
1720785175267972900,3.927972900390625,-1.3697242736816406,-0.4537653923034668,-0.9579033851623535
1720785175277986800,3.93798681640625,-0.3445167541503906,-3.2083511352539062,0.8564577102661133
1720785175288000800,3.948000732421875,-2.764108657836914,0.5041317939758301,1.6506588459014893
1720785175298014500,3.958014404296875,-0.6558294296264648,0.15214800834655762,3.1732804775238037
1720785175308028400,3.9680283203125,-0.5450692176818848,1.732189655303955,3.2512855529785156
1720785175318042000,3.9780419921875,0.2165374755859375,1.3974196910858154,3.00291109085083
1720785175328056000,3.98805615234375,0.38519763946533203,1.6026792526245117,2.7617287635803223
1720785175338069800,3.99806982421875,0.5893487930297852,0.7058544158935547,2.2239396572113037
1720785175348083500,4.00808349609375,0.30240488052368164,1.0886154174804688,2.035748243331909
1720785175358097400,4.018097412109375,0.7531919479370117,0.35964012145996094,1.5899403095245361
1720785175368111000,4.028111083984375,0.4613947868347168,0.7408919334411621,1.573317289352417
1720785175378125000,4.038125,-0.5478377342224121,2.0545270442962646,1.2849414348602295
1720785175388138800,4.048138671875,-0.9249463081359863,0.7121028900146484,1.708272933959961
1720785175398152400,4.05815234375,0.2710409164428711,-2.8733086585998535,2.5974230766296387
1720785175408166400,4.06816650390625,0.43614673614501953,-3.7431812286376953,2.2004945278167725
1720785175418180000,4.07818017578125,0.8404459953308105,-2.5475711822509766,-0.2914133071899414
1720785175428194000,4.088194091796875,2.542476177215576,-3.383573055267334,-3.324310302734375
1720785175438207700,4.098207763671875,0.8841581344604492,-6.4509053230285645,-6.466989994049072
1720785175448221700,4.1082216796875,-2.822225332260132,-7.530069828033447,-7.790433883666992
1720785175458235400,4.1182353515625,-1.7899985313415527,-8.442962646484375,-6.809228420257568
1720785175468249000,4.1282490234375,0.9276413917541504,-7.475127220153809,-1.6104240417480469
1720785175478263000,4.138262939453125,2.6112794876098633,-4.438898086547852,3.506502389907837
1720785175488276700,4.14827685546875,2.393174171447754,-2.9681477546691895,1.1246271133422852
1720785175498290700,4.158290771484375,0.09578180313110352,-3.84246826171875,-2.8228821754455566
1720785175508304400,4.168304443359375,-1.9036126136779785,-3.8622970581054688,-3.351839065551758
1720785175518318000,4.178318115234375,-1.1008634567260742,-2.1056957244873047,-1.9572405815124512
1720785175528332000,4.18833203125,0.5393071174621582,-0.04646921157836914,-0.2226123809814453
1720785175538345700,4.198345703125,0.8617691993713379,0.7539258003234863,1.1856679916381836
1720785175548359700,4.208359619140625,0.38831472396850586,1.192624568939209,2.354979991912842
1720785175558373400,4.218373291015625,-1.4291281700134277,4.181787490844727,1.0998296737670898
1720785175568387300,4.22838720703125,-0.7044920921325684,7.884407043457031,-2.28485107421875
1720785175578401000,4.238401123046875,-0.1450037956237793,4.602593898773193,-4.613870620727539
1720785175588414700,4.248414794921875,-0.46076250076293945,2.1546261310577393,-2.7112183570861816
1720785175598428700,4.2584287109375,-0.7802715301513672,0.671025276184082,-0.9737567901611328
1720785175608442400,4.2684423828125,-1.0876317024230957,-0.46823787689208984,0.2705526351928711
1720785175618456300,4.278456298828125,-0.6322035789489746,-1.067612648010254,1.0424904823303223
1720785175628470000,4.288469970703125,0.04212141036987305,-1.3962326049804688,1.6490373611450195
1720785175638483700,4.298483642578125,0.2445392608642578,-0.9504818916320801,2.1009933948516846
1720785175648497700,4.30849755859375,0.2523345947265625,-0.5797677040100098,2.0544395446777344
1720785175658511400,4.318511474609375,0.18519163131713867,-0.38016796112060547,1.7450542449951172
1720785175668525300,4.328525390625,0.03598976135253906,-0.1860184669494629,1.3022851943969727
1720785175678539000,4.3385390625,-0.07438230514526367,0.09588289260864258,1.0019454956054688
1720785175688552700,4.348552734375,-0.019420146942138672,-0.34414052963256836,0.8385143280029297
1720785175698566700,4.358566650390625,-0.5766501426696777,-1.1244463920593262,0.9140152931213379
1720785175708580400,4.368580322265625,-0.44536876678466797,0.24399518966674805,1.6398587226867676
1720785175718594300,4.37859423828125,0.10590171813964844,0.11147451400756836,0.903876781463623
1720785175728608000,4.38860791015625,0.07038164138793945,0.5670394897460938,-0.8948354721069336
1720785175738622000,4.3986220703125,0.44756317138671875,-1.695112705230713,0.4781007766723633
1720785175748635600,4.4086357421875,0.410614013671875,-2.2859444618225098,1.4988994598388672
1720785175758649300,4.4186494140625,0.4892148971557617,-0.4873623847961426,1.9798364639282227
1720785175768663300,4.428663330078125,-0.505943775177002,1.454737663269043,-1.6913447380065918
1720785175778677000,4.438677001953125,-0.8441357612609863,0.23644590377807617,-3.4543075561523438
1720785175788691000,4.44869091796875,-0.06940793991088867,0.6400585174560547,-1.6895971298217773
1720785175798704600,4.45870458984375,0.6766552925109863,0.47504234313964844,0.6305460929870605
1720785175808718300,4.46871826171875,-0.013864517211914062,0.9226298332214355,0.3036980628967285
1720785175818732300,4.478732177734375,0.28223514556884766,0.8467106819152832,0.1976332664489746
1720785175828746000,4.48874609375,0.2052469253540039,0.49161577224731445,-0.37799930572509766
1720785175838760000,4.498760009765625,-0.47501039505004883,0.6729803085327148,-0.26450681686401367
1720785175848773600,4.508773681640625,-1.3705987930297852,4.013238906860352,1.9310283660888672
1720785175858787600,4.51878759765625,-0.9463462829589844,4.896207809448242,2.966893196105957
1720785175868801300,4.52880126953125,-0.3162827491760254,4.072843551635742,2.710458993911743
1720785175878815000,4.53881494140625,-0.2563490867614746,2.779862403869629,1.4708771705627441
1720785175888829000,4.548828857421875,0.3683285713195801,1.377868413925171,-0.4033327102661133
1720785175898842600,4.558842529296875,0.5974040031433105,-0.9130373001098633,-3.1229286193847656
1720785175908856600,4.568856689453125,0.6768307685852051,-4.06470251083374,-5.714889049530029
1720785175918870300,4.578870361328125,1.2672362327575684,-4.4896159172058105,-5.148139476776123
1720785175928884000,4.588884033203125,1.394472599029541,-2.7860565185546875,-2.740474224090576
1720785175938898000,4.59889794921875,0.8057260513305664,-3.599513053894043,-1.566145896911621
1720785175948911600,4.60891162109375,0.5110745429992676,-4.109564304351807,-1.3862299919128418
1720785175958925600,4.618925537109375,0.003226757049560547,-2.550537109375,-1.6563210487365723
1720785175968939300,4.628939208984375,0.7553730010986328,-1.3708248138427734,-2.33249568939209
1720785175978953200,4.638953125,1.6334190368652344,-0.6336278915405273,-2.7002320289611816
1720785175988967000,4.648966796875,1.0969867706298828,-0.4194068908691406,-1.09800386428833
1720785175998980600,4.658980712890625,-1.0846996307373047,0.4749584197998047,1.8686535358428955
1720785176008994600,4.66899462890625,-2.6897642612457275,1.7915208339691162,5.07846736907959
1720785176019008300,4.67900830078125,-3.225337028503418,1.6795592308044434,6.069579601287842
1720785176029022200,4.689022216796875,-3.025466203689575,0.446291446685791,4.199466705322266
1720785176039036000,4.699035888671875,-1.5174760818481445,-1.0155696868896484,1.5946424007415771
1720785176049049600,4.709049560546875,0.506566047668457,-1.8057713508605957,0.713961124420166
1720785176059063600,4.7190634765625,0.7503571510314941,-1.4824872016906738,-0.4376387596130371
1720785176069077200,4.7290771484375,1.0276179313659668,0.8739590644836426,-0.9894452095031738
1720785176079091200,4.73909130859375,1.6618452072143555,1.5038256645202637,-1.1334199905395508
1720785176089105000,4.74910498046875,1.1856350898742676,2.9180679321289062,-0.33905792236328125
1720785176099118600,4.75911865234375,2.3237862586975098,2.799708843231201,-0.8844130039215088
1720785176109132500,4.769132568359375,2.449687957763672,1.7360303401947021,-3.0831565856933594
1720785176119146200,4.779146240234375,1.664693832397461,0.9776411056518555,-5.808511734008789
1720785176129160200,4.78916015625,2.6010961532592773,1.0246343612670898,-6.184620380401611
1720785176139174000,4.799173828125,3.779977798461914,-1.4266228675842285,-1.4171910285949707
1720785176149187800,4.809187744140625,-0.5750980377197266,-0.9231457710266113,2.78487491607666
1720785176159201500,4.819201416015625,-6.78115701675415,0.6415398120880127,6.6153764724731445
1720785176169215200,4.82921533203125,-7.032454013824463,1.848341941833496,6.592089653015137
1720785176179229200,4.839229248046875,-4.635611057281494,1.4914517402648926,4.4397077560424805
1720785176189243000,4.849242919921875,-3.0576109886169434,2.2902512550354004,2.9751877784729004
1720785176199256800,4.8592568359375,-1.7887487411499023,1.7768876552581787,3.077097177505493
1720785176209270500,4.8692705078125,-1.6685972213745117,0.6306779384613037,2.040379285812378
1720785176219284200,4.8792841796875,-1.9135193824768066,-1.1086232662200928,0.8319123983383179
1720785176229298200,4.889298095703125,-0.0626363754272461,-1.5350079536437988,-1.651755928993225
1720785176239312000,4.899311767578125,1.980630874633789,-0.9929180145263672,-3.398858070373535
1720785176249325800,4.909325927734375,2.0653934478759766,-1.6663432121276855,-3.184352397918701
1720785176259339500,4.919339599609375,1.5511503219604492,-3.282902240753174,-4.0434746742248535
1720785176269353500,4.929353515625,2.1177663803100586,-4.723043918609619,-2.9652161598205566
1720785176279367200,4.9393671875,2.7190399169921875,-3.04414701461792,-0.08825278282165527
1720785176289380900,4.949380859375,2.913241386413574,-2.453159809112549,0.7142648696899414
1720785176299394800,4.959394775390625,2.662487030029297,-3.027507781982422,-0.3481760025024414
1720785176309408500,4.969408447265625,2.46036434173584,-3.6037635803222656,-2.6961395740509033
1720785176319422500,4.97942236328125,1.6506338119506836,-1.7663168907165527,-3.5453383922576904
1720785176329436200,4.989436279296875,-0.28731822967529297,-1.563112735748291,-1.8730497360229492
1720785176339449900,4.999449951171875,-1.561284065246582,-1.3486394882202148,1.2663192749023438
1720785176349463800,5.0094638671875,-2.207066535949707,1.1730141639709473,4.467888832092285
1720785176359477500,5.0194775390625,-2.381409168243408,3.0105578899383545,6.120031356811523
1720785176369491500,5.029491455078125,-1.721212387084961,4.015327453613281,5.496362686157227
1720785176379505200,5.039505126953125,-0.6792316436767578,3.6959452629089355,1.9582030773162842
1720785176389519000,5.04951904296875,0.5594053268432617,2.679703712463379,-0.8276002407073975
1720785176399532800,5.05953271484375,1.5787124633789062,2.101428985595703,-0.7684049606323242
1720785176409546500,5.06954638671875,1.2469816207885742,1.6175577640533447,0.3479921817779541
1720785176419560400,5.079560546875,0.37496471405029297,2.3146626949310303,0.6574101448059082
1720785176429574100,5.08957421875,0.0057468414306640625,3.6245923042297363,1.1544315814971924
1720785176439588000,5.099588134765625,-0.635624885559082,3.9918224811553955,1.644394874572754
1720785176449601800,5.109601806640625,-1.9394421577453613,3.371049404144287,0.15231537818908691
1720785176459615700,5.11961572265625,-2.801156997680664,0.12686729431152344,-0.9397647380828857
1720785176469629400,5.12962939453125,-3.780634880065918,-1.3110361099243164,-2.700772285461426
1720785176479643400,5.139643310546875,-3.722601890563965,-1.3895223140716553,-2.5976786613464355
1720785176489657000,5.149656982421875,-1.541903018951416,-1.3221678733825684,-1.6136760711669922
1720785176499671000,5.159671142578125,1.8293371200561523,-1.834996223449707,-1.1160268783569336
1720785176509685000,5.16968505859375,3.36452579498291,-3.652580738067627,-1.300175666809082
1720785176519698700,5.17969873046875,3.2529964447021484,-5.651218891143799,-2.9942750930786133
1720785176529712600,5.189712646484375,2.071878433227539,-3.245382308959961,-3.244490146636963
1720785176539726600,5.1997265625,0.6667613983154297,-0.8129024505615234,-2.345001459121704
1720785176549740300,5.209740234375,0.2277545928955078,1.016545295715332,0.5696663856506348
1720785176559754200,5.219754150390625,-0.6565847396850586,2.1533427238464355,3.6876635551452637
1720785176569768000,5.229767822265625,-1.7999024391174316,2.815484046936035,4.39187479019165
1720785176579782000,5.239781982421875,-1.9835820198059082,2.1671769618988037,4.488174915313721
1720785176589795800,5.2497958984375,-1.68693208694458,0.6870601177215576,3.6177146434783936
1720785176599809500,5.2598095703125,-0.8421730995178223,-0.4059295654296875,2.0205531120300293
1720785176609823500,5.269823486328125,0.25006818771362305,-2.0763092041015625,0.2512204647064209
1720785176619837200,5.279837158203125,1.1901788711547852,-3.4188427925109863,-1.1336028575897217
1720785176629851100,5.28985107421875,1.713881492614746,-3.4189796447753906,-1.1721446514129639
1720785176639865000,5.299864990234375,1.9638166427612305,-2.013263702392578,-0.6991746425628662
1720785176649878800,5.309878662109375,1.5582284927368164,-1.8894634246826172,-1.2896530628204346
1720785176659892700,5.319892822265625,1.2063202857971191,-1.3004183769226074,-2.8436484336853027
1720785176669906700,5.32990673828125,0.7577958106994629,0.15754270553588867,-2.7015321254730225
1720785176679920400,5.33992041015625,-0.2594590187072754,0.14886236190795898,-0.5873837471008301
1720785176689934300,5.349934326171875,-0.6528630256652832,-0.047054290771484375,0.6133852005004883
1720785176699948000,5.359947998046875,-0.9193425178527832,2.155717372894287,2.0195345878601074
1720785176709962000,5.3699619140625,-1.5564069747924805,-0.35283851623535156,0.6458353996276855
1720785176719976000,5.379975830078125,-1.4526677131652832,0.028562545776367188,-0.09839820861816406
1720785176729989600,5.38998974609375,-0.8584327697753906,0.284710168838501,-0.7680635452270508
1720785176740003600,5.400003662109375,-0.3170599937438965,0.38912081718444824,-1.2937912940979004
1720785176750017300,5.410017333984375,0.4437117576599121,0.30930304527282715,-1.6233830451965332
1720785176760031200,5.42003125,1.2791996002197266,0.11341190338134766,-1.5574593544006348
1720785176770045000,5.430044921875,1.720879077911377,0.31560611724853516,-1.8302206993103027
1720785176780059000,5.440058837890625,2.1500682830810547,-0.19402074813842773,-2.264207363128662
1720785176790072600,5.450072509765625,2.322566032409668,-0.7780246734619141,-1.976766586303711
1720785176800086300,5.460086181640625,2.6832499504089355,-0.8953890800476074,-1.6532621383666992
1720785176810100200,5.470100341796875,3.215127944946289,-1.311758041381836,-1.4785079956054688
1720785176820114000,5.480114013671875,3.10546875,-1.720322608947754,-0.6799869537353516
1720785176830127900,5.4901279296875,1.4098091125488281,-1.7328100204467773,0.48416709899902344
1720785176840141600,5.5001416015625,-1.5950946807861328,-1.2498812675476074,1.1969969272613525
1720785176850155300,5.5101552734375,-4.003996849060059,-0.6429259777069092,1.1822316646575928
1720785176860169200,5.520169189453125,-3.757913112640381,-0.15946698188781738,0.6716439723968506
1720785176870183000,5.530182861328125,-1.4066944122314453,0.28809022903442383,0.09725642204284668
1720785176880196900,5.54019677734375,0.723210334777832,-0.3928184509277344,-0.7885704040527344
1720785176890210600,5.55021044921875,1.225693702697754,-0.8002676963806152,-0.678215503692627
1720785176900224500,5.560224609375,0.9104080200195312,0.1178748607635498,-0.6126809120178223
1720785176910238200,5.57023828125,-0.24539995193481445,0.8580729961395264,-0.48996543884277344
1720785176920252000,5.580251953125,0.3057832717895508,0.7143099308013916,-0.6924314498901367
1720785176930265900,5.590265869140625,1.7716150283813477,0.5437061786651611,-1.1325836181640625
1720785176940279600,5.600279541015625,2.683694839477539,-0.24141669273376465,-1.1949820518493652
1720785176950293500,5.61029345703125,2.209109306335449,-0.47877931594848633,-0.6713070869445801
1720785176960307200,5.62030712890625,1.2570981979370117,-0.8825523853302002,-0.3416585922241211
1720785176970321000,5.63032080078125,-0.16910982131958008,-1.4733600616455078,-0.45500946044921875
1720785176980334800,5.6403349609375,-0.8467726707458496,-1.3512887954711914,0.16373491287231445
1720785176990348500,5.6503486328125,-1.2121062278747559,-1.5028102397918701,-0.5322566032409668
1720785177000362200,5.6603623046875,-0.564115047454834,-0.9343357086181641,0.0767068862915039
1720785177010376000,5.6703759765625,-0.4069356918334961,-0.900191068649292,0.6223397254943848
1720785177020390000,5.680389892578125,-0.35468387603759766,-0.3965604305267334,1.1012287139892578
1720785177030403600,5.690403564453125,-0.5239691734313965,-0.10263776779174805,0.900331974029541
1720785177040417300,5.700417236328125,-0.22834491729736328,-0.11966705322265625,0.15085554122924805
1720785177050431000,5.710430908203125,0.7831792831420898,-0.591698408126831,-0.6028532981872559
1720785177060445000,5.72044482421875,0.7665548324584961,-1.880347728729248,-1.5208683013916016
1720785177070458600,5.730458740234375,0.08200359344482422,-2.3564817905426025,-1.0797162055969238
1720785177080472300,5.740472412109375,-0.9140410423278809,-1.5278493165969849,1.0643551349639893
1720785177090486000,5.750486083984375,-1.3409099578857422,-0.7633200883865356,1.4152681827545166
1720785177100499700,5.760499755859375,-0.7759866714477539,0.6209628582000732,1.19596266746521
1720785177110513700,5.770513671875,-0.21428775787353516,0.7575623989105225,1.2169015407562256
1720785177120527400,5.78052734375,0.1594219207763672,0.6751511096954346,1.8931927680969238
1720785177130541000,5.790541015625,-0.08798980712890625,0.7886539697647095,2.5146121978759766
1720785177140554800,5.8005546875,-0.44252777099609375,0.7741430997848511,2.508899211883545
1720785177150568400,5.810568359375,-1.0569300651550293,0.2098712921142578,2.0988399982452393
1720785177160582400,5.82058251953125,-1.3568434715270996,0.07389938831329346,1.9117286205291748
1720785177170596000,5.83059619140625,-1.0870165824890137,0.4155147075653076,1.6295294761657715
1720785177180609800,5.84060986328125,-0.9674906730651855,0.6779340505599976,0.8814945220947266
1720785177190623500,5.85062353515625,-1.2417998313903809,1.4728748798370361,0.8671166896820068
1720785177200637200,5.86063720703125,-1.522843360900879,1.4169566631317139,0.8484034538269043
1720785177210651100,5.870651123046875,-2.145815849304199,1.382029414176941,0.517162561416626
1720785177220664800,5.880664794921875,-2.1202306747436523,0.9939002990722656,0.4548358917236328
1720785177230678500,5.890678466796875,-1.4409165382385254,0.6546036601066589,-0.09458398818969727
1720785177240692200,5.900692138671875,-1.0030465126037598,0.47044432163238525,-0.6004090309143066
1720785177250706200,5.9107060546875,-1.059666633605957,0.5754360556602478,-1.1248650550842285
1720785177260719900,5.920719970703125,-0.9110813140869141,1.0546691417694092,-0.9346938133239746
1720785177270733600,5.930733642578125,-0.9136724472045898,1.0954411029815674,-0.6907811164855957
1720785177280747300,5.940747314453125,-1.2623891830444336,0.9083633422851562,-0.5679194927215576
1720785177290761000,5.950760986328125,-1.4910073280334473,1.0669503211975098,-0.25835275650024414
1720785177300775000,5.96077490234375,-1.706796646118164,1.0394606590270996,0.22338604927062988
1720785177310788600,5.97078857421875,-2.1210861206054688,0.7626329660415649,0.40064048767089844
1720785177320802300,5.98080224609375,-2.370232582092285,0.7216701507568359,0.8126749992370605
1720785177330816300,5.990816162109375,-1.995781421661377,0.4288180470466614,1.950954556465149
1720785177340830000,6.000829833984375,-0.8723793029785156,0.10140109062194824,2.1380257606506348
1720785177350844000,6.010843994140625,0.072052001953125,0.6027814745903015,1.669166922569275
1720785177360857600,6.020857666015625,0.4795856475830078,0.9527480006217957,1.492689847946167
1720785177370871300,6.030871337890625,0.37522411346435547,0.8919222354888916,0.8029909133911133
1720785177380885200,6.04088525390625,0.09503459930419922,0.6934597492218018,-0.3392486572265625
1720785177390899000,6.05089892578125,-0.2626686096191406,0.16140127182006836,-1.2228553295135498
1720785177400913000,6.060912841796875,-0.2645864486694336,0.11301004886627197,-1.6259608268737793
1720785177410926600,6.070926513671875,-0.1623544692993164,0.1155092716217041,-0.8655984401702881
1720785177420940500,6.0809404296875,-0.2304668426513672,0.11456215381622314,-0.16310954093933105
1720785177430954200,6.090954345703125,-0.023619651794433594,0.3379545211791992,0.3639507293701172
1720785177440968000,6.100968017578125,0.04275321960449219,0.48910796642303467,0.9710612297058105
1720785177450982000,6.11098193359375,0.17438697814941406,0.8090322017669678,1.359257459640503
1720785177460995600,6.12099560546875,0.6984100341796875,0.24394726753234863,2.058868408203125
1720785177471009500,6.131009521484375,0.8450241088867188,-1.8101420402526855,1.779593586921692
1720785177481023200,6.141023193359375,1.242680549621582,-2.8501343727111816,0.1234900951385498
1720785177491037000,6.151036865234375,0.9429922103881836,-1.6096420288085938,-0.7033052444458008
1720785177501051000,6.16105078125,0.6194772720336914,-0.1380683183670044,-0.6099205017089844
1720785177511064600,6.171064697265625,0.4499235153198242,-0.31280362606048584,0.4685227870941162
1720785177521078500,6.18107861328125,-0.19703006744384766,0.5449676513671875,0.5703809261322021
1720785177531092200,6.19109228515625,-1.842909812927246,0.6734969615936279,1.6494332551956177
1720785177541106200,6.201106201171875,-1.400108814239502,0.19319403171539307,2.092532157897949
1720785177551120000,6.211119873046875,1.185786247253418,-0.6052734851837158,1.8143541812896729
1720785177561133600,6.221133544921875,3.1878461837768555,-2.147547483444214,0.579775333404541
1720785177571147500,6.2311474609375,3.087832450866699,-1.9668749570846558,-0.9845056533813477
1720785177581161200,6.2411611328125,2.449404716491699,-0.6540738344192505,-1.9729623794555664
1720785177591175200,6.251175048828125,0.9981937408447266,-0.8568203449249268,-2.9060707092285156
1720785177601188900,6.26118896484375,-0.7184004783630371,-0.9905364513397217,-3.2798285484313965
1720785177611202600,6.27120263671875,-1.939995288848877,-0.7147356271743774,-2.5856528282165527
1720785177621216500,6.281216552734375,-2.368962287902832,-0.42902910709381104,-1.7317066192626953
1720785177631230200,6.291230224609375,-2.1176791191101074,-0.28819704055786133,-0.5319638252258301
1720785177641244200,6.301244140625,-1.4580116271972656,-0.4700429439544678,0.9629960060119629
1720785177651257900,6.3112578125,0.1401376724243164,-1.0026257038116455,1.318084478378296
1720785177661271800,6.321271728515625,2.236090660095215,-1.6865860223770142,0.006591320037841797
1720785177671285500,6.331285400390625,2.778940200805664,-2.609588861465454,-1.4458532333374023
1720785177681299200,6.34129931640625,2.574810028076172,-2.8572850227355957,-1.838158130645752
1720785177691313200,6.351313232421875,1.7508869171142578,-2.808497667312622,-1.8216142654418945
1720785177701326800,6.361326904296875,0.7797031402587891,-2.324846029281616,-1.6502985954284668
1720785177711340800,6.3713408203125,0.009558677673339844,-1.3761467933654785,-1.2701821327209473
1720785177721354500,6.3813544921875,-0.38096141815185547,-0.3862786293029785,-0.6997075080871582
1720785177731368200,6.3913681640625,-0.711479663848877,0.521418571472168,0.0576939582824707
1720785177741382100,6.401382080078125,-0.9033012390136719,1.4402945041656494,0.9919078350067139
1720785177751395800,6.411395751953125,-0.9148974418640137,2.645449638366699,1.737154483795166
1720785177761409800,6.421409912109375,-0.5680489540100098,3.4746968746185303,1.9443933963775635
1720785177771423500,6.431423583984375,-0.564875602722168,3.5671229362487793,2.0961809158325195
1720785177781437200,6.441437255859375,1.4427766799926758,-1.9509367942810059,0.8766393661499023
1720785177791451100,6.451451171875,0.4223747253417969,-0.7554292678833008,2.388146162033081
1720785177801464800,6.46146484375,-0.41061925888061523,1.6640973091125488,1.862917184829712
1720785177811478800,6.471478759765625,-0.3485264778137207,2.3460559844970703,0.8252463340759277
1720785177821492500,6.481492431640625,-0.30847740173339844,1.3607802391052246,-0.19980478286743164
1720785177831506400,6.49150634765625,-0.2753324508666992,-0.15915536880493164,-0.7055826187133789
1720785177841520000,6.50152001953125,-0.25655031204223633,-0.7691349983215332,-0.8285503387451172
1720785177851533800,6.511533935546875,-0.21345949172973633,-0.5911760330200195,-0.5455803871154785
1720785177861547800,6.5215478515625,-0.06733226776123047,-0.1000676155090332,0.030601978302001953
1720785177871561500,6.5315615234375,0.2795982360839844,0.24736833572387695,0.3133888244628906
1720785177881575400,6.541575439453125,0.5639972686767578,0.16958975791931152,0.11533546447753906
1720785177891589000,6.551589111328125,-0.7725181579589844,-0.30373191833496094,0.1185760498046875
1720785177901602800,6.561602783203125,-1.8103489875793457,0.7452024221420288,1.5163626670837402
1720785177911616800,6.57161669921875,1.7762479782104492,0.09377169609069824,0.11287403106689453
1720785177921630500,6.58163037109375,-0.8716578483581543,0.46552276611328125,-0.37356042861938477
1720785177931644400,6.59164453125,-1.088644027709961,-0.10444331169128418,0.1767749786376953
1720785177941658000,6.601658203125,-1.066279411315918,-0.14182281494140625,0.1793522834777832
1720785177951672000,6.611672119140625,-0.27168846130371094,-0.6244227886199951,-0.009799957275390625
1720785177961685800,6.621685791015625,-0.04476451873779297,-0.7069685459136963,0.0016026496887207031
1720785177971699500,6.631699462890625,0.4205322265625,-0.010489463806152344,0.09289121627807617
1720785177981713400,6.64171337890625,1.245265007019043,0.3776649236679077,-0.3918271064758301
1720785177991727000,6.65172705078125,1.9001188278198242,-0.06544923782348633,-1.3296177387237549
1720785178001741000,6.661740966796875,1.8682966232299805,-0.8815891742706299,-2.1836416721343994
1720785178011754800,6.671754638671875,1.3485498428344727,-1.8032894134521484,-2.5119810104370117
1720785178021768400,6.6817685546875,0.9211711883544922,-2.292146682739258,-2.789475202560425
1720785178031782100,6.6917822265625,-0.42559051513671875,-1.708183765411377,-1.9245185852050781
1720785178041796000,6.701796142578125,-0.8700981140136719,-0.5482697486877441,-0.9793000221252441
1720785178051809800,6.711809814453125,-1.1985960006713867,0.9024828672409058,0.664940357208252
1720785178061823500,6.721823486328125,-1.1184053421020508,2.0294456481933594,2.5008978843688965
1720785178071837200,6.731837158203125,-1.0705008506774902,2.617096424102783,2.9034838676452637
1720785178081851000,6.741850830078125,-0.6882858276367188,1.8932833671569824,1.9862782955169678
1720785178091864800,6.75186474609375,-0.7086191177368164,0.6494574546813965,0.638857364654541
1720785178101878500,6.76187841796875,-0.2375926971435547,-0.27185726165771484,0.20594501495361328
1720785178111892200,6.771892333984375,0.3725109100341797,-0.2839062213897705,0.1139378547668457
1720785178121906000,6.781906005859375,0.48247241973876953,-0.7813334465026855,-0.05419111251831055
1720785178131920000,6.791919921875,0.30313587188720703,-0.5506746768951416,0.13296842575073242
1720785178141933600,6.80193359375,-0.06645011901855469,-0.2579362392425537,0.5310828685760498
1720785178151947300,6.811947265625,-0.4561128616333008,-0.09334301948547363,0.7364013195037842
1720785178161961000,6.8219609375,-0.5878067016601562,-0.16990065574645996,0.38645267486572266
1720785178171974700,6.831974609375,-0.49292659759521484,-0.5760589838027954,-0.3176712989807129
1720785178181988600,6.841988525390625,-0.3362445831298828,-0.8748537302017212,-1.0857253074645996
1720785178192002300,6.852002197265625,-0.20404338836669922,-0.06072568893432617,-1.0120820999145508
1720785178202016000,6.86201611328125,-0.19266319274902344,1.1318835020065308,-0.6205224990844727
1720785178212029700,6.87202978515625,0.3651294708251953,0.3752167224884033,-0.27254629135131836
1720785178222043400,6.88204345703125,0.6527824401855469,-0.053234100341796875,0.6025632619857788
1720785178232057300,6.892057373046875,0.7247228622436523,0.7700742483139038,1.3097045421600342
1720785178242071000,6.902071044921875,0.3429079055786133,0.32827985286712646,2.4055700302124023
1720785178252084700,6.912084716796875,0.12853240966796875,-0.9191011190414429,1.796478033065796
1720785178262098400,6.922098388671875,-0.02252197265625,-0.9767987728118896,0.37667131423950195
1720785178272112400,6.9321123046875,0.15854835510253906,-0.28850042819976807,-0.5668928623199463
1720785178282126000,6.9421259765625,0.15299224853515625,-0.9033926725387573,-1.1914006471633911
1720785178292139800,6.952139892578125,0.05132293701171875,-0.7518439292907715,-0.08539295196533203
1720785178302153500,6.962153564453125,-0.12745952606201172,-0.12464284896850586,0.0433117151260376
1720785178312167200,6.972167236328125,0.0760030746459961,-0.1507169008255005,-1.1737415790557861
1720785178322181000,6.98218115234375,0.3795795440673828,0.14739394187927246,-1.7446424961090088
1720785178332194800,6.99219482421875,0.2071695327758789,0.5262643098831177,-1.813746452331543
1720785178342208500,7.00220849609375,0.5392532348632812,0.33021044731140137,-2.6040472984313965
1720785178352222200,7.01222216796875,0.959986686706543,0.6450268030166626,-2.5872745513916016
1720785178362236000,7.02223583984375,0.8072996139526367,1.272540807723999,-1.472421407699585
1720785178372249900,7.032249755859375,0.24041748046875,0.27052974700927734,-0.8944261074066162
1720785178382263600,7.042263671875,-0.06979846954345703,-0.11704587936401367,-0.3305949866771698
1720785178392277200,7.05227734375,-0.3540916442871094,0.45601749420166016,0.15618668496608734
1720785178402291000,7.062291015625,-0.3652915954589844,-0.6416531801223755,1.5009807348251343
1720785178412305000,7.072304931640625,-0.08091354370117188,-0.8334618806838989,1.081418514251709
1720785178422318600,7.082318603515625,-0.06409931182861328,-1.615622639656067,-0.7052104473114014
1720785178432332300,7.092332275390625,-0.02178478240966797,-1.8221313953399658,-2.219233989715576
1720785178442346200,7.10234619140625,0.5420684814453125,-0.3745204210281372,-1.629608392715454
1720785178452360000,7.11235986328125,0.2741241455078125,0.09696447849273682,-0.4670799970626831
1720785178462374000,7.122373779296875,0.35712718963623047,0.8701463341712952,0.6329668164253235
1720785178472387600,7.1323876953125,0.17361736297607422,1.642107367515564,0.6471785306930542
1720785178482401500,7.142401611328125,0.08716487884521484,1.808674693107605,-0.24597646296024323
1720785178492415200,7.152415283203125,0.10151863098144531,0.5406860113143921,-0.9856539368629456
1720785178502429000,7.162428955078125,0.2153158187866211,-2.4205689430236816,-1.1110424995422363
1720785178512443000,7.17244287109375,-0.17045021057128906,-1.4941624402999878,0.6015497446060181
1720785178522456600,7.18245654296875,-0.7804794311523438,-0.62325119972229,2.05781888961792
1720785178532470500,7.192470458984375,-1.0407953262329102,0.12089276313781738,2.49867582321167
1720785178542484200,7.202484130859375,-1.3823986053466797,-0.7610181570053101,2.232337474822998
1720785178552498000,7.212497802734375,-1.244877815246582,-0.3474292755126953,2.5796966552734375
1720785178562512000,7.222511962890625,-0.7617387771606445,0.16504955291748047,2.8484058380126953
1720785178572525600,7.232525634765625,-0.2581138610839844,-0.9693776369094849,1.4271265268325806
1720785178582539500,7.24253955078125,-0.04486656188964844,-1.1258752346038818,0.22779244184494019
1720785178592553200,7.25255322265625,0.697758674621582,1.3151440620422363,0.5126986503601074
1720785178602567200,7.262567138671875,0.17699337005615234,1.7740663290023804,1.0133622884750366
1720785178612580900,7.272580810546875,-0.5020523071289062,1.0443285703659058,1.6723099946975708
1720785178622594600,7.282594482421875,-1.2710685729980469,0.08976888656616211,1.8751229047775269
1720785178632608500,7.2926083984375,-0.5803928375244141,0.4056915044784546,1.3533399105072021
1720785178642622200,7.302622314453125,1.2304973602294922,-0.6422317028045654,-1.2694309949874878
1720785178652636200,7.31263623046875,2.477741241455078,-1.6606701612472534,-3.722862720489502
1720785178662649900,7.32264990234375,2.411764144897461,-0.5175999402999878,-4.411599636077881
1720785178672663600,7.33266357421875,1.016890525817871,-0.2328730821609497,-2.866701364517212
1720785178682677500,7.342677490234375,-0.8785924911499023,-0.873443603515625,-0.6276123523712158
1720785178692691200,7.352691162109375,-1.922898769378662,0.8356558084487915,1.6329106092453003
1720785178702705200,7.362705078125,-2.6149840354919434,1.7753872871398926,3.6177735328674316
1720785178712718800,7.37271875,-1.6273646354675293,1.7490589618682861,2.5620381832122803
1720785178722732800,7.38273291015625,-0.15407276153564453,1.4733637571334839,-0.6200125217437744
1720785178732746500,7.39274658203125,1.825387954711914,1.7292195558547974,-3.941554546356201
1720785178742760200,7.40276025390625,2.036698341369629,0.7234950065612793,-4.112451076507568
1720785178752774100,7.412774169921875,0.9799785614013672,0.4400137662887573,-2.620413064956665
1720785178762787800,7.422787841796875,0.44681453704833984,-0.264884352684021,-1.1960397958755493
1720785178772801800,7.4328017578125,-0.09526538848876953,-0.1669214963912964,-0.48518168926239014
1720785178782815500,7.4428154296875,-0.09688663482666016,0.9568207859992981,-0.739708423614502
1720785178792829200,7.4528291015625,-0.06603336334228516,1.4937957525253296,-1.0534151792526245
1720785178802843100,7.462843017578125,0.10271644592285156,1.5454094409942627,-0.4633122682571411
1720785178812856800,7.47285693359375,0.648036003112793,0.6302838325500488,0.8362698554992676
1720785178822870800,7.482870849609375,0.8303546905517578,-0.8911514282226562,0.8322039842605591
1720785178832884500,7.492884521484375,0.23022937774658203,-1.466524600982666,0.10130023956298828
1720785178842898200,7.502898193359375,-0.1403951644897461,-1.1513028144836426,-0.93843674659729
1720785178852912000,7.512912109375,-0.07729434967041016,-1.6961134672164917,-1.0830973386764526
1720785178862925800,7.52292578125,1.1511297225952148,-1.5259486436843872,-1.303438425064087
1720785178872939800,7.532939697265625,1.1612157821655273,-0.144683837890625,-1.0107696056365967
1720785178882953500,7.542953369140625,0.3890857696533203,0.37852489948272705,-0.7640882134437561
1720785178892967400,7.552967529296875,0.075164794921875,0.5329445600509644,-0.8178824782371521
1720785178902981000,7.562981201171875,0.060446739196777344,0.6385661363601685,-0.6806777119636536
1720785178912994800,7.572994873046875,-0.028135299682617188,0.5083099603652954,-0.4352602958679199
1720785178923008800,7.5830087890625,-0.9405221939086914,-0.029801011085510254,0.08712217211723328
1720785178933022500,7.5930224609375,-1.3647642135620117,-0.5461273193359375,0.5408250093460083
1720785178943036400,7.603036376953125,-0.4543142318725586,-1.1770392656326294,1.063786268234253
1720785178953050000,7.613050048828125,0.6250638961791992,-1.6940810680389404,1.75710129737854
1720785178963063800,7.623063720703125,0.796595573425293,-1.4207706451416016,2.2273571491241455
1720785178973077800,7.633077880859375,0.3770465850830078,-0.9492602348327637,2.2077584266662598
1720785178983091500,7.643091552734375,0.01921558380126953,-0.4271867275238037,1.8324894905090332
1720785178993105400,7.65310546875,-0.11183738708496094,-0.14446556568145752,1.0777866840362549
1720785179003119000,7.663119140625,-0.07273101806640625,-0.11985206604003906,0.4056541919708252
1720785179013133000,7.673133056640625,0.08014869689941406,-0.010537028312683105,0.08481097221374512
1720785179023146800,7.683146728515625,0.36579418182373047,0.12576508522033691,-0.1863405704498291
1720785179033160400,7.693160400390625,0.2824373245239258,0.07440507411956787,-0.42180323600769043
1720785179043174400,7.70317431640625,0.2349834442138672,0.030324935913085938,-0.41248416900634766
1720785179053188000,7.71318798828125,0.1990814208984375,-0.01127171516418457,-0.33973264694213867
1720785179063202000,7.7232021484375,0.1508159637451172,-0.04048025608062744,0.023697853088378906
1720785179073215700,7.7332158203125,0.18160343170166016,-0.04553413391113281,-0.11730051040649414
1720785179083229400,7.7432294921875,0.14292621612548828,-0.15580010414123535,-0.09686827659606934
1720785179093243400,7.753243408203125,-0.14888477325439453,-0.2580904960632324,-0.1428358554840088
1720785179103257000,7.763257080078125,-0.3194847106933594,-0.11077737808227539,-0.3133842945098877
1720785179113271000,7.77327099609375,-0.3006305694580078,-0.058573126792907715,-0.08802390098571777
1720785179123284700,7.78328466796875,-0.138458251953125,-0.026723265647888184,-0.1816248893737793
1720785179133298700,7.793298583984375,-0.04807090759277344,0.1058276891708374,-0.18405890464782715
1720785179143312400,7.8033125,-0.16597652435302734,0.23016226291656494,-0.009027957916259766
1720785179153326000,7.813326171875,-0.19116783142089844,0.15463697910308838,0.3995082378387451
1720785179163340000,7.823340087890625,-0.23138809204101562,0.053232669830322266,0.453815221786499
1720785179173353700,7.833353759765625,-0.12494564056396484,-0.0992652177810669,0.4260995388031006
1720785179183367400,7.843367431640625,-0.0021314620971679688,-0.11133527755737305,0.3363015651702881
1720785179193381000,7.853381103515625,0.04482460021972656,-0.02023017406463623,0.14972233772277832
1720785179203395000,7.86339501953125,0.23297595977783203,0.004138827323913574,0.1615455150604248
1720785179213408800,7.87340869140625,0.21475887298583984,-0.10694420337677002,0.0251312255859375
1720785179223422500,7.88342236328125,0.04414844512939453,-0.1914616823196411,-0.013140201568603516
1720785179233436200,7.893436279296875,0.05601692199707031,-0.06950700283050537,-0.25636744499206543
1720785179243449900,7.903449951171875,-0.01781463623046875,0.2016679048538208,-0.42728757858276367
1720785179253463800,7.9134638671875,-0.2861776351928711,0.3517645597457886,-0.18564844131469727
1720785179263477500,7.9234775390625,-0.5494899749755859,0.1577540636062622,-0.04376673698425293
1720785179273491200,7.9334912109375,-0.4126396179199219,0.06219327449798584,0.003317594528198242
1720785179283505000,7.9435048828125,-0.15300273895263672,0.09256124496459961,-0.039283037185668945
1720785179293518600,7.9535185546875,0.10975170135498047,0.042855024337768555,-0.12795042991638184
1720785179303532500,7.963532470703125,0.08526229858398438,0.13507187366485596,-0.12920522689819336
1720785179313546200,7.973546142578125,0.08041954040527344,-0.03508567810058594,-0.06508898735046387
1720785179323560000,7.983559814453125,0.08440876007080078,-0.10241997241973877,-0.02789139747619629
1720785179333573600,7.99357373046875,0.12633991241455078,-0.11790037155151367,-0.05571770668029785
1720785179343587600,8.003587646484375,0.012845039367675781,-0.161504864692688,0.07963418960571289
1720785179353601300,8.013601318359376,-0.0802602767944336,-0.24616539478302002,0.3428347110748291
1720785179363615000,8.023614990234375,-0.178619384765625,-0.5391947031021118,0.3909640312194824
1720785179373628700,8.033628662109376,0.05957984924316406,-0.48290467262268066,0.25022435188293457
1720785179383642400,8.043642333984375,0.2010793685913086,-0.17758536338806152,0.16338443756103516
1720785179393656300,8.05365625,-0.059906959533691406,0.3985462188720703,0.08294868469238281
1720785179403670000,8.063669921875,-0.30231571197509766,0.4871898889541626,-0.10307502746582031
1720785179413683700,8.07368359375,-0.13277816772460938,-0.07477617263793945,-0.3649940490722656
1720785179423697400,8.083697509765624,-0.23319244384765625,-0.24135589599609375,-0.3039586544036865
1720785179433711000,8.093711181640625,-0.38225460052490234,0.31320691108703613,-0.19769811630249023
1720785179443725000,8.10372509765625,-0.01994037628173828,0.6342265605926514,-0.11505651473999023
1720785179453738800,8.11373876953125,0.2953329086303711,0.4472825527191162,0.024325847625732422
1720785179463752400,8.12375244140625,-0.25351619720458984,0.1686798334121704,0.36412620544433594
1720785179473766100,8.13376611328125,-0.6716594696044922,-0.5835732221603394,0.4221229553222656
1720785179483779800,8.14377978515625,-0.3212413787841797,-0.7825757265090942,0.11211562156677246
1720785179493793800,8.153793701171875,0.05085468292236328,0.012352347373962402,-0.21210050582885742
1720785179503807500,8.163807373046875,0.1287069320678711,0.6012276411056519,-0.16935861110687256
1720785179513821200,8.1738212890625,0.15851211547851562,0.7317358255386353,-0.035399556159973145
1720785179523835000,8.1838349609375,-0.03594017028808594,0.5308126211166382,0.22475361824035645
1720785179533848800,8.193848876953124,-0.1926422119140625,-0.039815545082092285,0.4615905284881592
1720785179543862500,8.203862548828125,0.026220321655273438,-0.5528659820556641,0.47812318801879883
1720785179553876200,8.213876220703124,0.47431087493896484,-0.32136380672454834,0.08590459823608398
1720785179563890000,8.223889892578125,0.2831707000732422,-0.03709995746612549,-0.35631322860717773
1720785179573904000,8.23390380859375,0.026348114013671875,-0.12246227264404297,-0.8199167251586914
1720785179583917600,8.24391748046875,-0.012530326843261719,-0.1751478910446167,-0.9231551885604858
1720785179593931500,8.253931640625,0.08437633514404297,-0.3204885721206665,-0.7471507787704468
1720785179603945200,8.2639453125,0.2519187927246094,-0.6264690160751343,-0.45718932151794434
1720785179613959000,8.273958984375,0.07798576354980469,-0.34648215770721436,-0.04698073863983154
1720785179623972900,8.283972900390625,-0.03823375701904297,-0.12356269359588623,0.138261079788208
1720785179633986600,8.293986572265625,0.06362533569335938,0.17889118194580078,-0.13538014888763428
1720785179644000500,8.30400048828125,0.15196800231933594,0.23526513576507568,-0.3171757459640503
1720785179654014200,8.31401416015625,0.03365039825439453,0.056130409240722656,-0.33862853050231934
1720785179664028200,8.324028076171874,0.05528736114501953,-0.425396203994751,-0.34748339653015137
1720785179674041900,8.334041748046875,0.26078033447265625,-0.7968623638153076,-0.25518131256103516
1720785179684055600,8.3440556640625,0.0782785415649414,-0.8310849666595459,-0.047583580017089844
1720785179694069500,8.354069580078125,0.05871772766113281,-0.6901895999908447,0.19946527481079102
1720785179704083200,8.364083251953126,0.15069866180419922,-0.5174160003662109,0.5364949703216553
1720785179714097200,8.37409716796875,0.09923362731933594,-0.3163907527923584,0.6196191310882568
1720785179724110800,8.38411083984375,0.013840675354003906,-0.07026922702789307,0.31937289237976074
1720785179734124500,8.39412451171875,0.21743106842041016,0.16682875156402588,-0.144944429397583
1720785179744138500,8.404138427734376,0.2016000747680664,0.42401623725891113,-0.27390217781066895
1720785179754152200,8.414152099609375,0.0945730209350586,0.417356014251709,-0.0714118480682373
1720785179764166100,8.424166259765625,0.042792320251464844,0.4189189672470093,0.04090738296508789
1720785179774179800,8.434179931640625,-0.0802459716796875,0.34847044944763184,0.26676464080810547
1720785179784193500,8.444193603515625,-0.1917715072631836,0.36735546588897705,0.19953513145446777
1720785179794207500,8.45420751953125,-0.25771427154541016,0.34505653381347656,0.22884416580200195
1720785179804221200,8.46422119140625,-0.41292381286621094,0.05250275135040283,0.0415654182434082
1720785179814235100,8.474235107421874,-0.47718048095703125,-0.2716636657714844,-0.13091373443603516
1720785179824248800,8.484248779296875,-0.33455371856689453,-0.32627058029174805,0.029909610748291016
1720785179834262800,8.4942626953125,0.0037374496459960938,-0.2418123483657837,0.04182624816894531
1720785179844276500,8.5042763671875,0.2622957229614258,-0.18087530136108398,-0.0012311935424804688
1720785179854290200,8.514290283203126,0.3935508728027344,-0.21427035331726074,-0.05642127990722656
1720785179864304000,8.52430419921875,0.2740154266357422,-0.09961926937103271,-0.09384870529174805
1720785179874317800,8.53431787109375,0.15744876861572266,-0.07538604736328125,-0.06473302841186523
1720785179884331800,8.544331787109375,0.00667572021484375,-0.11473262310028076,-0.05696535110473633
1720785179894345500,8.554345458984375,-0.06545257568359375,-0.12699544429779053,0.11720657348632812
1720785179904359200,8.564359130859375,-0.1709156036376953,-0.05083012580871582,0.11504697799682617
1720785179914373000,8.574373046875,0.11250591278076172,0.25228190422058105,0.37982702255249023
1720785179924386800,8.58438671875,-0.20541858673095703,-0.08218026161193848,0.223052978515625
1720785179934400800,8.59440087890625,-0.3883495330810547,0.08955979347229004,0.24025869369506836
1720785179944414500,8.60441455078125,1.2466745376586914,-0.5826027393341064,0.6357016563415527
1720785179954428400,8.614428466796875,-0.42578887939453125,-0.5951032638549805,0.2461543083190918
1720785179964442000,8.624442138671874,-0.5121660232543945,0.30573344230651855,0.3911170959472656
1720785179974455800,8.634455810546875,-0.12834835052490234,0.4708991050720215,-0.10620403289794922
1720785179984469800,8.6444697265625,-0.28595447540283203,0.41346192359924316,-0.1923675537109375
1720785179994483500,8.6544833984375,-0.25414562225341797,-0.09679114818572998,0.11194658279418945
1720785180004497400,8.664497314453126,-0.12740802764892578,0.2198094129562378,-0.1289830207824707
1720785180014511000,8.674510986328125,-0.057572364807128906,-0.5863844156265259,0.10378122329711914
1720785180024524800,8.68452490234375,-0.381166934967041,-0.2362816333770752,0.07686424255371094
1720785180034538800,8.694538818359375,0.3540782928466797,-0.4462777376174927,0.4711732864379883
1720785180044552400,8.704552490234375,0.3067359924316406,-0.7480154037475586,-0.1990957260131836
1720785180054566400,8.71456640625,0.14637470245361328,-0.20408320426940918,-0.08591985702514648
1720785180064580000,8.724580078125,0.08115100860595703,0.3628721237182617,-0.43532705307006836
1720785180074594000,8.734593994140624,-0.7155733108520508,0.7308535575866699,-0.6184639930725098
1720785180084607700,8.744607666015625,0.2543172836303711,0.09258162975311279,0.38271665573120117
1720785180094621400,8.754621337890624,0.20082855224609375,-0.42141902446746826,-0.013098716735839844
1720785180104635400,8.764635498046875,-0.2960371971130371,-0.03486037254333496,0.18726348876953125
1720785180114649000,8.774649169921876,-0.12451362609863281,0.022835969924926758,0.12504100799560547
1720785180124663000,8.7846630859375,-0.3013730049133301,-0.27862584590911865,0.30350255966186523
1720785180134676700,8.7946767578125,-0.23547840118408203,-0.4024989604949951,0.2953047752380371
1720785180144690400,8.8046904296875,0.27323246002197266,-0.3727235794067383,0.09587430953979492
1720785180154704100,8.8147041015625,0.4434175491333008,-0.2020207643508911,-0.16095781326293945
1720785180164718000,8.824718017578125,0.371673583984375,-0.09595882892608643,-0.29068946838378906
1720785180174731800,8.834731689453125,0.11828231811523438,0.015103578567504883,-0.29852914810180664
1720785180184745500,8.844745361328124,-0.07001113891601562,0.15974164009094238,-0.25041866302490234
1720785180194759200,8.85475927734375,-0.2816329002380371,0.2865716218948364,0.045296669006347656
1720785180204772900,8.86477294921875,-0.20397710800170898,0.10574209690093994,0.2434535026550293
1720785180214786800,8.874786865234375,-0.15686702728271484,-0.05683779716491699,0.3793196678161621
1720785180224800500,8.884800537109374,0.028388023376464844,-0.1624913215637207,0.3497047424316406
1720785180234814200,8.894814208984375,0.22597885131835938,-0.10738742351531982,0.29445934295654297
1720785180244828000,8.904827880859376,0.20175552368164062,-0.22106313705444336,0.30859899520874023
1720785180254841900,8.914841796875,0.1397075653076172,-0.2723301649093628,0.11418581008911133
1720785180264855600,8.92485546875,-0.12450981140136719,-0.023427248001098633,-0.2980308532714844
1720785180274869200,8.934869140625,-0.018771648406982422,0.06162071228027344,-0.03166961669921875
1720785180284883000,8.944883056640625,-0.24010229110717773,-0.02716517448425293,0.22759199142456055
1720785180294896600,8.954896728515624,-0.1732501983642578,-0.15222537517547607,0.09212541580200195
1720785180304910600,8.96491064453125,0.15079927444458008,-0.08891665935516357,-0.06564664840698242
1720785180314924300,8.97492431640625,0.1451253890991211,0.0008057355880737305,-0.03973102569580078
1720785180324938000,8.98493798828125,0.11295175552368164,0.02118980884552002,-0.04382610321044922
1720785180334951700,8.99495166015625,0.050787925720214844,0.0675516128540039,-0.20038938522338867
1720785180344965400,9.00496533203125,0.037291526794433594,0.2367994785308838,-0.26298952102661133
1720785180354979300,9.014979248046876,-0.0678863525390625,0.46798622608184814,-0.23469781875610352
1720785180364993000,9.024992919921875,-0.30929994583129883,0.45280277729034424,-0.12046337127685547
1720785180375006700,9.0350068359375,-0.46190977096557617,-0.11763656139373779,-0.030021190643310547
1720785180385020400,9.0450205078125,-0.4221310615539551,-0.512117862701416,-0.18709945678710938
1720785180395034000,9.0550341796875,-0.11322164535522461,-0.2846059799194336,-0.4570808410644531
1720785180405048000,9.065048095703125,-0.027594566345214844,0.6695699691772461,-0.819455623626709
1720785180415061800,9.075061767578125,-0.0556492805480957,1.3747986555099487,-1.3355484008789062
1720785180425075500,9.085075439453124,0.519874095916748,1.4332901239395142,-1.5551142692565918
1720785180435089200,9.095089111328125,1.593167781829834,0.30144524574279785,-1.1809720993041992
1720785180445103000,9.10510302734375,0.17077112197875977,-0.9996395111083984,0.992067813873291
1720785180455116800,9.11511669921875,-0.7321844100952148,-1.5803182125091553,1.4866948127746582
1720785180465130500,9.125130615234376,-1.3533134460449219,-1.6970300674438477,0.8157916069030762
1720785180475144200,9.135144287109375,-0.8787689208984375,-0.8534059524536133,0.3882155418395996
1720785180485158000,9.145157958984376,0.2387542724609375,-0.038887977600097656,0.07924175262451172
1720785180495171800,9.155171875,-0.02586221694946289,0.39750945568084717,0.3502364158630371
1720785180505185500,9.165185546875,-0.43860912322998047,0.6903902292251587,-0.3839550018310547
1720785180515199200,9.17519921875,0.0451359748840332,0.377636194229126,-1.2720460891723633
1720785180525213000,9.185212890625,0.516754150390625,0.5448347330093384,-1.0316033363342285
1720785180535226600,9.1952265625,0.6830887794494629,0.33817243576049805,-0.3246326446533203
1720785180545240600,9.205240478515625,0.35688161849975586,0.11218571662902832,0.43930578231811523
1720785180555254300,9.215254150390624,-0.1808915138244629,-0.6224744319915771,0.947324275970459
1720785180565268000,9.22526806640625,-0.24659347534179688,-0.8476078510284424,0.8468570709228516
1720785180575281700,9.23528173828125,-0.1815781593322754,-0.5109298229217529,1.0299692153930664
1720785180585295400,9.24529541015625,-0.1248636245727539,-0.2396547794342041,1.3726272583007812
1720785180595309300,9.255309326171876,-0.40119075775146484,-0.08014488220214844,1.6640961170196533
1720785180605323000,9.265322998046875,-0.5678825378417969,0.3687593936920166,1.086989164352417
1720785180615336700,9.275336669921876,-0.051531314849853516,0.006587028503417969,0.4564952850341797
1720785180625350400,9.285350341796875,0.15310430526733398,0.08883953094482422,0.2567024230957031
1720785180635364400,9.2953642578125,0.24913930892944336,0.2338402271270752,0.3395557403564453
1720785180645378000,9.3053779296875,-0.34162282943725586,-0.5260775089263916,0.9619889259338379
1720785180655391700,9.315391845703125,-0.12839460372924805,-2.4132654666900635,1.4721825122833252
1720785180665405700,9.32540576171875,0.7741785049438477,-1.8459298610687256,1.1120553016662598
1720785180675419400,9.33541943359375,0.9048552513122559,0.475034236907959,-0.21075057983398438
1720785180685433000,9.34543310546875,0.3890557289123535,1.8923892974853516,-0.862635612487793
1720785180695447000,9.355447021484375,-0.45939016342163086,2.0877907276153564,-0.8149509429931641
1720785180705460700,9.365460693359376,-0.30199480056762695,0.7594234943389893,-0.9663724899291992
1720785180715474700,9.375474609375,-0.10091304779052734,-0.699399471282959,-1.0728015899658203
1720785180725488400,9.38548828125,0.01955699920654297,-0.7843942642211914,-0.9831161499023438
1720785180735502000,9.395502197265625,-0.06867027282714844,-0.4378941059112549,-0.8820657730102539
1720785180745516000,9.40551611328125,-0.38547468185424805,-0.34948062896728516,-0.6589083671569824
1720785180755529700,9.41552978515625,-0.25046300888061523,-0.09055113792419434,-0.4110245704650879
1720785180765543700,9.425543701171875,-0.10716485977172852,-0.3775632381439209,-0.23138141632080078
1720785180775557400,9.435557373046874,0.11814212799072266,-0.578387975692749,0.10523796081542969
1720785180785571300,9.4455712890625,0.006398677825927734,-0.3413562774658203,0.24805688858032227
1720785180795585000,9.4555849609375,-0.11957597732543945,-0.14614367485046387,0.2438206672668457
1720785180805598700,9.4655986328125,-0.15020418167114258,-0.2539794445037842,0.16797971725463867
1720785180815612700,9.47561279296875,0.1810593605041504,-0.28241634368896484,0.33730220794677734
1720785180825626400,9.48562646484375,0.43480777740478516,0.026509523391723633,0.4444160461425781
1720785180835640300,9.495640380859374,0.14663457870483398,0.3131906986236572,0.4118185043334961
1720785180845654000,9.505654052734375,-0.04392242431640625,0.22099876403808594,0.31465673446655273
1720785180855667700,9.515667724609376,0.0022072792053222656,-0.016526222229003906,0.20035362243652344
1720785180865681700,9.525681640625,-0.04799461364746094,-0.07396626472473145,0.1628580093383789
1720785180875695400,9.5356953125,-0.037740230560302734,-0.17989635467529297,0.06581497192382812
1720785180885709300,9.545709228515625,-0.051568031311035156,-0.25739359855651855,0.012015819549560547
1720785180895723000,9.555722900390625,-0.09374666213989258,-0.1631603240966797,-0.09832763671875
1720785180905737000,9.565737060546875,-0.1166691780090332,-0.10764765739440918,-0.15088129043579102
1720785180915750700,9.575750732421875,-0.13897466659545898,-0.15150737762451172,-0.21256685256958008
1720785180925764400,9.585764404296874,-0.10808610916137695,-0.11668729782104492,-0.2694830894470215
1720785180935778300,9.5957783203125,-0.052999019622802734,0.06293368339538574,-0.32642030715942383
1720785180945792000,9.6057919921875,-0.06390619277954102,0.2151775360107422,-0.2104358673095703
1720785180955806000,9.615805908203125,-0.037138938903808594,0.2096996307373047,-0.1388235092163086
1720785180965819600,9.625819580078126,0.017744064331054688,0.06018853187561035,0.07555437088012695
1720785180975833300,9.635833251953125,0.0014352798461914062,-0.05724477767944336,0.15260791778564453
1720785180985847300,9.645847412109376,-0.005786895751953125,-0.21006321907043457,0.20587778091430664
1720785180995861000,9.655861083984375,-0.046380043029785156,-0.23476243019104004,0.14504718780517578
1720785181005875000,9.665875,-0.05891847610473633,-0.1306464672088623,0.14075040817260742
1720785181015888600,9.675888671875,-0.009220123291015625,-0.10704612731933594,0.13609695434570312
1720785181025902600,9.685902587890626,0.0050830841064453125,-0.06300520896911621,0.1161799430847168
1720785181035916300,9.695916259765625,-0.009825706481933594,-0.013674497604370117,0.09524106979370117
1720785181045930000,9.705929931640625,0.05281400680541992,-0.025632858276367188,0.013356685638427734
1720785181055944000,9.71594384765625,-0.023508548736572266,-0.010011911392211914,0.056151390075683594
1720785181065957600,9.72595751953125,0.01045370101928711,-0.09265398979187012,0.1386418342590332
1720785181075971300,9.735971435546874,-0.06952190399169922,-0.08653855323791504,0.1468524932861328
1720785181085985000,9.745985107421875,-0.09055137634277344,0.0042912960052490234,0.09089517593383789
1720785181095998700,9.755998779296876,-0.13074493408203125,0.008196830749511719,0.04479789733886719
1720785181106012700,9.7660126953125,-0.18358850479125977,0.08982086181640625,-0.018520355224609375
1720785181116026400,9.7760263671875,-0.11165809631347656,0.2016003131866455,-0.04847574234008789
1720785181126040000,9.7860400390625,-0.09211301803588867,0.10914731025695801,0.0026726722717285156
1720785181136053800,9.7960537109375,-0.06722021102905273,0.008602380752563477,0.030117511749267578
1720785181146067500,9.8060673828125,0.052475929260253906,-0.0724644660949707,0.008556365966796875
1720785181156081400,9.816081298828125,0.08958292007446289,-0.12555313110351562,0.05279970169067383
1720785181166095000,9.82609521484375,0.10483503341674805,-0.20991945266723633,0.02837371826171875
1720785181176108800,9.83610888671875,0.1658802032470703,-0.3228912353515625,-0.015251636505126953
1720785181186122500,9.84612255859375,0.0429844856262207,-0.30780601501464844,-0.0800018310546875
1720785181196136400,9.856136474609375,-0.008969306945800781,-0.3124830722808838,-0.004681587219238281
1720785181206150100,9.866150146484374,-0.0892033576965332,-0.24045753479003906,-0.03617715835571289
1720785181216163800,9.876163818359375,-0.0839700698852539,-0.0870206356048584,-0.0599365234375
1720785181226177500,9.886177490234376,-0.0031142234802246094,-0.046407222747802734,-0.06530475616455078
1720785181236191200,9.896191162109375,-0.030063629150390625,0.01894211769104004,0.03500986099243164
1720785181246205200,9.906205078125,0.02363729476928711,0.07904624938964844,0.02519512176513672
1720785181256219000,9.916218994140625,-0.026329994201660156,0.05725574493408203,0.10674381256103516
1720785181266232600,9.926232666015625,-0.08417987823486328,-0.08303046226501465,0.22148561477661133
1720785181276246300,9.936246337890625,-0.06692314147949219,-0.14706945419311523,0.16828632354736328
1720785181286260000,9.946260009765625,-0.07009553909301758,-0.09312176704406738,0.08618307113647461
1720785181296274000,9.95627392578125,0.014247417449951172,-0.12077093124389648,0.01681232452392578
1720785181306287600,9.96628759765625,-0.053708553314208984,-0.1432204246520996,-0.004511356353759766
1720785181316301300,9.97630126953125,-0.017330646514892578,0.032570600509643555,-0.08267688751220703
1720785181326315000,9.98631494140625,-0.0434718132019043,0.08366274833679199,-0.09493589401245117
1720785181336328700,9.99632861328125,-0.05349588394165039,0.03574562072753906,-0.05322694778442383
1720785181346342700,10.0063427734375,-0.0019707679748535156,0.02678656578063965,-0.14885663986206055
1720785181356356400,10.0163564453125,-0.02122354507446289,-0.05266165733337402,-0.07218599319458008
1720785181366370000,10.0263701171875,-0.024808406829833984,-0.08323168754577637,0.04250001907348633
1720785181376383700,10.0363837890625,0.00904703140258789,-0.18825483322143555,0.15460968017578125
1720785181386397700,10.046397705078125,0.022547245025634766,-0.16843032836914062,0.13122177124023438
1720785181396411400,10.056411376953125,0.08526372909545898,-0.2424945831298828,0.14671802520751953
1720785181406425000,10.066425048828124,0.03626823425292969,-0.263336181640625,0.09713029861450195
1720785181416438800,10.076438720703125,0.05489492416381836,-0.1806039810180664,0.10865545272827148
1720785181426452500,10.086452392578124,-0.02752399444580078,-0.0941307544708252,0.03688240051269531
1720785181436466400,10.096466552734375,-0.023834705352783203,-0.039925336837768555,0.09694719314575195
1720785181446480100,10.106480224609374,-0.07151460647583008,0.028465747833251953,-0.008677482604980469
1720785181456493800,10.116493896484375,-0.062090396881103516,0.03490447998046875,-0.12733888626098633
1720785181466507500,10.126507568359376,-0.06513023376464844,0.060079097747802734,-0.057550907135009766
1720785181476521200,10.136521240234375,-0.08173322677612305,0.04227280616760254,-0.006952762603759766
1720785181486535200,10.14653515625,-0.11306381225585938,0.025482177734375,-0.0014042854309082031
1720785181496548900,10.156548828125,-0.0706324577331543,-0.018682479858398438,-0.03270101547241211
1720785181506562600,10.1665625,-0.05330324172973633,-0.1419835090637207,0.09041690826416016
1720785181516576300,10.176576171875,-0.053646087646484375,-0.16342616081237793,0.09541082382202148
1720785181526590000,10.18658984375,0.030651092529296875,-0.11816215515136719,0.07614278793334961
1720785181536604000,10.19660400390625,0.036681175231933594,-0.008768081665039062,0.20415496826171875
1720785181546617600,10.20661767578125,0.1778402328491211,0.3232598304748535,-0.1254734992980957
1720785181556631300,10.21663134765625,0.2573089599609375,0.4211444854736328,-0.09583759307861328
1720785181566645000,10.22664501953125,-0.2283024787902832,0.25128746032714844,0.057724952697753906
1720785181576659000,10.236658935546876,-0.12899255752563477,-0.38940000534057617,0.04309892654418945
1720785181586672600,10.246672607421875,-0.06021690368652344,-0.28409528732299805,0.0011181831359863281
1720785181596686300,10.256686279296876,0.1271352767944336,-0.3200247287750244,0.24178600311279297
1720785181606700000,10.266699951171875,0.03730583190917969,-0.29886794090270996,0.029588699340820312
1720785181616713700,10.276713623046875,0.0938262939453125,-0.14716577529907227,-0.010854721069335938
1720785181626727700,10.286727783203125,0.06811904907226562,-0.0369267463684082,-0.0895848274230957
1720785181636741400,10.296741455078125,-0.022237777709960938,0.03766131401062012,-0.01910257339477539
1720785181646755000,10.306755126953124,-0.1566329002380371,0.08754110336303711,-0.008560657501220703
1720785181656768800,10.316768798828125,-0.1757335662841797,0.04765725135803223,-0.007955074310302734
1720785181666782500,10.326782470703124,-0.15510129928588867,-0.008993864059448242,0.09360456466674805
1720785181676796400,10.33679638671875,-0.08182907104492188,-0.05911755561828613,0.11008024215698242
1720785181686810000,10.34681005859375,-0.03263282775878906,-0.03300929069519043,0.1038517951965332
1720785181696823800,10.35682373046875,-0.008243560791015625,-0.003237485885620117,0.0031385421752929688
1720785181706837500,10.36683740234375,0.019422531127929688,-0.08284425735473633,-0.012477874755859375
1720785181716851200,10.376851318359375,0.0031957626342773438,-0.08665204048156738,-0.09026145935058594
1720785181726865200,10.386865234375,0.00029468536376953125,-0.0391542911529541,-0.13992071151733398
1720785181736878800,10.39687890625,-0.026868820190429688,-0.021009206771850586,-0.18511343002319336
1720785181746892500,10.406892578125,-0.043021202087402344,-0.012101173400878906,-0.15259599685668945
1720785181756906200,10.41690625,-0.006606101989746094,-0.04561114311218262,-0.13875913619995117
1720785181766920200,10.426920166015625,-0.02128124237060547,-0.03615570068359375,-0.06644439697265625
1720785181776934100,10.43693408203125,-0.010892868041992188,-0.045349836349487305,0.11017274856567383
1720785181786948000,10.446947998046875,-0.018761634826660156,-0.025870084762573242,0.22370290756225586
1720785181796962000,10.456962158203124,-0.05442523956298828,0.040688514709472656,0.22266769409179688
1720785181806975700,10.466975830078125,-0.020397186279296875,-0.021452665328979492,0.2852630615234375
1720785181816989700,10.47698974609375,-0.03428077697753906,0.0022225379943847656,0.18627119064331055
1720785181827003600,10.487003662109375,0.03583049774169922,0.09125089645385742,0.10148382186889648
1720785181837017300,10.497017333984376,0.07621097564697266,0.08502912521362305,-0.0014691352844238281
1720785181847031300,10.50703125,0.09363174438476562,0.08446907997131348,-0.08696508407592773
1720785181857045000,10.517044921875,0.15332603454589844,0.0373537540435791,-0.1475086212158203
1720785181867058700,10.52705859375,0.11442375183105469,0.0007522106170654297,-0.19090557098388672
1720785181877072400,10.537072265625,0.04010581970214844,-0.04410123825073242,-0.10403585433959961
1720785181887086300,10.54708642578125,0.004796028137207031,-0.05526232719421387,-0.07500743865966797
1720785181897100000,10.55710009765625,-0.05806255340576172,-0.0049741268157958984,-0.018001079559326172
1720785181907113700,10.56711376953125,-0.08354568481445312,-0.02176642417907715,0.012438297271728516
1720785181917127400,10.57712744140625,-0.11459827423095703,-0.04329633712768555,-0.044347286224365234
1720785181927141000,10.58714111328125,-0.09931564331054688,0.0006878376007080078,-0.08300447463989258
1720785181937155000,10.597155029296875,-0.12748336791992188,0.029297828674316406,-0.08434295654296875
1720785181947168800,10.607168701171876,-0.1359720230102539,0.010476112365722656,-0.033330440521240234
1720785181957182500,10.617182373046875,-0.09658336639404297,-0.016933441162109375,-0.015416622161865234
1720785181967196200,10.627196044921876,-0.03929615020751953,-0.05789637565612793,-0.012471199035644531
1720785181977209900,10.6372099609375,0.013377189636230469,-0.11197161674499512,0.029634952545166016
1720785181987223800,10.647223876953126,0.13120269775390625,-0.13712024688720703,0.02418231964111328
1720785181997237500,10.657237548828125,0.18131351470947266,-0.058686256408691406,0.019414424896240234
1720785182007251200,10.667251220703125,0.17363262176513672,0.02261805534362793,-0.070465087890625
1720785182017265000,10.677264892578124,0.1470508575439453,-0.015554666519165039,-0.027045726776123047
1720785182027278600,10.687278564453125,0.05972099304199219,0.05495166778564453,-0.09244966506958008
1720785182037292500,10.69729248046875,-0.021645545959472656,0.14319229125976562,-0.034641265869140625
1720785182047306200,10.70730615234375,-0.10630607604980469,0.1360790729522705,-0.015569686889648438
1720785182057320000,10.71731982421875,-0.14119720458984375,0.16292762756347656,0.03300189971923828
1720785182067333600,10.727333740234375,-0.07640743255615234,0.19934916496276855,0.04772758483886719
1720785182077347600,10.73734765625,-0.03487396240234375,0.19366049766540527,0.059243202209472656
1720785182087361300,10.747361328125,0.05432605743408203,0.14658236503601074,0.07679605484008789
1720785182097375000,10.757375,0.1324443817138672,0.10069775581359863,0.03701353073120117
1720785182107388700,10.767388671875,0.1435222625732422,0.11725187301635742,-0.03497457504272461
1720785182117402400,10.77740234375,0.13349342346191406,0.08163881301879883,-0.09024572372436523
1720785182127416300,10.787416259765624,0.07970333099365234,0.027895212173461914,-0.19424676895141602
1720785182137430000,10.797429931640625,0.0729379653930664,0.017222166061401367,-0.2367396354675293
1720785182147443700,10.807443603515624,0.02329540252685547,-0.0028886795043945312,-0.21341943740844727
1720785182157457400,10.81745751953125,0.0031614303588867188,-0.060730934143066406,-0.13779211044311523
1720785182167471000,10.82747119140625,-0.006171226501464844,-0.08955121040344238,-0.052199363708496094
1720785182177485000,10.837485107421875,-0.010629653930664062,-0.08055567741394043,0.032169342041015625
1720785182187498800,10.847498779296876,0.0049495697021484375,-0.08574175834655762,0.13572978973388672
1720785182197512400,10.857512451171875,0.039971351623535156,-0.10461282730102539,0.1963510513305664
1720785182207526100,10.867526123046876,0.051018714904785156,-0.12320947647094727,0.21384572982788086
1720785182217539800,10.877539794921875,0.01987171173095703,-0.1273958683013916,0.18929481506347656
1720785182227553800,10.8875537109375,-0.021968841552734375,-0.16028666496276855,0.12484550476074219
1720785182237567500,10.8975673828125,-0.0730137825012207,-0.2210254669189453,0.13142824172973633
1720785182247581200,10.907581298828125,-0.12840557098388672,-0.11145138740539551,0.08545494079589844
1720785182257595000,10.917594970703124,-0.15522003173828125,-0.022606611251831055,0.07226085662841797
1720785182267608800,10.92760888671875,-0.13457727432250977,-0.020270347595214844,0.026272296905517578
1720785182277622500,10.93762255859375,-0.09643840789794922,-0.028077363967895508,-0.07673168182373047
1720785182287636200,10.94763623046875,-0.04564952850341797,-0.11688923835754395,-0.11756324768066406
1720785182297650000,10.95764990234375,-0.08885335922241211,-0.1859748363494873,-0.1603388786315918
1720785182307663600,10.96766357421875,-0.06116676330566406,-0.24037933349609375,-0.15575695037841797
1720785182317677600,10.977677490234376,-0.060853004455566406,-0.19995331764221191,-0.03581094741821289
1720785182327691300,10.987691162109375,-0.0843820571899414,-0.11347317695617676,0.015938758850097656
1720785182337705000,10.997705078125,-0.09852790832519531,-0.10392189025878906,0.12272071838378906
1720785182347718700,11.00771875,-0.12162208557128906,-0.009905099868774414,0.1669635772705078
1720785182357732400,11.017732421875,-0.1498713493347168,0.06841206550598145,0.20911836624145508
1720785182367746300,11.027746337890624,-0.19632244110107422,0.08472442626953125,0.27880430221557617
1720785182377760000,11.037760009765625,-0.21362018585205078,0.11087322235107422,0.24347591400146484
1720785182387773700,11.047773681640624,-0.1563401222229004,0.08029699325561523,0.2021036148071289
1720785182397787400,11.057787353515625,-0.11259889602661133,-0.0012841224670410156,0.18262100219726562
1720785182407801300,11.06780126953125,-0.012507438659667969,-0.09138321876525879,0.0751032829284668
1720785182417815000,11.07781494140625,0.09117984771728516,-0.14288687705993652,0.017732620239257812
1720785182427828700,11.087828857421876,0.1045541763305664,-0.10448479652404785,-0.09343385696411133
1720785182437842400,11.097842529296875,0.16904258728027344,-0.19402050971984863,-0.03859901428222656
1720785182447856000,11.107856201171876,0.13901329040527344,-0.1781764030456543,-0.09660720825195312
1720785182457870000,11.1178701171875,0.10459709167480469,-0.044660329818725586,-0.08336305618286133
1720785182467883800,11.1278837890625,-0.013959884643554688,-0.020984888076782227,-0.01408529281616211
1720785182477897500,11.1378974609375,-0.1337742805480957,-0.020378828048706055,0.0465240478515625
1720785182487911200,11.1479111328125,-0.17688465118408203,0.008844137191772461,0.0388636589050293
1720785182497924900,11.1579248046875,-0.1817793846130371,-0.02842235565185547,0.04988813400268555
1720785182507938800,11.167938720703125,-0.1484370231628418,-0.08439970016479492,0.07118654251098633
1720785182517952500,11.177952392578124,-0.0412445068359375,-0.12155866622924805,0.08637762069702148
1720785182527966200,11.18796630859375,-0.015275955200195312,-0.06914448738098145,0.06971359252929688
1720785182537980000,11.19797998046875,0.0044841766357421875,-0.0508730411529541,0.04233884811401367
1720785182547993600,11.20799365234375,0.02871417999267578,-0.12692737579345703,0.0625600814819336
1720785182558007600,11.218007568359376,0.02454853057861328,-0.03654074668884277,-0.03505134582519531
1720785182568021200,11.228021240234375,0.015361785888671875,0.038457632064819336,-0.05641508102416992
1720785182578035000,11.238034912109375,-0.020946502685546875,0.009422779083251953,-0.05746030807495117
1720785182588048600,11.248048583984374,-0.004212379455566406,0.00986933708190918,-0.0955958366394043
1720785182598062600,11.2580625,0.03509521484375,-0.03673100471496582,-0.09658956527709961
1720785182608076300,11.268076171875,0.05168628692626953,-0.10125160217285156,-0.0481266975402832
1720785182618090000,11.278090087890625,0.06315994262695312,-0.16959691047668457,-0.0052928924560546875
1720785182628103700,11.288103759765624,0.06485176086425781,-0.15731167793273926,0.022756576538085938
1720785182638117400,11.298117431640625,0.0001773834228515625,-0.05653834342956543,0.003067493438720703
1720785182648131300,11.30813134765625,-0.008463859558105469,-0.10874581336975098,0.06627130508422852
1720785182658145000,11.31814501953125,-0.0030145645141601562,-0.07536745071411133,-0.013164043426513672
1720785182668158700,11.32815869140625,0.025579452514648438,0.03271627426147461,-0.05403566360473633
1720785182678172400,11.33817236328125,0.006861686706542969,0.03589892387390137,-0.046980857849121094
1720785182688186000,11.34818603515625,-0.000736236572265625,0.006983518600463867,0.004056453704833984
1720785182698200000,11.358199951171875,0.04378700256347656,-0.02074885368347168,0.03527498245239258
1720785182708213800,11.3682138671875,0.058905601501464844,-0.02925872802734375,0.013563156127929688
1720785182718227500,11.3782275390625,0.07429695129394531,-0.061444759368896484,0.021467208862304688
1720785182728241200,11.3882412109375,0.1166839599609375,-0.07962226867675781,0.018561840057373047
1720785182738254800,11.3982548828125,0.0782623291015625,-0.050931453704833984,-0.012275218963623047
1720785182748268800,11.408268798828125,0.00730133056640625,0.0008466243743896484,-0.03821849822998047
1720785182758282500,11.418282470703126,-0.0021924972534179688,-0.08952999114990234,0.07133150100708008
1720785182768296200,11.428296142578125,-0.0624237060546875,-0.06974053382873535,0.03903627395629883
1720785182778310000,11.438309814453126,-0.05071449279785156,0.03007984161376953,0.11119985580444336
1720785182788323800,11.44832373046875,-0.08588457107543945,0.03439188003540039,0.09311914443969727
1720785182798337500,11.458337646484376,-0.01637411117553711,-0.008185386657714844,0.06175804138183594
1720785182808351200,11.468351318359375,0.07978200912475586,-0.012469291687011719,-0.00273895263671875
1720785182818365000,11.478364990234375,0.10824012756347656,-0.0687556266784668,-0.019134044647216797
1720785182828378600,11.488378662109374,0.10374259948730469,-0.1620347499847412,-0.07201719284057617
1720785182838392600,11.498392578125,0.10790634155273438,-0.2263956069946289,-0.09186983108520508
1720785182848406300,11.50840625,0.056351661682128906,-0.1723475456237793,-0.039072513580322266
1720785182858420000,11.518419921875,-0.1143798828125,-0.21972966194152832,-0.032253265380859375
1720785182868433700,11.52843359375,-0.03968191146850586,-0.2534463405609131,-0.019226551055908203
1720785182878447400,11.538447265625,-0.11140060424804688,0.03664135932922363,0.01204681396484375
1720785182888461300,11.54846142578125,0.44843482971191406,0.5079216957092285,-0.04376029968261719
1720785182898475000,11.55847509765625,-0.22320890426635742,-0.07465648651123047,-0.007487773895263672
1720785182908488700,11.56848876953125,-0.09508562088012695,-0.12641549110412598,0.029308319091796875
1720785182918502400,11.57850244140625,-0.08359193801879883,-0.10895967483520508,-0.03441905975341797
1720785182928516000,11.58851611328125,-0.09143257141113281,-0.1264781951904297,-0.04007863998413086
1720785182938530000,11.598530029296874,-0.0707254409790039,-0.0639503002166748,-0.082916259765625
1720785182948543700,11.608543701171875,-0.026520729064941406,-0.02101874351501465,-0.12946701049804688
1720785182958557400,11.618557373046874,-0.029327869415283203,-0.035350799560546875,-0.0891256332397461
1720785182968571100,11.628571044921875,-0.05631446838378906,-0.040653228759765625,-0.20093441009521484
1720785182978585000,11.638585205078124,-0.13551044464111328,-0.10304093360900879,-0.0857234001159668
1720785182988598800,11.648598876953125,-0.2071533203125,0.25888776779174805,-0.030904293060302734
1720785182998612500,11.658612548828126,-0.2634735107421875,0.3242466449737549,0.09750223159790039
1720785183008626200,11.668626220703125,-0.2147984504699707,0.2530646324157715,0.18136167526245117
1720785183018640000,11.678639892578126,-0.05811929702758789,0.1889493465423584,0.2262110710144043
1720785183028653800,11.68865380859375,-0.6510543823242188,0.6379997730255127,0.7990365028381348
1720785183038667500,11.69866748046875,-0.8495302200317383,1.3654296398162842,1.384103775024414
1720785183048681200,11.70868115234375,0.32045555114746094,0.7956006526947021,0.5663356781005859
1720785183058695000,11.71869482421875,0.6256494522094727,-0.15357255935668945,-0.23108339309692383
1720785183068708600,11.72870849609375,0.5568456649780273,-0.7769472599029541,-0.8388609886169434
1720785183078722600,11.73872265625,0.48258209228515625,-0.8905246257781982,-0.9278092384338379
1720785183088736300,11.748736328125,0.4286165237426758,-0.42679548263549805,-0.9274439811706543
1720785183098750000,11.75875,0.3212623596191406,-0.041790008544921875,-1.5087180137634277
1720785183108763600,11.768763671875,0.11733436584472656,-0.07193708419799805,-1.2990365028381348
1720785183118777300,11.77877734375,0.15685462951660156,-0.4469277858734131,-1.0828337669372559
1720785183128791300,11.788791259765626,0.13826894760131836,-0.8142476081848145,-0.9180326461791992
1720785183138805000,11.798804931640625,-0.4226703643798828,-0.3582577705383301,0.25002527236938477
1720785183148818700,11.808818603515626,-0.8984780311584473,0.055051326751708984,1.7405335903167725
1720785183158832600,11.81883251953125,-0.18054914474487305,-0.06810641288757324,1.7577061653137207
1720785183168846300,11.828846435546875,0.33844518661499023,1.1764205694198608,0.6258454322814941
1720785183178860000,11.838860107421874,-0.41434288024902344,0.4952859878540039,0.6718540191650391
1720785183188874000,11.8488740234375,-0.13634204864501953,-0.8337428569793701,0.9636168479919434
1720785183198887700,11.8588876953125,0.5276412963867188,-0.43563413619995117,0.10772466659545898
1720785183208901600,11.868901611328125,0.3600583076477051,0.8904118537902832,-0.32170915603637695
1720785183218915300,11.878915283203124,0.21859455108642578,0.39496517181396484,-0.2901453971862793
1720785183228929000,11.888928955078125,0.19315671920776367,0.11581587791442871,-0.31725072860717773
1720785183238943000,11.89894287109375,-0.6402864456176758,0.215224027633667,0.16841650009155273
1720785183248956700,11.908956787109375,-0.5129947662353516,1.3766602277755737,1.4607603549957275
1720785183258970600,11.918970703125,0.3203268051147461,0.9492112398147583,-0.15619897842407227
1720785183268984300,11.928984375,-0.07790136337280273,0.07998943328857422,-0.47686767578125
1720785183278998000,11.938998046875,0.06087017059326172,-0.7731094360351562,-0.5535888671875
1720785183289012000,11.949011962890625,0.19539928436279297,-0.7001945972442627,-0.9350757598876953
1720785183299025700,11.959025634765625,0.3387737274169922,-0.35885047912597656,-1.2854671478271484
1720785183309039600,11.96903955078125,0.22165346145629883,-0.11837625503540039,-1.060044765472412
1720785183319053300,11.97905322265625,0.0830988883972168,0.08655476570129395,-0.3509693145751953
1720785183329067300,11.9890673828125,-0.045404911041259766,0.1402115821838379,0.4963693618774414
1720785183339081000,11.9990810546875,-0.2704439163208008,-0.9233870506286621,1.183764934539795
1720785183349094700,12.0090947265625,-0.3925204277038574,-1.4941911697387695,1.2212910652160645
1720785183359108600,12.019108642578125,-0.36273717880249023,-1.220853567123413,0.8880362510681152
1720785183369122300,12.029122314453126,-0.14442920684814453,-0.5736439228057861,0.6394033432006836
1720785183379136300,12.03913623046875,0.18336153030395508,-0.25132298469543457,0.41443681716918945
1720785183389150000,12.04914990234375,0.3392791748046875,-0.34604930877685547,0.3203248977661133
1720785183399163600,12.05916357421875,0.37500524520874023,-0.16383767127990723,0.19695043563842773
1720785183409177600,12.069177490234376,0.4992537498474121,0.3923988342285156,0.10758590698242188
1720785183419191300,12.07919140625,0.26419925689697266,0.6987571716308594,-0.13007020950317383
1720785183429205200,12.089205322265625,-0.1292877197265625,0.2326672077178955,-0.18856477737426758
1720785183439219000,12.099218994140625,-0.09446859359741211,-0.47287654876708984,-0.1926264762878418
1720785183449232600,12.109232666015625,-0.3688693046569824,-0.44568538665771484,-0.2777276039123535
1720785183459246600,12.11924658203125,0.2937631607055664,-0.4301755428314209,-0.41885995864868164
1720785183469260300,12.12926025390625,-0.28216123580932617,-0.11576104164123535,-0.34143781661987305
1720785183479274000,12.13927392578125,-0.8460044860839844,0.37802672386169434,-0.12395334243774414
1720785183489287700,12.14928759765625,-0.3399491310119629,0.8342746496200562,0.021355628967285156
1720785183499301400,12.15930126953125,0.2636570930480957,0.9195765256881714,-0.0431976318359375
1720785183509315300,12.1693154296875,0.4069685935974121,0.9387778043746948,-0.06746578216552734
1720785183519329000,12.1793291015625,0.1285839080810547,0.7080546617507935,0.15172815322875977
1720785183529342700,12.1893427734375,-0.15177440643310547,0.35541820526123047,0.38947534561157227
1720785183539356400,12.1993564453125,-0.1599102020263672,0.026504993438720703,0.33431291580200195
1720785183549370000,12.2093701171875,-0.12996387481689453,-0.14405345916748047,0.3269047737121582
1720785183559384000,12.219384033203125,-0.07546758651733398,-0.2367689609527588,0.30579328536987305
1720785183569397800,12.229397705078124,-0.05533647537231445,-0.20921754837036133,0.1829085350036621
1720785183579411500,12.239411376953125,-0.05989503860473633,-0.0613861083984375,0.0730905532836914
1720785183589425200,12.249425048828124,0.8395395278930664,0.22194123268127441,-0.3277568817138672
1720785183599439000,12.259439208984375,0.44067859649658203,0.07505035400390625,-0.6417994499206543
1720785183609452800,12.269452880859374,-1.5809426307678223,-0.712033748626709,1.1790671348571777
1720785183619466500,12.279466552734375,-0.3921165466308594,-0.34212660789489746,1.1614232063293457
1720785183629480200,12.289480224609376,0.9016752243041992,0.3842654228210449,0.8907852172851562
1720785183639494000,12.299493896484375,0.015363693237304688,-0.4641880989074707,0.2884178161621094
1720785183649507800,12.3095078125,-1.2688446044921875,-0.22272229194641113,-0.6816110610961914
1720785183659521500,12.319521484375,0.1183013916015625,-0.017189502716064453,-0.5543923377990723
1720785183669535200,12.32953515625,0.37500572204589844,0.35663771629333496,-0.9878759384155273
1720785183679549000,12.339548828125,-0.8997311592102051,0.2700684070587158,-0.23900079727172852
1720785183689562600,12.349562744140625,3.603473663330078,-1.3211383819580078,0.46224308013916016
1720785183699576600,12.35957666015625,-0.6437506675720215,-2.0372774600982666,-1.6573429107666016
1720785183709590300,12.36959033203125,-1.230875015258789,-0.2028501033782959,0.6070137023925781
1720785183719604000,12.37960400390625,-0.260836124420166,-1.0940008163452148,0.8178277015686035
1720785183729617700,12.38961767578125,-0.8038468360900879,-0.7856855392456055,0.6627840995788574
1720785183739631400,12.39963134765625,-0.3791627883911133,1.0621533393859863,0.26863813400268555
1720785183749645300,12.409645263671875,-0.15777063369750977,1.5553245544433594,-0.5772790908813477
1720785183759659000,12.419658935546876,-0.08365106582641602,1.9756547212600708,-0.7440500259399414
1720785183769672700,12.429672607421875,-0.30124807357788086,2.3320233821868896,-1.009507656097412
1720785183779686400,12.439686279296875,0.681769847869873,1.1001107692718506,1.8257098197937012
1720785183789700400,12.449700439453125,1.2543435096740723,-0.5888175964355469,1.1600289344787598
1720785183799714000,12.459714111328125,0.1780853271484375,-1.7944130897521973,-0.855522632598877
1720785183809727700,12.469727783203124,-0.32389020919799805,-2.572646379470825,-2.2162036895751953
1720785183819741400,12.479741455078125,-0.5716719627380371,-0.42760634422302246,0.09631109237670898
1720785183829755100,12.489755126953124,-0.20125102996826172,0.15894675254821777,0.26862573623657227
1720785183839769000,12.49976904296875,-0.08835315704345703,0.13377165794372559,0.3413710594177246
1720785183849782800,12.50978271484375,0.15667343139648438,0.2857329845428467,0.30178260803222656
1720785183859796500,12.51979638671875,0.3129405975341797,0.8781290054321289,0.057435035705566406
1720785183869810200,12.52981005859375,0.1112375259399414,1.0149296522140503,0.04865741729736328
1720785183879824000,12.539823974609375,-0.1649622917175293,0.6584742069244385,0.15181446075439453
1720785183889837800,12.549837890625,-0.3910818099975586,-0.20849037170410156,-0.02005481719970703
1720785183899851500,12.5598515625,-0.14836406707763672,0.1754906177520752,0.24577093124389648
