time,seconds_elapsed,z,y,x
1720787088548260000,0.159260009765625,-0.007589785382151604,-0.06471290439367294,0.17083674669265747
1720787088558240500,0.169240478515625,0.015845341607928276,0.03328853100538254,0.15059731900691986
1720787088568260600,0.179260498046875,0.040345702320337296,0.15152940154075623,0.09094426780939102
1720787088578318300,0.189318359375,0.08188978582620621,0.2953358590602875,-0.007057168986648321
1720787088588410400,0.199410400390625,0.16391272842884064,0.40398961305618286,-0.09760197252035141
1720787088598532600,0.20953271484375,0.31411057710647583,0.44553372263908386,-0.15618979930877686
1720787088608679200,0.21967919921875,0.5708317756652832,0.391206830739975,-0.2989310026168823
1720787088618843600,0.22984375,0.95644611120224,0.27829211950302124,-0.5311518311500549
1720787088629019600,0.24001953125,1.3793436288833618,0.15259462594985962,-0.6655043363571167
1720787088639200000,0.250199951171875,1.739525556564331,0.07376738637685776,-0.7560491561889648
1720787088649320700,0.26032080078125,1.994116187095642,0.09400681406259537,-0.679352343082428
1720787088659334400,0.27033447265625,2.0825304985046387,0.2623136341571808,-0.37988871335983276
1720787088669348400,0.280348388671875,1.9515068531036377,0.3379451632499695,0.01637795753777027
1720787088679362000,0.290362060546875,1.5903929471969604,0.2527265250682831,0.534081220626831
1720787088689375700,0.300375732421875,1.0459256172180176,0.15046416223049164,1.0837414264678955
1720787088699389400,0.310389404296875,0.44832995533943176,0.10359390825033188,1.6259450912475586
1720787088709403400,0.3204033203125,0.048867564648389816,-0.21597599983215332,2.2714762687683105
1720787088719417000,0.3304169921875,-0.3090507388114929,-0.45898228883743286,2.961747169494629
1720787088729430800,0.3404306640625,-0.6808170676231384,-0.7593780159950256,3.4602763652801514
1720787088739444500,0.350444580078125,-1.081344723701477,-1.4645622968673706,3.5518863201141357
1720787088749458200,0.360458251953125,-1.4190235137939453,-2.5809264183044434,3.3196656703948975
1720787088759472400,0.370472412109375,-1.673614263534546,-3.167869806289673,2.9361817836761475
1720787088769486000,0.380486083984375,-1.949509620666504,-2.849365234375,2.4270002841949463
1720787088779500000,0.3905,-2.2509706020355225,-2.170811653137207,1.7889257669448853
1720787088789513700,0.400513671875,-2.1668171882629395,-1.546585202217102,0.7386059761047363
1720787088799527400,0.41052734375,-1.658700942993164,-1.2057106494903564,-0.4256937503814697
1720787088809541400,0.420541259765625,-1.3838708400726318,-0.7785521745681763,-1.0127702951431274
1720787088819555000,0.43055517578125,-1.0025174617767334,-0.32036882638931274,-1.3728190660476685
1720787088829568800,0.44056884765625,-0.6659038066864014,-0.07003907114267349,-1.6391273736953735
1720787088839582500,0.45058251953125,-0.39213889837265015,0.025831900537014008,-1.7669552564620972
1720787088849596200,0.46059619140625,-0.21211452782154083,0.26657456159591675,-1.6923890113830566
1720787088859610000,0.470610107421875,-0.09706936031579971,0.31983622908592224,-1.407971739768982
1720787088869623800,0.480623779296875,-0.029959678649902344,-0.017842652276158333,-1.0447273254394531
1720787088879637500,0.490637451171875,-0.029959678649902344,-0.550592303276062,-0.655917227268219
1720787088889651200,0.500651123046875,-0.1300915777683258,-0.9830769300460815,-0.2254299372434616
1720787088899665000,0.510664794921875,-0.2802894413471222,-1.2089062929153442,0.20385897159576416
1720787088909678800,0.520678955078125,-0.4102478623390198,-1.264298439025879,0.5745600461959839
1720787088919692500,0.530692626953125,-0.5125102400779724,-1.3825392723083496,0.7876066565513611
1720787088929706200,0.540706298828125,-0.5892069935798645,-1.5593680143356323,0.7428668737411499
1720787088939720000,0.550719970703125,-0.5902722477912903,-1.7436532974243164,0.5457987785339355
1720787088949734000,0.56073388671875,-0.6637732982635498,-1.876807451248169,0.32316505908966064
1720787088959747600,0.57074755859375,-0.6595124006271362,-1.6467170715332031,0.06431344151496887
1720787088969761300,0.58076123046875,0.34180665016174316,-1.0405994653701782,0.013182258233428001
1720787088979775000,0.59077490234375,0.7849435806274414,-0.12649641931056976,-0.10505861043930054
1720787088989788700,0.60078857421875,0.48135218024253845,0.1664426624774933,-0.40012815594673157
1720787088999802600,0.610802734375,0.2821536064147949,0.11637670546770096,-0.6270228028297424
1720787089009816300,0.62081640625,0.2501966059207916,0.16857312619686127,-0.8540505766868591
1720787089019830000,0.630830078125,0.1884130984544754,0.2399437427520752,-1.1043803691864014
1720787089029843700,0.64084375,0.2001306563615799,0.3166405260562897,-1.3121007680892944
1720787089039857400,0.650857421875,0.35565468668937683,0.40398961305618286,-1.5507129430770874
1720787089049871400,0.660871337890625,0.6081148982048035,0.3230319023132324,-1.8191516399383545
1720787089059885000,0.670885009765625,0.8786841034889221,-0.012516488321125507,-2.0247416496276855
1720787089069898800,0.680898681640625,1.0459256172180176,-0.39613354206085205,-2.1003732681274414
1720787089079912400,0.690912353515625,1.05551278591156,-0.8765535950660706,-2.0588290691375732
1720787089089926400,0.700926513671875,1.004381537437439,-1.1844059228897095,-1.936327338218689
1720787089099940000,0.710940185546875,0.9979901909828186,-1.170557975769043,-1.7083674669265747
1720787089109954000,0.7209541015625,0.9756202697753906,-0.788139283657074,-1.3621667623519897
1720787089119967700,0.7309677734375,0.741269052028656,-0.23301972448825836,-0.9158340692520142
1720787089129981700,0.740981689453125,0.32369768619537354,0.0790935531258583,-0.42356327176094055
1720787089139995400,0.750995361328125,-0.07043853402137756,0.22290000319480896,0.06963960826396942
1720787089150009000,0.761009033203125,-0.18015754222869873,0.23461757600307465,0.4446016252040863
1720787089160023000,0.77102294921875,-0.043807707726955414,0.05033225938677788,0.6406044960021973
1720787089170036700,0.78103662109375,0.057389430701732635,-0.291607528924942,0.6810833811759949
1720787089180050700,0.79105078125,-0.026763979345560074,-0.6453980803489685,0.5543206334114075
1720787089190064400,0.801064453125,-0.10772168636322021,-0.8754884004592896,0.3061213493347168
1720787089200078000,0.811078125,-0.07363422960042953,-0.6720288991928101,0.15272778272628784
1720787089210092000,0.821092041015625,0.04673709720373154,-0.20319320261478424,0.1772281378507614
1720787089220105700,0.831105712890625,0.24060951173305511,0.11424624174833298,0.13355359435081482
1720787089230119700,0.84111962890625,0.34074142575263977,0.35072797536849976,-0.07416684925556183
1720787089240133400,0.85113330078125,0.297066867351532,0.5722964406013489,-0.3553883731365204
1720787089250147000,0.86114697265625,0.23528334498405457,0.6234276294708252,-0.6323489546775818
1720787089260161000,0.8711611328125,0.19480448961257935,0.625558078289032,-0.824224054813385
1720787089270174700,0.8811748046875,0.13408620655536652,0.5925358533859253,-0.9350082874298096
1720787089280188700,0.891188720703125,0.010519175790250301,0.24633513391017914,-0.9659000635147095
1720787089290202400,0.901202392578125,-0.0768299326300621,-0.18827994167804718,-0.8796161413192749
1720787089300216300,0.91121630859375,-0.05978620424866676,-0.6177020072937012,-0.7272878289222717
1720787089310230000,0.92122998046875,0.041410934180021286,-0.9170324802398682,-0.5833482146263123
1720787089320243700,0.93124365234375,0.1884130984544754,-0.8935973644256592,-0.5354127287864685
1720787089330257700,0.941257568359375,0.35565468668937683,-0.6038539409637451,-0.607848584651947
1720787089340271400,0.951271240234375,0.5069177746772766,-0.2170412242412567,-0.7272878289222717
1720787089350285300,0.961285400390625,0.5985277891159058,0.1983996480703354,-0.824224054813385
1720787089360299000,0.971299072265625,0.57296222448349,0.6607108116149902,-0.8806813955307007
1720787089370312700,0.981312744140625,0.49093925952911377,1.2742849588394165,-0.8838770985603333
1720787089380326700,0.99132666015625,0.5197005867958069,2.008230447769165,-0.8433982729911804
1720787089390340400,1.00134033203125,0.6326152682304382,2.855090856552124,-1.0053136348724365
1720787089400354300,1.011354248046875,0.6262238621711731,3.922454357147217,-1.3973194360733032
1720787089410368000,1.021367919921875,0.6794854998588562,4.388094425201416,-2.01835036277771
1720787089420382000,1.0313818359375,0.8275529146194458,3.0681374073028564,-2.6617510318756104
1720787089430395600,1.041395751953125,1.1535142660140991,1.599181056022644,-2.7554914951324463
1720787089440409300,1.051409423828125,1.5050411224365234,1.3179595470428467,-2.545640707015991
1720787089450423300,1.06142333984375,1.7927871942520142,1.7057043313980103,-2.451900005340576
1720787089460437000,1.07143701171875,1.9323327541351318,2.2084944248199463,-2.5775976181030273
1720787089470451000,1.081450927734375,1.8588316440582275,2.4641501903533936,-2.821536064147949
1720787089480465000,1.09146484375,1.6713505983352661,2.6228699684143066,-3.028191089630127
1720787089490478600,1.101478515625,1.3090382814407349,3.2279224395751953,-3.191171884536743
1720787089500492500,1.111492431640625,1.092795968055725,4.425377368927002,-3.472393274307251
1720787089510506200,1.12150634765625,0.7689650654792786,5.465044975280762,-3.902747392654419
1720787089520520200,1.131520263671875,-0.08002562820911407,3.169334650039673,-3.5309810638427734
1720787089530534100,1.1415341796875,-0.4848141670227051,0.34220612049102783,-2.0332634449005127
1720787089540547800,1.1515478515625,-0.4837489426136017,0.3251623809337616,-0.5737611651420593
1720787089550561800,1.161561767578125,-0.237680122256279,0.475360244512558,-0.008122402243316174
1720787089560575700,1.17157568359375,0.040345702320337296,-0.04234301298856735,0.31251272559165955
1720787089570589400,1.18158935546875,0.4355471432209015,-0.47283029556274414,0.4254274368286133
1720787089580603400,1.191603271484375,0.8041177988052368,-1.2280805110931396,0.17616291344165802
1720787089590617000,1.2016171875,1.385735034942627,-1.0906654596328735,-0.03581846132874489
1720787089600631000,1.211631103515625,2.2337937355041504,-0.7444647550582886,0.1995980441570282
1720787089610645000,1.22164501953125,2.9474997520446777,-0.5015916228294373,0.6427350044250488
1720787089620658700,1.23165869140625,3.35867977142334,-0.13927921652793884,1.1380683183670044
1720787089630672600,1.241672607421875,3.470529079437256,0.2495308369398117,1.555639624595642
1720787089640686600,1.2516865234375,3.3735930919647217,0.1643121987581253,1.639793038368225
1720787089650700300,1.2617001953125,3.1115455627441406,-0.2607157826423645,1.2616353034973145
1720787089660714200,1.27171435546875,2.7855844497680664,-0.4877435564994812,0.5489944815635681
1720787089670728000,1.28172802734375,2.390383005142212,-0.10412652790546417,-0.35858407616615295
1720787089680742000,1.291741943359375,1.8620272874832153,0.4220985770225525,-1.370688557624817
1720787089690755800,1.301755859375,1.3356690406799316,1.2412627935409546,-2.1408519744873047
1720787089700769500,1.31176953125,0.979881227016449,2.2319295406341553,-2.4987704753875732
1720787089710783500,1.321783447265625,0.8360747694969177,2.8518950939178467,-2.6841208934783936
1720787089720797200,1.331797119140625,0.8094439506530762,3.09796404838562,-2.8002312183380127
1720787089730811100,1.34181103515625,0.7093120217323303,3.10329008102417,-2.7501654624938965
1720787089740824800,1.351824951171875,0.5473966002464294,2.986114501953125,-2.4359216690063477
1720787089750838800,1.3618388671875,0.5516575574874878,2.729393243789673,-1.9331315755844116
1720787089760852500,1.3718525390625,0.6943987607955933,2.293713092803955,-1.4633638858795166
1720787089770866400,1.381866455078125,0.7242252826690674,1.8899897336959839,-1.0788147449493408
1720787089780880100,1.391880126953125,0.6485937833786011,1.575745940208435,-0.8082455396652222
1720787089790894000,1.40189404296875,0.5250267386436462,1.162435531616211,-0.7134398221969604
1720787089800907800,1.41190771484375,0.2938711643218994,0.6937330365180969,-0.6836133003234863
1720787089810921500,1.42192138671875,0.07762885838747025,0.43807709217071533,-0.6452649235725403
1720787089820935400,1.431935302734375,-0.03528584539890289,0.44659894704818726,-0.6291532516479492
1720787089830949000,1.44194921875,-0.1194392517209053,0.471099317073822,-0.6431344151496887
1720787089840963000,1.451963134765625,-0.21211452782154083,0.3752283453941345,-0.6420692205429077
1720787089850976800,1.461976806640625,-0.2664414048194885,0.2942706346511841,-0.6185009479522705
1720787089860990500,1.471990478515625,-0.23235395550727844,0.38588064908981323,-0.6633738875389099
1720787089871004400,1.48200439453125,-0.14713531732559204,0.46896883845329285,-0.7603100538253784
1720787089881018000,1.49201806640625,-0.08109086751937866,0.36031508445739746,-0.7837451696395874
1720787089891032000,1.502031982421875,-0.066177599132061,0.132355198264122,-0.7155702710151672
1720787089901045800,1.512045654296875,-0.07256899774074554,-0.026364516466856003,-0.6376751065254211
1720787089911059700,1.522059814453125,-0.06298190355300903,0.08122401684522629,-0.6399387121200562
1720787089921073400,1.532073486328125,-0.010785484686493874,0.5573831796646118,-0.7975932359695435
1720787089931087000,1.542087158203125,0.03928046673536301,1.1187609434127808,-1.07135808467865
1720787089941101000,1.55210107421875,0.061650361865758896,1.599181056022644,-1.3525795936584473
1720787089951114800,1.56211474609375,0.08934641629457474,1.8601632118225098,-1.4740161895751953
1720787089961128700,1.572128662109375,0.1362166702747345,1.7557703256607056,-1.3717538118362427
1720787089971142400,1.582142333984375,0.10212921351194382,2.055100917816162,-0.7528534531593323
1720787089981156000,1.592156005859375,0.09680305421352386,1.7717487812042236,-0.4491288661956787
1720787089991170000,1.602170166015625,0.08188978582620621,1.6492470502853394,-0.36817115545272827
1720787090001183700,1.612183837890625,-0.0033288532868027687,1.8995767831802368,-0.289343923330307
1720787090011197700,1.62219775390625,-0.050199106335639954,2.420475721359253,-0.5098471641540527
1720787090021211400,1.63221142578125,-0.13222205638885498,2.977592706680298,-0.7698971629142761
1720787090031225300,1.642225341796875,-0.2163754552602768,3.108616352081299,-0.9382039904594421
1720787090041239000,1.652239013671875,-0.3314206302165985,2.8955695629119873,-0.9669652581214905
1720787090051252700,1.662252685546875,-0.40385645627975464,2.612217664718628,-0.9158340692520142
1720787090061266700,1.6722666015625,-0.40385645627975464,2.247907876968384,-0.9467258453369141
1720787090071280400,1.6822802734375,-0.3452686667442322,1.7547050714492798,-1.014900803565979
1720787090081294300,1.69229443359375,-0.25259336829185486,1.1517832279205322,-1.0425968170166016
1720787090091308000,1.70230810546875,-0.15672241151332855,0.6553846001625061,-0.9967917799949646
1720787090101321700,1.71232177734375,-0.08428656309843063,0.21650861203670502,-1.0266183614730835
1720787090111335700,1.722335693359375,-0.08641702681779861,-0.15845340490341187,-1.1959903240203857
1720787090121349400,1.732349365234375,-0.13328728079795837,-0.6475285291671753,-1.3919932842254639
1720787090131363300,1.74236328125,0.006258244160562754,-1.4006482362747192,-1.2194255590438843
1720787090141377000,1.752376953125,0.31411057710647583,-2.0227444171905518,-0.8902685046195984
1720787090151390700,1.762390625,0.503722071647644,-2.231529951095581,-0.7368749380111694
1720787090161404700,1.77240478515625,0.5069177746772766,-1.8405895233154297,-0.7422010898590088
1720787090171418400,1.78241845703125,0.335415244102478,-1.0437952280044556,-0.88600754737854
1720787090181432300,1.792432373046875,0.014780107885599136,-0.32036882638931274,-0.9509868025779724
1720787090191446000,1.802446044921875,-0.32396399974823,-0.6752246022224426,-0.5045210123062134
1720787090201460000,1.8124599609375,-0.5668371319770813,-0.994794487953186,0.09733566641807556
1720787090211473700,1.8224736328125,-0.576424241065979,-0.5974625945091248,0.18575000762939453
1720787090221487400,1.8324873046875,-0.6200987696647644,0.06631075590848923,0.02489982172846794
1720787090231501300,1.842501220703125,-0.8555153012275696,0.5701659917831421,0.0003994623839389533
1720787090241515000,1.852514892578125,-1.0898665189743042,0.9195623993873596,0.14953207969665527
1720787090251529000,1.862529052734375,-1.1505848169326782,1.0729559659957886,0.40518802404403687
1720787090261542700,1.872542724609375,-0.8874722719192505,1.023955225944519,0.5521901845932007
1720787090271556400,1.882556396484375,-0.4304873049259186,0.8673660159111023,0.5671034455299377
1720787090281570300,1.8925703125,0.0936073511838913,0.8673660159111023,0.4201012849807739
1720787090291584000,1.902583984375,0.5260919332504272,1.1123695373535156,0.1463363915681839
1720787090301598000,1.912597900390625,0.7178338766098022,1.2540456056594849,0.04407401755452156
1720787090311611600,1.922611572265625,0.8126396536827087,0.7789516448974609,0.1250317245721817
1720787090321625600,1.93262548828125,0.8541837334632874,0.12489857524633408,0.28055575489997864
1720787090331639300,1.942639404296875,0.848857581615448,-0.3129121959209442,0.36683961749076843
1720787090341653000,1.952653076171875,0.7774869799613953,-0.3780245780944824,0.3721657991409302
1720787090351667000,1.9626669921875,0.596397340297699,-0.1850842386484146,0.32209983468055725
1720787090361680600,1.9726806640625,0.39613354206085205,-0.06151720881462097,0.346600204706192
1720787090371694600,1.982694580078125,0.21823962032794952,-0.20106273889541626,0.5489944815635681
1720787090381708300,1.992708251953125,0.1564560979604721,-0.5857450366020203,0.7524539828300476
1720787090391722000,2.002721923828125,0.11065108329057693,-0.8222267627716064,0.7737586498260498
1720787090401736000,2.01273583984375,-0.022503048181533813,-0.6507242321968079,0.5692338943481445
1720787090411749600,2.02274951171875,-0.13754820823669434,-0.22236739099025726,0.34553495049476624
1720787090421763600,2.032763671875,-0.2568543255329132,0.07057169079780579,0.2219679355621338
1720787090431777300,2.04277734375,-0.40066078305244446,0.08228924870491028,0.21664176881313324
1720787090441791000,2.052791015625,-0.5828156471252441,0.008788172155618668,0.29227331280708313
1720787090451805000,2.062804931640625,-1.1623023748397827,0.1749645173549652,0.5298202633857727
1720787090461818600,2.072818603515625,-3.000894546508789,0.4497946500778198,0.6395393013954163
1720787090471832600,2.08283251953125,-3.968259334564209,0.8716269135475159,0.7151708006858826
1720787090481846300,2.09284619140625,-3.9054105281829834,1.0868040323257446,1.2690919637680054
1720787090491860200,2.102860107421875,-3.2172701358795166,0.770429790019989,1.4672253131866455
1720787090501874000,2.1128740234375,-2.2520358562469482,0.19094301760196686,1.146590232849121
1720787090511887600,2.1228876953125,-1.5372644662857056,0.13448566198349,0.5383421182632446
1720787090521901600,2.132901611328125,-1.0057131052017212,-0.5069177746772766,0.2517944574356079
1720787090531915300,2.142915283203125,-0.9513862729072571,-1.36443030834198,0.23794642090797424
1720787090541929200,2.15292919921875,-1.014235019683838,-1.9812002182006836,0.3615134656429291
1720787090551943000,2.16294287109375,-1.0163654088974,-1.9598956108093262,0.4861457347869873
1720787090561956600,2.17295654296875,-1.0121045112609863,-1.1748188734054565,0.6224955320358276
1720787090571970600,2.182970458984375,-1.0376701354980469,-0.12010502070188522,0.6544525623321533
1720787090581984500,2.192984619140625,-1.2411296367645264,0.6692326664924622,0.6629744172096252
1720787090591998200,2.202998291015625,-1.3423267602920532,1.1379351615905762,0.9441959261894226
1720787090602012200,2.21301220703125,-1.2368687391281128,1.4170262813568115,1.224352240562439
1720787090612026000,2.223026123046875,-1.0579094886779785,1.5256799459457397,1.4842690229415894
1720787090622039800,2.233039794921875,-0.9876041412353516,1.3318076133728027,1.7644253969192505
1720787090632053800,2.2430537109375,-1.1218235492706299,0.900388240814209,1.9636238813400269
1720787090642067500,2.2530673828125,-0.9961260557174683,0.6330147385597229,1.9146232604980469
1720787090652081400,2.263081298828125,-0.8022536039352417,0.9738892912864685,1.5801399946212769
1720787090662095400,2.273095458984375,-0.6925346255302429,1.039933681488037,1.1252855062484741
1720787090672109000,2.283109130859375,-0.554054319858551,-0.6667027473449707,1.140198826789856
1720787090682123000,2.293123046875,-0.6392729878425598,-1.7031744718551636,0.9953271150588989
1720787090692137000,2.303136962890625,-0.5178363919258118,-1.2653636932373047,0.5436683297157288
1720787090702150700,2.313150634765625,-0.24300628900527954,-0.2830856740474701,0.02703028731048107
1720787090712164600,2.32316455078125,-0.015046416781842709,-0.12862688302993774,-0.3223661482334137
1720787090722178300,2.33317822265625,0.10852061212062836,-0.5548532605171204,-0.37030163407325745
1720787090732192300,2.343192138671875,0.2533923089504242,-1.3324733972549438,-0.21158191561698914
1720787090742206200,2.353206298828125,0.2501966059207916,-1.4411271810531616,-0.12103710323572159
1720787090752220000,2.363219970703125,0.2832188308238983,-1.072556495666504,-0.11571093648672104
1720787090762233900,2.37323388671875,0.048867564648389816,0.5595136284828186,-0.0773625448346138
1720787090772247600,2.38324755859375,-0.13541774451732635,2.659087896347046,0.004660394508391619
1720787090782261500,2.393261474609375,0.534613847732544,2.5578908920288086,0.03661738336086273
1720787090792275500,2.403275390625,0.8914669156074524,1.360568881034851,0.05259587988257408
1720787090802289200,2.4132890625,0.8829450011253357,1.1443265676498413,0.23368549346923828
1720787090812303000,2.42330322265625,0.9223586320877075,1.099586844444275,0.30186042189598083
1720787090822317000,2.433317138671875,0.6986597180366516,0.6351451873779297,0.25925108790397644
1720787090832330800,2.443330810546875,0.2938711643218994,0.42422905564308167,0.18255430459976196
1720787090842344700,2.4533447265625,-0.010785484686493874,0.4125114977359772,0.03235645219683647
1720787090852358400,2.4633583984375,-0.06937330216169357,0.1983996480703354,-0.10399337112903595
1720787090862372400,2.473372314453125,-0.19294032454490662,-0.1318225860595703,-0.18069015443325043
1720787090872386300,2.48338623046875,-0.2930722236633301,-0.5335485935211182,-0.21158191561698914
1720787090882400000,2.49339990234375,-0.11624355614185333,-0.3363473415374756,-0.17003782093524933
1720787090892414000,2.5034140625,-0.009720250964164734,-0.00399462366476655,-0.10079767554998398
1720787090902427600,2.513427734375,-0.07043853402137756,0.19307348132133484,0.008921326138079166
1720787090912441600,2.523441650390625,-0.057655736804008484,0.07057169079780579,0.05472634732723236
1720787090922455600,2.53345556640625,-0.07469946891069412,-0.3940030634403229,-0.02729659713804722
1720787090932469200,2.54346923828125,-0.08002562820911407,-0.6134410500526428,-0.14660269021987915
1720787090942483200,2.553483154296875,-0.057655736804008484,-0.404655396938324,-0.18069015443325043
1720787090952497200,2.5634970703125,0.005193010903894901,-0.14993155002593994,-0.11784140020608902
1720787090962510800,2.5735107421875,0.08615072071552277,-0.03808208182454109,0.08348763734102249
1720787090972524800,2.58352490234375,0.1585865616798401,0.22396524250507355,0.477623850107193
1720787090982538500,2.59353857421875,0.06591129302978516,0.8929315805435181,0.5745600461959839
1720787090992552400,2.603552490234375,0.035019535571336746,1.1059781312942505,0.47229769825935364
1720787091002566400,2.61356640625,0.060585130006074905,0.7395380139350891,0.39560091495513916
1720787091012580000,2.623580078125,-0.0011983871227130294,0.15898603200912476,0.46164536476135254
1720787091022594000,2.633593994140625,-0.1940055638551712,-0.011451254598796368,0.6523220539093018
1720787091032608000,2.64360791015625,-0.22170162200927734,0.14833369851112366,0.7215622067451477
1720787091042621700,2.65362158203125,-0.25152814388275146,0.25698745250701904,0.6438001990318298
1720787091052635400,2.663635498046875,-0.37935611605644226,0.20159535109996796,0.4786891043186188
1720787091062649300,2.6736494140625,-0.4794880151748657,0.10785484313964844,0.3497959077358246
1720787091072663000,2.6836630859375,-0.5199668407440186,-0.09986559301614761,0.31144750118255615
1720787091082677000,2.693677001953125,-0.3750951886177063,0.12915951013565063,0.3721657991409302
1720787091092690700,2.703690673828125,-0.1418091505765915,0.23781327903270721,0.39347043633461
1720787091102704400,2.713704345703125,0.07869409024715424,0.25698745250701904,0.2752295732498169
1720787091112718300,2.72371826171875,0.3364804685115814,0.2399437427520752,0.20385897159576416
1720787091122732000,2.73373193359375,0.6272891163825989,-0.1126483902335167,0.20172850787639618
1720787091132746000,2.74374609375,1.1066439151763916,-0.08708280324935913,0.5947995185852051
1720787091142759700,2.753759765625,1.1428618431091309,0.014114337973296642,0.7790848016738892
1720787091152773400,2.7637734375,0.9074453711509705,0.8226261734962463,0.94100022315979
1720787091162787300,2.773787353515625,0.6890726089477539,1.1965229511260986,0.9740224480628967
1720787091172801000,2.783801025390625,0.3886769115924835,1.6449861526489258,0.8525858521461487
1720787091182815000,2.79381494140625,0.3940030634403229,1.6375294923782349,0.9239565134048462
1720787091192828700,2.80382861328125,0.2832188308238983,0.5126433968544006,1.0411320924758911
1720787091202842600,2.813842529296875,-0.1620485782623291,-1.1652318239212036,1.062436819076538
1720787091212856300,2.823856201171875,-0.6520557403564453,-1.5668246746063232,0.9814790487289429
1720787091222870000,2.8338701171875,-0.9279510974884033,-1.1577751636505127,0.7631062865257263
1720787091232884000,2.843884033203125,-0.9130378365516663,-0.5282224416732788,0.7684324979782104
1720787091242897700,2.853897705078125,-0.6573819518089294,-0.7966611385345459,0.9569787383079529
1720787091252911600,2.86391162109375,-0.29520270228385925,-1.2994511127471924,1.0656324625015259
1720787091262925300,2.87392529296875,-0.1524614691734314,-1.4187572002410889,1.1497858762741089
1720787091272939000,2.88393896484375,-0.0033288532868027687,-1.2792117595672607,1.0571106672286987
1720787091282953000,2.893952880859375,0.10532491654157639,-1.4400619268417358,0.7971937656402588
1720787091292966700,2.903966552734375,0.24806614220142365,-1.3505823612213135,0.350861132144928
1720787091302980600,2.913980712890625,0.25658801198005676,-0.9415328502655029,-0.10612384229898453
1720787091312994300,2.923994384765625,0.06910699605941772,-0.4547213613986969,-0.3766930401325226
1720787091323008300,2.93400830078125,-0.08428656309843063,0.2388785034418106,-0.42143282294273376
1720787091333022000,2.94402197265625,-0.03954677656292915,0.4497946500778198,-0.2360822707414627
1720787091343035600,2.95403564453125,0.07975932210683823,0.19200825691223145,-0.02303566411137581
1720787091353049600,2.964049560546875,0.2501966059207916,-0.19999749958515167,0.08561810106039047
1720787091363063300,2.974063232421875,0.40572062134742737,-0.2926727831363678,0.15485824644565582
1720787091373077200,2.9840771484375,0.4653736650943756,-0.23621542751789093,0.2091851383447647
1720787091383091000,2.994091064453125,0.4760259985923767,-0.3065207898616791,0.1676410436630249
1720787091393104600,3.004104736328125,0.4227643609046936,-0.19999749958515167,0.13887976109981537
1720787091403118600,3.01411865234375,0.4557865858078003,-0.12436595559120178,0.12396649271249771
1720787091413132300,3.02413232421875,0.5079829692840576,-0.16271434724330902,0.11864032596349716
1720787091423146200,3.034146240234375,0.48241740465164185,-0.24793298542499542,0.14420592784881592
1720787091433160000,3.044159912109375,0.3194367587566376,0.10998530685901642,0.26883819699287415
1720787091443174000,3.054173828125,0.05312849581241608,0.44553372263908386,0.2720338702201843
1720787091453187600,3.0641875,-0.10133028775453568,0.4189028739929199,0.2113156020641327
1720787091463201500,3.074201416015625,-0.1716356724500656,0.2846835255622864,0.13355359435081482
1720787091473215200,3.08421533203125,-0.23341917991638184,0.25379177927970886,0.03129122033715248
1720787091483229200,3.094229248046875,-0.27176758646965027,0.16005125641822815,-0.02516612969338894
1720787091493243000,3.104242919921875,-0.2557890713214874,0.07376738637685776,-0.04327509179711342
1720787091503256800,3.1142568359375,-0.21744069457054138,0.07376738637685776,-0.05818835273385048
1720787091513270800,3.124270751953125,-0.2483324557542801,0.10359390825033188,-0.08055824786424637
1720787091523284500,3.134284423828125,-0.26537618041038513,0.111050546169281,-0.14340700209140778
1720787091533298400,3.14429833984375,-0.2366148829460144,0.13981182873249054,-0.1529940962791443
1720787091543312100,3.15431201171875,-0.2483324557542801,0.10892007499933243,-0.03901416063308716
1720787091553326000,3.164326171875,-0.21104928851127625,-0.04234301298856735,0.12822742760181427
1720787091563340000,3.174340087890625,-0.15033100545406342,-0.21491076052188873,0.30186042189598083
1720787091573353700,3.184353759765625,-0.061916667968034744,-0.8776188492774963,0.7386059761047363
1720787091583367700,3.19436767578125,-0.13754820823669434,-0.07216953486204147,0.5926690101623535
1720787091593381600,3.204381591796875,-0.03848154470324516,0.14194230735301971,0.4456668794155121
1720787091603395300,3.214395263671875,0.045671865344047546,0.15685556828975677,0.3806876540184021
1720787091613409300,3.2244091796875,0.14473854005336761,0.1749645173549652,0.3796224296092987
1720787091623423000,3.234423095703125,0.19373925030231476,0.17922545969486237,0.3679048418998718
1720787091633437000,3.24443701171875,0.2310224175453186,0.14620323479175568,0.4105141758918762
1720787091643451000,3.254450927734375,0.22782671451568604,0.15259462594985962,0.3359478712081909
1720787091653464600,3.264464599609375,0.3567199110984802,0.3326190114021301,0.18148908019065857
1720787091663478500,3.274478515625,0.21397867798805237,-0.015712186694145203,0.2315550297498703
1720787091673492500,3.284492431640625,0.18521739542484283,-0.24793298542499542,0.3391435742378235
1720787091683506200,3.294506103515625,0.17030413448810577,-0.1978670358657837,0.346600204706192
1720787091693520100,3.30452001953125,0.09786828607320786,-0.22556309401988983,0.2741643488407135
1720787091703533800,3.314533935546875,-0.022503048181533813,-0.381220281124115,0.21557652950286865
1720787091713547800,3.3245478515625,-0.10665645450353622,-0.400394469499588,0.1569887101650238
1720787091723561700,3.334561767578125,-0.19933173060417175,-0.381220281124115,0.10692276805639267
1720787091733575400,3.344575439453125,-0.2909417748451233,-0.3438039720058441,0.04620448127388954
1720787091743589400,3.35458935546875,-0.3015941083431244,-0.3673722445964813,-0.12636326253414154
1720787091753603000,3.36460302734375,-0.30585503578186035,-0.3620460629463196,-0.28295251727104187
1720787091763617000,3.374616943359375,-0.319703072309494,-0.011451254598796368,-0.3862801194190979
1720787091773631000,3.384630859375,-0.2930722236633301,0.2505960762500763,-0.4704335331916809
1720787091783644700,3.394644775390625,-0.22276686131954193,0.45725128054618835,-0.508781909942627
1720787091793658600,3.40465869140625,-0.15352670848369598,0.5829487442970276,-0.5141080617904663
1720787091803672600,3.414672607421875,-0.2579195499420166,0.5200999975204468,-0.5513912439346313
1720787091813686300,3.424686279296875,-0.24407151341438293,0.6138405203819275,-0.6399387121200562
1720787091823700200,3.4347001953125,-0.0981345921754837,0.6287537813186646,-0.5950657725334167
1720787091833714000,3.4447138671875,0.19267402589321136,0.2942706346511841,-0.3010614812374115
1720787091843728000,3.454727783203125,0.1777607649564743,-0.05512581020593643,-0.03368799388408661
1720787091853741800,3.464741943359375,0.022236740216612816,-0.17762760818004608,0.10266183316707611
1720787091863755500,3.474755615234375,-0.008655018173158169,-0.11690932512283325,0.12183602899312973
1720787091873769500,3.48476953125,-0.022503048181533813,-0.07430000603199005,0.09733566641807556
1720787091883783200,3.494783203125,-0.025698747485876083,-0.019973119720816612,0.06218297779560089
1720787091893797000,3.504797119140625,-0.024633513763546944,0.03541899845004082,0.03022598661482334
1720787091903811000,3.51481103515625,-0.024633513763546944,0.0695064514875412,0.009986559860408306
1720787091913824800,3.52482470703125,-0.026763979345560074,0.07696308940649033,0.0003994623839389533
1720787091923838700,3.534838623046875,-0.025698747485876083,0.07163692265748978,0.00359516148455441
1720787091933852700,3.544852783203125,-0.017176883295178413,0.06631075590848923,0.006790860556066036
1720787091943866400,3.554866455078125,-0.0033288532868027687,0.05991935729980469,0.0025299284607172012
1720787091953880300,3.56488037109375,0.010519175790250301,0.0482017956674099,-0.010252867825329304
1720787091963894000,3.57489404296875,0.019041040912270546,0.0375494658946991,-0.02090519852936268
1720787091973908000,3.584907958984375,0.021171506494283676,0.03435376659035683,-0.03155753016471863
1720787091983922000,3.594921875,0.017975807189941406,0.0482017956674099,-0.03581846132874489
1720787091993935600,3.604935546875,0.008388710208237171,0.07057169079780579,-0.03368799388408661
1720787092003949600,3.614949462890625,-0.006524552125483751,0.08761541545391083,-0.02836182899773121
1720787092013963500,3.624963623046875,-0.025698747485876083,0.09507204592227936,-0.02090519852936268
1720787092023977200,3.634977294921875,-0.040612008422613144,0.10252867639064789,-0.01983996480703354
1720787092033991200,3.6449912109375,-0.047003407031297684,0.10572437942028046,-0.02623136341571808
1720787092044004900,3.6550048828125,-0.04274247586727142,0.10039821267127991,-0.03581846132874489
1720787092054018800,3.665018798828125,-0.028894444927573204,0.09187635034322739,-0.04434032365679741
1720787092064032800,3.67503271484375,-0.010785484686493874,0.08228924870491028,-0.04860125854611397
1720787092074046500,3.68504638671875,0.006258244160562754,0.0790935531258583,-0.0454055592417717
1720787092084060400,3.695060302734375,0.015845341607928276,0.0790935531258583,-0.03581846132874489
1720787092094074000,3.70507421875,0.017975807189941406,0.0695064514875412,-0.01770949922502041
1720787092104088000,3.715088134765625,0.010519175790250301,0.05246272683143616,0.004660394508391619
1720787092114102000,3.72510205078125,-0.0033288532868027687,0.024766668677330017,0.02703028731048107
1720787092124115700,3.73511572265625,-0.027829213067889214,-0.010386021807789803,0.04087831825017929
1720787092134129700,3.745129638671875,-0.05978620424866676,-0.04340824484825134,0.04833494871854782
1720787092144143600,3.7551435546875,-0.09174319356679916,-0.06684337556362152,0.04833494871854782
1720787092154157300,3.7651572265625,-0.1194392517209053,-0.08388710021972656,0.04620448127388954
1720787092164171300,3.775171142578125,-0.13541774451732635,-0.08601756393909454,0.04087831825017929
1720787092174185000,3.78518505859375,-0.1396786868572235,-0.07003907114267349,0.03448691964149475
1720787092184199000,3.795198974609375,-0.1407439112663269,-0.04553871229290962,0.03022598661482334
1720787092194212900,3.805212890625,-0.13861344754695892,-0.024234050884842873,0.0238345880061388
1720787092204226600,3.8152265625,-0.12796111404895782,-0.013581721112132072,0.01637795753777027
1720787092214240300,3.825240234375,-0.11624355614185333,-0.00719032296910882,0.009986559860408306
1720787092224254200,3.835254150390625,-0.0991998240351677,-0.011451254598796368,0.0014646954368799925
1720787092234268000,3.845267822265625,-0.08428656309843063,-0.012516488321125507,-0.007057168986648321
1720787092244281900,3.85528173828125,-0.07150376588106155,-0.022103585302829742,-0.015579032711684704
1720787092254295600,3.865295654296875,-0.06511236727237701,-0.03488638252019882,-0.02090519852936268
1720787092264309500,3.8753095703125,-0.06511236727237701,-0.0476691760122776,-0.02303566411137581
1720787092274323200,3.8853232421875,-0.07043853402137756,-0.05512581020593643,-0.01877473294734955
1720787092284337000,3.8953369140625,-0.08109086751937866,-0.05406057462096214,-0.012383334338665009
1720787092294350800,3.905350830078125,-0.09280842542648315,-0.04447348043322563,-0.004926702938973904
1720787092304364500,3.915364501953125,-0.10665645450353622,-0.03382114693522453,0.0025299284607172012
1720787092314378500,3.92537841796875,-0.11837401986122131,-0.030625449493527412,0.011051792651414871
1720787092324392200,3.93539208984375,-0.12583065032958984,-0.03169068321585655,0.01637795753777027
1720787092334406000,3.945406005859375,-0.12796111404895782,-0.03914731368422508,0.015312724746763706
1720787092344419800,3.955419921875,-0.1300915777683258,-0.04340824484825134,0.007856093347072601
1720787092354433500,3.96543359375,-0.12796111404895782,-0.0476691760122776,-0.0027962366584688425
1720787092364447500,3.975447509765625,-0.12476541846990585,-0.0583215095102787,-0.013448567129671574
1720787092374461200,3.985461181640625,-0.12263495475053787,-0.0689738392829895,-0.02090519852936268
1720787092384475100,3.99547509765625,-0.1194392517209053,-0.07323476672172546,-0.02516612969338894
1720787092394488800,4.00548876953125,-0.11624355614185333,-0.07003907114267349,-0.02836182899773121
1720787092404502500,4.01550244140625,-0.11730878800153732,-0.06577813625335693,-0.02729659713804722
1720787092414516500,4.0255166015625,-0.11624355614185333,-0.06790860742330551,-0.02516612969338894
1720787092424530200,4.0355302734375,-0.11624355614185333,-0.06790860742330551,-0.02090519852936268
1720787092434544000,4.045544189453125,-0.11517832428216934,-0.07323476672172546,-0.01664426550269127
1720787092444557800,4.055557861328125,-0.11304785311222076,-0.07856093347072601,-0.010252867825329304
1720787092454571500,4.065571533203125,-0.1087869256734848,-0.08708280324935913,-0.005991935729980469
1720787092464585500,4.07558544921875,-0.10452599078416824,-0.0902784988284111,-0.000665770610794425
1720787092474599200,4.08559912109375,-0.10346075892448425,-0.09134373068809509,0.004660394508391619
1720787092484613000,4.095613037109375,-0.10239552706480026,-0.07643046975135803,0.009986559860408306
1720787092494626800,4.105626708984375,-0.10239552706480026,-0.05512581020593643,0.012117025442421436
1720787092504640500,4.115640625,-0.10346075892448425,-0.03595161437988281,0.013182258233428001
1720787092514654500,4.125654541015625,-0.10239552706480026,-0.022103585302829742,0.012117025442421436
1720787092524668200,4.135668212890625,-0.10133028775453568,-0.011451254598796368,0.011051792651414871
1720787092534682000,4.14568212890625,-0.10133028775453568,-0.00719032296910882,0.009986559860408306
1720787092544696000,4.155696044921875,-0.09600412845611572,-0.008255556225776672,0.007856093347072601
1720787092554709800,4.165709716796875,-0.08641702681779861,-0.008255556225776672,0.004660394508391619
1720787092564723700,4.1757236328125,-0.06937330216169357,-0.017842652276158333,0.0025299284607172012
1720787092574737400,4.1857373046875,-0.04913387447595596,-0.026364516466856003,0.0014646954368799925
1720787092584751400,4.19575146484375,-0.031024912372231483,-0.03169068321585655,0.007856093347072601
1720787092594765300,4.205765380859375,-0.022503048181533813,-0.023168819025158882,0.012117025442421436
1720787092604779000,4.215779052734375,-0.015046416781842709,-0.019973119720816612,0.015312724746763706
1720787092614793000,4.22579296875,-0.013981183059513569,-0.015712186694145203,0.01637795753777027
1720787092624806700,4.235806640625,-0.013981183059513569,-0.021038351580500603,0.01637795753777027
1720787092634820600,4.245820556640625,-0.016111649572849274,-0.028494983911514282,0.01744319126009941
1720787092644834600,4.25583447265625,-0.019307348877191544,-0.029560215771198273,0.0185084231197834
1720787092654848300,4.26584814453125,-0.024633513763546944,-0.025299284607172012,0.008921326138079166
1720787092664862200,4.2758623046875,-0.031024912372231483,-0.016777420416474342,-0.011318100616335869
1720787092674876200,4.285876220703125,-0.033155377954244614,-0.025299284607172012,-0.03901416063308716
1720787092684889900,4.295889892578125,-0.033155377954244614,-0.03488638252019882,-0.06244928762316704
1720787092694903800,4.30590380859375,-0.03528584539890289,-0.04447348043322563,-0.07097115367650986
1720787092704917500,4.31591748046875,-0.033155377954244614,-0.030625449493527412,-0.0667102187871933
1720787092714931500,4.325931396484375,-0.027829213067889214,0.005592473316937685,-0.05499265342950821
1720787092724945400,4.3359453125,-0.022503048181533813,0.0375494658946991,-0.03794892504811287
1720787092734959000,4.345958984375,-0.021437814459204674,0.04713656008243561,-0.01664426550269127
1720787092744973000,4.35597314453125,-0.025698747485876083,0.03541899845004082,0.006790860556066036
1720787092754987000,4.365987060546875,-0.031024912372231483,0.009853405877947807,0.02489982172846794
1720787092765000700,4.376000732421875,-0.029959678649902344,-0.011451254598796368,0.03342168778181076
1720787092775014700,4.3860146484375,-0.022503048181533813,-0.021038351580500603,0.03022598661482334
1720787092785028400,4.3960283203125,-0.012915950268507004,-0.025299284607172012,0.01744319126009941
1720787092795042300,4.406042236328125,-0.005459319334477186,-0.026364516466856003,0.00359516148455441
1720787092805056300,4.41605615234375,0.0009320789249613881,-0.018907885998487473,-0.009187635034322739
1720787092815070000,4.426070068359375,0.005193010903894901,-0.002929390873759985,-0.02410089783370495
1720787092825084000,4.436083984375,0.0030625448562204838,0.005592473316937685,-0.0347532257437706
1720787092835097600,4.44609765625,-0.005459319334477186,0.010918638668954372,-0.04114462435245514
1720787092845111600,4.456111572265625,-0.019307348877191544,0.010918638668954372,-0.04114462435245514
1720787092855125500,4.46612548828125,-0.029959678649902344,0.005592473316937685,-0.03368799388408661
1720787092865139200,4.47613916015625,-0.036351077258586884,-0.00399462366476655,-0.02090519852936268
1720787092875153200,4.486153076171875,-0.036351077258586884,-0.011451254598796368,-0.007057168986648321
1720787092885167000,4.4961669921875,-0.03528584539890289,-0.014646953903138638,0.004660394508391619
1720787092895180800,4.506180908203125,-0.033155377954244614,-0.017842652276158333,0.011051792651414871
1720787092905194800,4.51619482421875,-0.03209014609456062,-0.025299284607172012,0.012117025442421436
1720787092915208400,4.52620849609375,-0.03528584539890289,-0.04127778112888336,0.008921326138079166
1720787092925222400,4.536222412109375,-0.03848154470324516,-0.05086487531661987,0.00359516148455441
1720787092935236400,4.546236328125,-0.04274247586727142,-0.05725627392530441,0.0003994623839389533
1720787092945250000,4.55625,-0.043807707726955414,-0.05193011090159416,-0.004926702938973904
1720787092955264000,4.566263916015625,-0.03954677656292915,-0.04660394415259361,-0.009187635034322739
1720787092965277700,4.576277587890625,-0.03528584539890289,-0.03595161437988281,-0.010252867825329304
1720787092975291600,4.586291748046875,-0.028894444927573204,-0.03808208182454109,-0.008122402243316174
1720787092985305600,4.5963056640625,-0.024633513763546944,-0.0370168462395668,-0.004926702938973904
1720787092995319300,4.6063193359375,-0.020372580736875534,-0.03595161437988281,-0.0038614696823060513
1720787093005333200,4.616333251953125,-0.017176883295178413,-0.03808208182454109,-0.000665770610794425
1720787093015347200,4.62634716796875,-0.019307348877191544,-0.03275591507554054,0.0025299284607172012
1720787093025361000,4.63636083984375,-0.023568280041217804,-0.03382114693522453,0.006790860556066036
1720787093035374800,4.646374755859375,-0.028894444927573204,-0.03275591507554054,0.009986559860408306
1720787093045388500,4.656388427734375,-0.031024912372231483,-0.0370168462395668,0.013182258233428001
1720787093055402500,4.666402587890625,-0.029959678649902344,-0.03488638252019882,0.012117025442421436
1720787093065416400,4.67641650390625,-0.03209014609456062,-0.026364516466856003,0.009986559860408306
1720787093075430100,4.68643017578125,-0.03209014609456062,-0.019973119720816612,0.005725627299398184
1720787093085444000,4.696444091796875,-0.03848154470324516,-0.016777420416474342,0.0003994623839389533
1720787093095458000,4.7064580078125,-0.041677240282297134,-0.017842652276158333,-0.004926702938973904
1720787093105471700,4.7164716796875,-0.040612008422613144,-0.025299284607172012,-0.007057168986648321
1720787093115485700,4.726485595703125,-0.037416309118270874,-0.021038351580500603,-0.007057168986648321
1720787093125499400,4.73649951171875,-0.028894444927573204,-0.011451254598796368,-0.008122402243316174
1720787093135513300,4.746513427734375,-0.023568280041217804,0.00133154122158885,-0.008122402243316174
1720787093145527300,4.75652734375,-0.019307348877191544,0.011983871459960938,-0.004926702938973904
1720787093155541000,4.766541015625,-0.016111649572849274,0.020505735650658607,-0.0017310036346316338
1720787093165555000,4.776554931640625,-0.016111649572849274,0.017310036346316338,0.0014646954368799925
1720787093175568600,4.786568603515625,-0.019307348877191544,0.016244804486632347,0.00359516148455441
1720787093185582600,4.79658251953125,-0.025698747485876083,0.013049104250967503,0.004660394508391619
1720787093195596500,4.806596435546875,-0.031024912372231483,0.013049104250967503,0.004660394508391619
1720787093205610200,4.8166103515625,-0.034220609813928604,0.018375270068645477,0.004660394508391619
1720787093215624200,4.826624267578125,-0.03528584539890289,0.022636201232671738,0.006790860556066036
1720787093225638100,4.83663818359375,-0.033155377954244614,0.027962366119027138,0.012117025442421436
1720787093235651800,4.84665185546875,-0.027829213067889214,0.026897134259343147,0.015312724746763706
1720787093245665800,4.856665771484375,-0.021437814459204674,0.021570969372987747,0.01637795753777027
1720787093255679500,4.866679443359375,-0.015046416781842709,0.018375270068645477,0.01637795753777027
1720787093265693400,4.876693359375,-0.009720250964164734,0.015179570764303207,0.015312724746763706
1720787093275707400,4.886707275390625,-0.009720250964164734,0.017310036346316338,0.011051792651414871
1720787093285721000,4.89672119140625,-0.012915950268507004,0.018375270068645477,0.007856093347072601
1720787093295735000,4.906735107421875,-0.016111649572849274,0.021570969372987747,0.005725627299398184
1720787093305749000,4.9167490234375,-0.018242115154862404,0.024766668677330017,0.006790860556066036
1720787093315762700,4.9267626953125,-0.018242115154862404,0.023701434955000877,0.011051792651414871
1720787093325776600,4.936776611328125,-0.018242115154862404,0.024766668677330017,0.01744319126009941
1720787093335790300,4.946790283203125,-0.018242115154862404,0.024766668677330017,0.02276935614645481
1720787093345804300,4.95680419921875,-0.019307348877191544,0.021570969372987747,0.02489982172846794
1720787093355818200,4.966818359375,-0.015046416781842709,0.010918638668954372,0.02170412242412567
1720787093365832000,4.97683203125,-0.011850717477500439,0.017310036346316338,0.014247491955757141
1720787093375846000,4.986845947265625,-0.005459319334477186,0.015179570764303207,0.005725627299398184
1720787093385859600,4.996859619140625,0.008388710208237171,0.006657706573605537,0.0025299284607172012
1720787093395873500,5.00687353515625,0.007323476951569319,0.05565842613577843,0.0025299284607172012
1720787093405887500,5.016887451171875,0.011584409512579441,0.05246272683143616,0.006790860556066036
1720787093415901200,5.026901123046875,0.016910573467612267,0.04926702752709389,0.011051792651414871
1720787093425915100,5.0369150390625,0.016910573467612267,0.04394086077809334,0.013182258233428001
1720787093435929000,5.04692919921875,0.012649642303586006,0.013049104250967503,0.015312724746763706
1720787093445942800,5.05694287109375,0.014780107885599136,0.020505735650658607,0.011051792651414871
1720787093455956700,5.066956787109375,0.016910573467612267,0.04607132822275162,0.0025299284607172012
1720787093465970400,5.076970458984375,0.028628136962652206,0.04394086077809334,-0.0027962366584688425
1720787093475984400,5.086984375,0.033954303711652756,0.07057169079780579,0.0025299284607172012
1720787093485998300,5.096998291015625,0.038215234875679016,0.06204982474446297,0.004660394508391619
1720787093496012000,5.107011962890625,0.041410934180021286,0.06737598776817322,0.007856093347072601
1720787093506026000,5.11702587890625,0.038215234875679016,0.06311506032943726,0.009986559860408306
1720787093516039700,5.127039794921875,0.035019535571336746,0.05139749497175217,0.009986559860408306
1720787093526053600,5.1370537109375,0.019041040912270546,0.0588541254401207,0.008921326138079166
1720787093536067600,5.147067626953125,0.012649642303586006,0.03222329914569855,0.005725627299398184
1720787093546081300,5.157081298828125,0.007323476951569319,0.05033225938677788,0.0014646954368799925
1720787093556095200,5.16709521484375,-0.0001331541279796511,0.05778888985514641,-0.0027962366584688425
1720787093566109200,5.177109130859375,-0.0011983871227130294,0.07376738637685776,-0.0038614696823060513
1720787093576123000,5.187122802734375,0.005193010903894901,0.07163692265748978,0.004660394508391619
1720787093586136800,5.19713671875,0.010519175790250301,0.07376738637685776,0.015312724746763706
1720787093596150500,5.207150634765625,0.013714875094592571,0.0695064514875412,0.02063889056444168
1720787093606164500,5.21716455078125,0.014780107885599136,0.05778888985514641,0.01957365684211254
1720787093616178400,5.227178466796875,0.009453942999243736,0.06204982474446297,0.011051792651414871
1720787093626192100,5.237192138671875,-0.0001331541279796511,0.0375494658946991,0.0025299284607172012
1720787093636206000,5.2472060546875,-0.005459319334477186,0.014114337973296642,-0.004926702938973904
1720787093646220000,5.257219970703125,-0.013981183059513569,0.023701434955000877,-0.011318100616335869
1720787093656233700,5.267233642578125,-0.018242115154862404,0.03222329914569855,-0.01664426550269127
1720787093666247700,5.27724755859375,-0.018242115154862404,0.06418029218912125,-0.02197043038904667
1720787093676261400,5.287261474609375,-0.016111649572849274,0.07376738637685776,-0.02197043038904667
1720787093686275300,5.297275390625,-0.012915950268507004,0.07696308940649033,-0.02090519852936268
1720787093696289300,5.307289306640625,-0.010785484686493874,0.07270215451717377,-0.01983996480703354
1720787093706303000,5.317302978515625,-0.006524552125483751,0.04713656008243561,-0.01770949922502041
1720787093716317000,5.32731689453125,-0.008655018173158169,0.03648423030972481,-0.015579032711684704
1720787093726330600,5.33733056640625,-0.011850717477500439,0.009853405877947807,-0.010252867825329304
1720787093736344600,5.347344482421875,-0.009720250964164734,-0.022103585302829742,-0.004926702938973904
1720787093746358500,5.357358642578125,-0.015046416781842709,-0.017842652276158333,-0.0017310036346316338
1720787093756372200,5.367372314453125,-0.019307348877191544,-0.017842652276158333,0.0025299284607172012
1720787093766386200,5.37738623046875,-0.022503048181533813,0.011983871459960938,0.008921326138079166
1720787093776400000,5.38739990234375,-0.025698747485876083,0.010918638668954372,0.014247491955757141
1720787093786413600,5.39741357421875,-0.023568280041217804,0.014114337973296642,0.01957365684211254
1720787093796427500,5.407427490234375,-0.022503048181533813,0.022636201232671738,0.02063889056444168
1720787093806441200,5.417441162109375,-0.021437814459204674,0.008788172155618668,0.01957365684211254
1720787093816455200,5.427455078125,-0.021437814459204674,0.0077229393646121025,0.015312724746763706
1720787093826468900,5.43746875,-0.028894444927573204,0.013049104250967503,0.011051792651414871
1720787093836482600,5.447482666015625,-0.027829213067889214,-0.00719032296910882,0.008921326138079166
1720787093846496500,5.45749658203125,-0.026763979345560074,0.009853405877947807,0.004660394508391619
1720787093856510200,5.46751025390625,-0.022503048181533813,0.014114337973296642,0.0003994623839389533
1720787093866524200,5.477524169921875,-0.017176883295178413,0.03541899845004082,-0.0017310036346316338
1720787093876537900,5.487537841796875,-0.013981183059513569,0.03861469775438309,-0.0017310036346316338
1720787093886551600,5.497551513671875,-0.005459319334477186,0.027962366119027138,-0.000665770610794425
1720787093896565500,5.5075654296875,-0.00226362026296556,0.022636201232671738,0.0014646954368799925
1720787093906579200,5.5175791015625,-0.0033288532868027687,0.008788172155618668,0.0003994623839389533
1720787093916593200,5.52759326171875,-0.004394086077809334,-0.0018641578499227762,-0.000665770610794425
1720787093926606800,5.53760693359375,-0.017176883295178413,0.013049104250967503,-0.0027962366584688425
1720787093936620800,5.547620849609375,-0.025698747485876083,-0.008255556225776672,-0.0038614696823060513
1720787093946634500,5.557634521484375,-0.027829213067889214,-0.0050598569214344025,-0.007057168986648321
1720787093956648200,5.567648193359375,-0.031024912372231483,0.0077229393646121025,-0.009187635034322739
1720787093966662100,5.577662109375,-0.025698747485876083,0.00133154122158885,-0.010252867825329304
1720787093976675800,5.58767578125,-0.022503048181533813,0.021570969372987747,-0.007057168986648321
1720787093986689800,5.597689697265625,-0.012915950268507004,-0.00399462366476655,-0.0027962366584688425
1720787093996703500,5.607703369140625,-0.004394086077809334,-0.0007989247678779066,0.0014646954368799925
1720787094006717200,5.61771728515625,-0.0001331541279796511,0.00452724052593112,0.0014646954368799925
1720787094016731100,5.627731201171875,0.005193010903894901,-0.0018641578499227762,-0.0027962366584688425
1720787094026744800,5.637744873046875,0.005193010903894901,0.011983871459960938,-0.010252867825329304
1720787094036758800,5.6477587890625,-0.00226362026296556,0.00133154122158885,-0.015579032711684704
1720787094046772500,5.6577724609375,0.0030625448562204838,-0.013581721112132072,-0.015579032711684704
1720787094056786400,5.667786376953125,0.004127778112888336,0.011983871459960938,-0.013448567129671574
1720787094066800000,5.677800048828125,0.005193010903894901,0.016244804486632347,-0.010252867825329304
1720787094076813800,5.687813720703125,0.008388710208237171,0.023701434955000877,-0.000665770610794425
1720787094086827800,5.697827880859375,0.011584409512579441,0.019440501928329468,0.006790860556066036
1720787094096841700,5.707841796875,0.015845341607928276,0.018375270068645477,0.013182258233428001
1720787094106855400,5.71785546875,0.022236740216612816,0.022636201232671738,0.015312724746763706
1720787094116869400,5.727869384765625,0.026497671380639076,0.020505735650658607,0.013182258233428001
1720787094126883000,5.737883056640625,0.031823836266994476,0.015179570764303207,0.009986559860408306
1720787094136897000,5.74789697265625,0.023301972076296806,0.03222329914569855,0.012117025442421436
1720787094146911000,5.757910888671875,0.019041040912270546,0.018375270068645477,0.014247491955757141
1720787094156924700,5.767924560546875,0.016910573467612267,0.027962366119027138,0.015312724746763706
1720787094166938600,5.777938720703125,0.014780107885599136,0.029027599841356277,0.013182258233428001
1720787094176952600,5.78795263671875,0.014780107885599136,0.021570969372987747,0.011051792651414871
1720787094186966300,5.79796630859375,0.017975807189941406,0.027962366119027138,0.009986559860408306
1720787094196980200,5.807980224609375,0.025432437658309937,0.0077229393646121025,0.005725627299398184
1720787094206994000,5.817993896484375,0.030758604407310486,0.00452724052593112,0.0025299284607172012
1720787094217007900,5.8280078125,0.030758604407310486,-0.0007989247678779066,0.00359516148455441
1720787094227021800,5.838021728515625,0.030758604407310486,-0.0050598569214344025,0.00359516148455441
1720787094237035500,5.848035400390625,0.027562905102968216,0.010918638668954372,0.005725627299398184
1720787094247049500,5.858049560546875,0.019041040912270546,0.009853405877947807,0.005725627299398184
1720787094257063200,5.868063232421875,0.019041040912270546,0.0023967742454260588,0.004660394508391619
1720787094267077000,5.8780771484375,0.015845341607928276,0.015179570764303207,0.0003994623839389533
1720787094277091000,5.888091064453125,0.014780107885599136,0.006657706573605537,-0.0038614696823060513
1720787094287104800,5.898104736328125,0.011584409512579441,0.017310036346316338,-0.0038614696823060513
1720787094297118700,5.90811865234375,0.011584409512579441,0.005592473316937685,-0.0017310036346316338
1720787094307132700,5.918132568359375,0.014780107885599136,0.0002663082559593022,0.0025299284607172012
1720787094317146400,5.928146484375,0.020106272771954536,-0.0007989247678779066,0.009986559860408306
1720787094327160300,5.938160400390625,0.022236740216612816,-0.00399462366476655,0.013182258233428001
1720787094337174000,5.948174072265625,0.028628136962652206,-0.0018641578499227762,0.012117025442421436
1720787094347188000,5.95818798828125,0.026497671380639076,0.008788172155618668,0.009986559860408306
1720787094357202000,5.968201904296875,0.025432437658309937,-0.002929390873759985,0.008921326138079166
1720787094367215600,5.978215576171875,0.028628136962652206,0.005592473316937685,0.005725627299398184
1720787094377229600,5.9882294921875,0.024367205798625946,0.013049104250967503,0.006790860556066036
1720787094387243500,5.998243408203125,0.021171506494283676,0.017310036346316338,0.009986559860408306
1720787094397257200,6.00825732421875,0.017975807189941406,0.03328853100538254,0.015312724746763706
1720787094407271200,6.018271240234375,0.023301972076296806,0.005592473316937685,0.014247491955757141
1720787094417284900,6.028284912109375,0.017975807189941406,0.0375494658946991,0.013182258233428001
1720787094427298800,6.038298828125,0.012649642303586006,0.021570969372987747,0.009986559860408306
1720787094437312800,6.048312744140625,0.011584409512579441,0.013049104250967503,0.004660394508391619
1720787094447326500,6.058326416015625,0.004127778112888336,0.03435376659035683,0.0025299284607172012
1720787094457340400,6.06834033203125,0.011584409512579441,-0.022103585302829742,0.00359516148455441
1720787094467354000,6.07835400390625,0.010519175790250301,0.018375270068645477,0.0025299284607172012
1720787094477368000,6.0883681640625,0.010519175790250301,0.009853405877947807,-0.0017310036346316338
1720787094487382000,6.098382080078125,0.020106272771954536,-0.002929390873759985,0.0014646954368799925
1720787094497395700,6.108395751953125,0.008388710208237171,0.03861469775438309,0.011051792651414871
1720787094507409700,6.11840966796875,0.001997311832383275,0.017310036346316338,0.01957365684211254
1720787094517423600,6.128423583984375,0.0030625448562204838,0.016244804486632347,0.0238345880061388
1720787094527437300,6.138437255859375,0.0030625448562204838,-0.014646953903138638,0.0238345880061388
1720787094537451300,6.148451171875,0.007323476951569319,-0.03275591507554054,0.0185084231197834
1720787094547465000,6.15846484375,0.006258244160562754,-0.023168819025158882,0.006790860556066036
1720787094557479000,6.16847900390625,0.001997311832383275,-0.012516488321125507,-0.0038614696823060513
1720787094567492900,6.178492919921875,-0.00226362026296556,-0.0007989247678779066,-0.0038614696823060513
1720787094577506600,6.188506591796875,-0.005459319334477186,0.03648423030972481,0.006790860556066036
1720787094587520500,6.1985205078125,-0.00226362026296556,0.011983871459960938,0.01744319126009941
1720787094597534200,6.2085341796875,-0.0001331541279796511,0.005592473316937685,0.02809552103281021
1720787094607548200,6.218548095703125,0.006258244160562754,-0.019973119720816612,0.03235645219683647
1720787094617562000,6.22856201171875,0.001997311832383275,-0.00399462366476655,0.02489982172846794
1720787094627575800,6.238575927734375,0.004127778112888336,-0.0050598569214344025,0.011051792651414871
1720787094637589800,6.24858984375,0.007323476951569319,-0.03275591507554054,0.005725627299398184
1720787094647603700,6.258603759765625,0.0009320789249613881,0.0023967742454260588,0.004660394508391619
1720787094657617400,6.268617431640625,-0.0001331541279796511,-0.013581721112132072,0.005725627299398184
1720787094667631400,6.27863134765625,-0.008655018173158169,0.00452724052593112,0.011051792651414871
1720787094677645000,6.28864501953125,-0.011850717477500439,0.020505735650658607,0.01637795753777027
1720787094687659000,6.298658935546875,-0.0001331541279796511,-0.015712186694145203,0.02276935614645481
1720787094697673000,6.3086728515625,0.001997311832383275,0.0002663082559593022,0.0238345880061388
1720787094707686700,6.318686767578125,0.005193010903894901,-0.029560215771198273,0.02170412242412567
1720787094717700600,6.32870068359375,0.005193010903894901,-0.016777420416474342,0.01744319126009941
1720787094727714600,6.338714599609375,0.008388710208237171,-0.012516488321125507,0.013182258233428001
1720787094737728300,6.348728271484375,0.013714875094592571,-0.011451254598796368,0.012117025442421436
1720787094747742200,6.3587421875,0.015845341607928276,-0.010386021807789803,0.0185084231197834
1720787094757756000,6.368755859375,0.016910573467612267,-0.0050598569214344025,0.0238345880061388
1720787094767769900,6.378769775390625,0.017975807189941406,0.0023967742454260588,0.02489982172846794
1720787094777783800,6.38878369140625,0.025432437658309937,-0.025299284607172012,0.0238345880061388
1720787094787797500,6.398797607421875,0.027562905102968216,-0.017842652276158333,0.0238345880061388
1720787094797811500,6.4088115234375,0.031823836266994476,-0.04340824484825134,0.02170412242412567
1720787094807825200,6.4188251953125,0.031823836266994476,-0.016777420416474342,0.01744319126009941
1720787094817839000,6.428839111328125,0.044606633484363556,-0.04873441159725189,0.009986559860408306
1720787094827853000,6.43885302734375,0.05312849581241608,-0.008255556225776672,0.004660394508391619
1720787094837866800,6.44886669921875,0.057389430701732635,-0.017842652276158333,-0.000665770610794425
1720787094847880700,6.458880615234375,0.052063263952732086,-0.0061250897124409676,-0.0027962366584688425
1720787094857894700,6.468894775390625,0.057389430701732635,-0.029560215771198273,-0.004926702938973904
1720787094867908400,6.478908447265625,0.052063263952732086,-0.0061250897124409676,-0.009187635034322739
1720787094877922300,6.48892236328125,0.042476166039705276,-0.017842652276158333,-0.013448567129671574
1720787094887936000,6.49893603515625,0.030758604407310486,-0.015712186694145203,-0.015579032711684704
1720787094897950000,6.508949951171875,0.024367205798625946,-0.027429750189185143,-0.014513799920678139
1720787094907964000,6.5189638671875,0.021171506494283676,-0.026364516466856003,-0.013448567129671574
1720787094917977600,6.5289775390625,0.015845341607928276,-0.03488638252019882,-0.009187635034322739
1720787094927991600,6.538991455078125,0.004127778112888336,-0.04234301298856735,-0.0017310036346316338
1720787094938005200,6.549005126953125,-0.007589785382151604,-0.04340824484825134,0.0003994623839389533
1720787094948019200,6.559019287109375,-0.010785484686493874,-0.04979964345693588,0.0003994623839389533
1720787094958033000,6.569032958984375,-0.016111649572849274,-0.04021254554390907,0.0014646954368799925
1720787094968046800,6.579046875,-0.025698747485876083,-0.04660394415259361,-0.0038614696823060513
1720787094978060500,6.589060546875,-0.03209014609456062,-0.03382114693522453,-0.008122402243316174
1720787094988074500,6.599074462890625,-0.026763979345560074,-0.05619104206562042,-0.007057168986648321
1720787094998088200,6.609088134765625,-0.027829213067889214,-0.03808208182454109,-0.005991935729980469
1720787095008102000,6.619101806640625,-0.031024912372231483,-0.0583215095102787,-0.005991935729980469
1720787095018115800,6.62911572265625,-0.03848154470324516,-0.04234301298856735,-0.004926702938973904
1720787095028129500,6.639129638671875,-0.036351077258586884,-0.08175663650035858,0.0014646954368799925
1720787095038143500,6.6491435546875,-0.036351077258586884,-0.06684337556362152,0.005725627299398184
1720787095048157200,6.6591572265625,-0.03528584539890289,-0.08175663650035858,0.006790860556066036
1720787095058171000,6.6691708984375,-0.037416309118270874,-0.05938674136996269,0.007856093347072601
1720787095068184800,6.679184814453125,-0.029959678649902344,-0.07430000603199005,0.007856093347072601
1720787095078198500,6.689198486328125,-0.019307348877191544,-0.07216953486204147,0.005725627299398184
1720787095088212500,6.69921240234375,-0.010785484686493874,-0.07856093347072601,0.004660394508391619
1720787095098226200,6.70922607421875,-0.005459319334477186,-0.07003907114267349,0.0014646954368799925
1720787095108240100,6.719240234375,-0.0033288532868027687,-0.06151720881462097,-0.0027962366584688425
1720787095118253800,6.72925390625,0.009453942999243736,-0.07856093347072601,-0.0017310036346316338
1720787095128267500,6.739267578125,0.014780107885599136,-0.06045197322964668,-0.000665770610794425
1720787095138281500,6.749281494140625,0.013714875094592571,-0.0583215095102787,-0.007057168986648321
1720787095148295200,6.759295166015625,0.006258244160562754,-0.03595161437988281,-0.01664426550269127
1720787095158309000,6.76930908203125,0.014780107885599136,-0.06790860742330551,-0.01664426550269127
1720787095168322800,6.77932275390625,0.015845341607928276,-0.04021254554390907,-0.01664426550269127
1720787095178336500,6.78933642578125,0.011584409512579441,-0.04979964345693588,-0.01983996480703354
1720787095188350500,6.7993505859375,0.005193010903894901,-0.030625449493527412,-0.02090519852936268
1720787095198364200,6.8093642578125,0.010519175790250301,-0.04234301298856735,-0.01877473294734955
1720787095208378000,6.819378173828125,0.019041040912270546,-0.030625449493527412,-0.01983996480703354
1720787095218391800,6.829391845703125,0.014780107885599136,-0.04127778112888336,-0.02197043038904667
1720787095228405800,6.83940576171875,0.006258244160562754,-0.04234301298856735,-0.02090519852936268
1720787095238419500,6.84941943359375,0.001997311832383275,-0.016777420416474342,-0.02303566411137581
1720787095248433200,6.85943310546875,0.010519175790250301,-0.03595161437988281,-0.02197043038904667
1720787095258447000,6.869447021484375,0.008388710208237171,-0.013581721112132072,-0.02303566411137581
1720787095268460800,6.879460693359375,0.010519175790250301,-0.024234050884842873,-0.02729659713804722
1720787095278474800,6.889474853515625,0.017975807189941406,-0.0061250897124409676,-0.03049229457974434
1720787095288488400,6.899488525390625,0.024367205798625946,-0.008255556225776672,-0.03262276202440262
1720787095298502400,6.90950244140625,0.031823836266994476,-0.002929390873759985,-0.03262276202440262
1720787095308516000,6.91951611328125,0.027562905102968216,0.00452724052593112,-0.03688369318842888
1720787095318530000,6.929530029296875,0.023301972076296806,0.0002663082559593022,-0.03688369318842888
1720787095328544000,6.9395439453125,0.021171506494283676,-0.002929390873759985,-0.03049229457974434
1720787095338557700,6.9495576171875,0.020106272771954536,-0.002929390873759985,-0.02303566411137581
1720787095348571600,6.959571533203125,0.020106272771954536,-0.0018641578499227762,-0.01983996480703354
1720787095358585600,6.969585693359375,0.021171506494283676,-0.029560215771198273,-0.014513799920678139
1720787095368599300,6.979599365234375,0.019041040912270546,-0.024234050884842873,-0.012383334338665009
1720787095378613200,6.98961328125,0.022236740216612816,-0.008255556225776672,-0.01770949922502041
1720787095388627000,6.999626953125,0.019041040912270546,0.00452724052593112,-0.02410089783370495
1720787095398641000,7.009640869140625,0.014780107885599136,0.0002663082559593022,-0.03155753016471863
1720787095408654800,7.01965478515625,0.012649642303586006,0.00133154122158885,-0.03368799388408661
1720787095418668500,7.02966845703125,0.007323476951569319,0.024766668677330017,-0.03688369318842888
1720787095428682500,7.0396826171875,0.0030625448562204838,0.024766668677330017,-0.03794892504811287
1720787095438696200,7.0496962890625,0.0030625448562204838,0.015179570764303207,-0.03049229457974434
1720787095448710100,7.059710205078125,0.008388710208237171,0.008788172155618668,-0.02090519852936268
1720787095458724000,7.06972412109375,0.013714875094592571,0.008788172155618668,-0.009187635034322739
1720787095468737800,7.07973779296875,0.017975807189941406,0.017310036346316338,0.0003994623839389533
1720787095478751700,7.089751708984375,0.023301972076296806,0.027962366119027138,0.00359516148455441
1720787095488765700,7.099765625,0.030758604407310486,0.04181039705872536,0.00359516148455441
1720787095498779400,7.109779296875,0.03928046673536301,0.029027599841356277,-0.000665770610794425
1720787095508793300,7.11979345703125,0.040345702320337296,0.03328853100538254,-0.007057168986648321
1720787095518807000,7.12980712890625,0.040345702320337296,0.0077229393646121025,-0.01664426550269127
1720787095528821000,7.139821044921875,0.040345702320337296,0.013049104250967503,-0.02836182899773121
1720787095538835000,7.1498349609375,0.03928046673536301,0.05672365799546242,-0.03262276202440262
1720787095548848600,7.1598486328125,0.03608476743102074,0.05246272683143616,-0.03155753016471863
1720787095558862600,7.169862548828125,0.028628136962652206,0.08974587917327881,-0.02410089783370495
1720787095568876500,7.17987646484375,0.029693370684981346,0.06098458915948868,-0.008122402243316174
1720787095578890200,7.18989013671875,0.028628136962652206,0.06844121962785721,0.004660394508391619
1720787095588904200,7.199904296875,0.03928046673536301,0.07483261823654175,0.01957365684211254
1720787095598918000,7.20991796875,0.05632419511675835,0.04394086077809334,0.03768261894583702
1720787095608931800,7.219931884765625,0.06271559745073318,0.04607132822275162,0.05153064802289009
1720787095618945800,7.22994580078125,0.06484606117010117,0.04074516147375107,0.06005251035094261
1720787095628959500,7.23995947265625,0.06378082931041718,0.05991935729980469,0.04620448127388954
1720787095638973400,7.249973388671875,0.06271559745073318,0.08761541545391083,0.02809552103281021
1720787095648987100,7.259987060546875,0.06591129302978516,0.09187635034322739,0.006790860556066036
1720787095659001000,7.2700009765625,0.07975932210683823,0.05352795869112015,-0.012383334338665009
1720787095669015000,7.28001513671875,0.07975932210683823,0.08335448056459427,-0.02516612969338894
1720787095679028700,7.29002880859375,0.08402025699615479,0.0695064514875412,-0.03794892504811287
1720787095689042700,7.300042724609375,0.07549838721752167,0.111050546169281,-0.04434032365679741
1720787095699056600,7.310056640625,0.07762885838747025,0.10572437942028046,-0.03581846132874489
1720787095709070300,7.3200703125,0.08721595257520676,0.08761541545391083,-0.02410089783370495
1720787095719084300,7.330084228515625,0.09041165560483932,0.111050546169281,-0.01877473294734955
1720787095729098000,7.340097900390625,0.09147688746452332,0.10678961127996445,-0.01664426550269127
1720787095739112000,7.35011181640625,0.0936073511838913,0.112115778028965,-0.01664426550269127
1720787095749126000,7.3601259765625,0.10106398165225983,0.09826774895191193,-0.009187635034322739
1720787095759139600,7.3701396484375,0.11171631515026093,0.09720251709222794,0.004660394508391619
1720787095769153500,7.380153564453125,0.12023817747831345,0.09294158220291138,0.02596505545079708
1720787095779167200,7.390167236328125,0.11065108329057693,0.13128997385501862,0.03768261894583702
1720787095789181200,7.40018115234375,0.09999874979257584,0.11850717663764954,0.04833494871854782
1720787095799195100,7.410195068359375,0.07656362652778625,0.12596380710601807,0.05259587988257408
1720787095809208800,7.420208740234375,0.06271559745073318,0.09400681406259537,0.05366111174225807
1720787095819222800,7.430222900390625,0.04993279650807381,0.07696308940649033,0.0504654161632061
1720787095829236700,7.44023681640625,0.04673709720373154,0.0375494658946991,0.04620448127388954
1720787095839250400,7.45025048828125,0.047802332788705826,0.020505735650658607,0.03661738336086273
1720787095849264400,7.460264404296875,0.058454662561416626,-0.0018641578499227762,0.03235645219683647
1720787095859278000,7.470278076171875,0.050998032093048096,0.04181039705872536,0.03768261894583702
1720787095869292000,7.4802919921875,0.041410934180021286,0.03541899845004082,0.05792204663157463
1720787095879306000,7.490305908203125,0.023301972076296806,0.08974587917327881,0.07603100687265396
1720787095889319700,7.500319580078125,0.027562905102968216,0.09400681406259537,0.07922670245170593
1720787095899333600,7.510333740234375,0.022236740216612816,0.13555090129375458,0.07283531129360199
1720787095909347600,7.52034765625,0.009453942999243736,0.13022473454475403,0.06857437640428543
1720787095919361300,7.530361328125,-0.017176883295178413,0.12063764035701752,0.06324820965528488
1720787095929375200,7.540375244140625,-0.025698747485876083,0.0588541254401207,0.06005251035094261
1720787095939389000,7.550388916015625,-0.033155377954244614,0.0375494658946991,0.05259587988257408
1720787095949403000,7.56040283203125,-0.034220609813928604,0.023701434955000877,0.04513924941420555
1720787095959416800,7.570416748046875,-0.029959678649902344,0.019440501928329468,0.04194355010986328
1720787095969430500,7.580430419921875,-0.022503048181533813,0.017310036346316338,0.03768261894583702
1720787095979444500,7.590444580078125,-0.019307348877191544,0.026897134259343147,0.03129122033715248
1720787095989458200,7.600458251953125,-0.011850717477500439,0.03222329914569855,0.02703028731048107
1720787095999472000,7.61047216796875,-0.007589785382151604,0.031158065423369408,0.01957365684211254
1720787096009486000,7.620486083984375,0.0009320789249613881,-0.012516488321125507,0.009986559860408306
1720787096019499800,7.630499755859375,0.004127778112888336,-0.030625449493527412,-0.000665770610794425
1720787096029513700,7.640513671875,0.005193010903894901,-0.04127778112888336,-0.014513799920678139
1720787096039527700,7.650527587890625,0.0030625448562204838,-0.04873441159725189,-0.02729659713804722
1720787096049541400,7.660541259765625,0.006258244160562754,-0.0583215095102787,-0.02729659713804722
1720787096059555300,7.670555419921875,0.001997311832383275,-0.009320789016783237,-0.02197043038904667
1720787096069569000,7.680569091796875,-0.0011983871227130294,-0.009320789016783237,-0.01770949922502041
1720787096079583000,7.6905830078125,-0.0001331541279796511,-0.014646953903138638,-0.01983996480703354
1720787096089597000,7.700596923828125,0.0009320789249613881,-0.030625449493527412,-0.02090519852936268
1720787096099610600,7.710610595703125,-0.005459319334477186,-0.04021254554390907,-0.03368799388408661
1720787096109624600,7.72062451171875,-0.016111649572849274,-0.015712186694145203,-0.04114462435245514
1720787096119638300,7.73063818359375,-0.011850717477500439,-0.03595161437988281,-0.04753602296113968
1720787096129652200,7.74065234375,-0.010785484686493874,-0.028494983911514282,-0.05392742156982422
1720787096139666200,7.750666259765625,-0.00226362026296556,-0.04447348043322563,-0.05925358831882477
1720787096149679900,7.760679931640625,0.014780107885599136,-0.04021254554390907,-0.05286218971014023
1720787096159693800,7.77069384765625,0.035019535571336746,-0.05406057462096214,-0.05286218971014023
1720787096169707800,7.780707763671875,0.03928046673536301,-0.018907885998487473,-0.05499265342950821
1720787096179721500,7.790721435546875,0.044606633484363556,-0.024234050884842873,-0.04860125854611397
1720787096189735400,7.8007353515625,0.03288906812667847,0.016244804486632347,-0.0454055592417717
1720787096199749000,7.8107490234375,0.029693370684981346,-0.018907885998487473,-0.05179695412516594
1720787096209763000,7.82076318359375,0.030758604407310486,-0.06258244067430496,-0.04220985993742943
1720787096219777000,7.830777099609375,0.033954303711652756,-0.07110430300235748,-0.02942706272006035
1720787096229790700,7.840790771484375,0.038215234875679016,-0.06151720881462097,-0.02623136341571808
1720787096239804700,7.8508046875,0.04673709720373154,-0.07110430300235748,-0.01983996480703354
1720787096249818600,7.860818603515625,0.043541401624679565,-0.017842652276158333,-0.009187635034322739
1720787096259832300,7.870832275390625,0.042476166039705276,-0.019973119720816612,-0.009187635034322739
1720787096269846300,7.88084619140625,0.045671865344047546,-0.03595161437988281,-0.02410089783370495
1720787096279860000,7.89085986328125,0.054193731397390366,-0.06471290439367294,-0.04327509179711342
1720787096289874000,7.9008740234375,0.06591129302978516,-0.07430000603199005,-0.05286218971014023
1720787096299887900,7.910887939453125,0.06484606117010117,-0.04979964345693588,-0.04966649040579796
1720787096309901600,7.920901611328125,0.06804175674915314,-0.08708280324935913,-0.04966649040579796
1720787096319915500,7.93091552734375,0.055258963257074356,-0.03488638252019882,-0.04753602296113968
1720787096329929200,7.94092919921875,0.04673709720373154,-0.05938674136996269,-0.05499265342950821
1720787096339943200,7.950943115234375,0.03288906812667847,-0.07003907114267349,-0.06138405203819275
1720787096349957000,7.96095703125,0.021171506494283676,-0.08814803510904312,-0.06351451575756073
1720787096359970800,7.970970703125,0.0030625448562204838,-0.07003907114267349,-0.05499265342950821
1720787096369984800,7.98098486328125,-0.015046416781842709,-0.05938674136996269,-0.03155753016471863
1720787096379998700,7.990998779296875,-0.043807707726955414,-0.019973119720816612,-0.01770949922502041
1720787096390012400,8.001012451171874,-0.06298190355300903,-0.03488638252019882,-0.009187635034322739
1720787096400026400,8.0110263671875,-0.07043853402137756,-0.03808208182454109,-0.0027962366584688425
1720787096410040000,8.0210400390625,-0.06404713541269302,-0.05086487531661987,0.0014646954368799925
1720787096420054000,8.031053955078125,-0.041677240282297134,-0.09240896254777908,0.0025299284607172012
1720787096430068000,8.04106787109375,-0.025698747485876083,-0.06790860742330551,0.008921326138079166
1720787096440081700,8.05108154296875,0.0030625448562204838,-0.09986559301614761,0.015312724746763706
1720787096450095600,8.061095703125,0.014780107885599136,-0.04873441159725189,0.015312724746763706
1720787096460109300,8.071109375,0.033954303711652756,-0.08814803510904312,-0.0017310036346316338
1720787096470123000,8.081123046875,0.047802332788705826,-0.09347419440746307,-0.02197043038904667
1720787096480137000,8.091136962890625,0.06484606117010117,-0.10199606418609619,-0.04753602296113968
1720787096490150700,8.101150634765625,0.07656362652778625,-0.08814803510904312,-0.07842778414487839
1720787096500164600,8.11116455078125,0.08082455396652222,-0.07536523789167404,-0.09760197252035141
1720787096510178300,8.12117822265625,0.08615072071552277,-0.03275591507554054,-0.11784140020608902
1720787096520192300,8.131192138671874,0.08188978582620621,0.0077229393646121025,-0.1295589655637741
1720787096530206000,8.1412060546875,0.07336792349815369,0.015179570764303207,-0.13914605975151062
1720787096540219600,8.1512197265625,0.06591129302978516,0.029027599841356277,-0.1295589655637741
1720787096550233600,8.161233642578125,0.057389430701732635,0.023701434955000877,-0.10399337112903595
1720787096560247300,8.171247314453124,0.038215234875679016,0.06311506032943726,-0.06990591436624527
1720787096570261200,8.18126123046875,0.027562905102968216,0.023701434955000877,-0.03901416063308716
1720787096580275000,8.19127490234375,0.0009320789249613881,0.07376738637685776,-0.02090519852936268
1720787096590288600,8.20128857421875,0.006258244160562754,-0.002929390873759985,-0.02303566411137581
1720787096600302600,8.211302490234376,0.038215234875679016,-0.04553871229290962,-0.04007939249277115
1720787096610316300,8.22131640625,0.07443315535783768,-0.03169068321585655,-0.06457975506782532
1720787096620330200,8.231330322265626,0.11278154700994492,-0.019973119720816612,-0.09440627694129944
1720787096630344000,8.241343994140625,0.11917294561862946,0.06204982474446297,-0.11251524090766907
1720787096640358000,8.25135791015625,0.12449911236763,0.06631075590848923,-0.12529803812503815
1720787096650371600,8.26137158203125,0.11171631515026093,0.10678961127996445,-0.13381989300251007
1720787096660385300,8.27138525390625,0.10532491654157639,0.07163692265748978,-0.1412765234708786
1720787096670399200,8.281399169921874,0.0936073511838913,0.0801587849855423,-0.13808083534240723
1720787096680413000,8.291412841796875,0.07443315535783768,0.07802832126617432,-0.1316894292831421
1720787096690427000,8.301427001953124,0.06591129302978516,0.05565842613577843,-0.12742850184440613
1720787096700440600,8.311440673828125,0.047802332788705826,0.08655018359422684,-0.11571093648672104
1720787096710454300,8.321454345703126,0.031823836266994476,0.06204982474446297,-0.098667211830616
1720787096720468200,8.33146826171875,0.011584409512579441,0.07057169079780579,-0.08162347972393036
1720787096730482000,8.34148193359375,0.007323476951569319,0.019440501928329468,-0.07629731297492981
1720787096740496000,8.351495849609375,0.021171506494283676,0.00133154122158885,-0.09121058136224747
1720787096750509600,8.361509521484376,0.026497671380639076,-0.008255556225776672,-0.10505861043930054
1720787096760523500,8.3715234375,0.026497671380639076,0.0002663082559593022,-0.09973244369029999
1720787096770537500,8.381537353515625,0.029693370684981346,0.014114337973296642,-0.0880148783326149
1720787096780551200,8.39155126953125,0.029693370684981346,0.06098458915948868,-0.07203638553619385
1720787096790565000,8.401565185546875,0.045671865344047546,0.08974587917327881,-0.06351451575756073
1720787096800578800,8.411578857421874,0.04993279650807381,0.1430075317621231,-0.06777545064687729
1720787096810592800,8.4215927734375,0.055258963257074356,0.12489857524633408,-0.07310161739587784
1720787096820606700,8.431606689453124,0.0723026916384697,0.10252867639064789,-0.08268871158361435
1720787096830620400,8.441620361328125,0.09041165560483932,0.10572437942028046,-0.09014534205198288
1720787096840634400,8.45163427734375,0.10106398165225983,0.12915951013565063,-0.09973244369029999
1720787096850648000,8.46164794921875,0.1149120107293129,0.14194230735301971,-0.11038476973772049
1720787096860662000,8.471662109375,0.12236864119768143,0.18987779319286346,-0.11464570462703705
1720787096870676000,8.481676025390625,0.12023817747831345,0.218639075756073,-0.1093195378780365
1720787096880689700,8.491689697265626,0.12130340933799744,0.18881255388259888,-0.10399337112903595
1720787096890703600,8.50170361328125,0.11171631515026093,0.2090519815683365,-0.09653674066066742
1720787096900717600,8.511717529296876,0.0936073511838913,0.1983996480703354,-0.08588441461324692
1720787096910731300,8.521731201171875,0.06591129302978516,0.20372581481933594,-0.0773625448346138
1720787096920745200,8.5317451171875,0.035019535571336746,0.1866820901632309,-0.06884068250656128
1720787096930759000,8.541759033203125,0.005193010903894901,0.1643121987581253,-0.06138405203819275
1720787096940772900,8.55177294921875,-0.023568280041217804,0.14833369851112366,-0.05712312087416649
1720787096950786800,8.561786865234374,-0.057655736804008484,0.13661614060401917,-0.05925358831882477
1720787096960800500,8.571800537109375,-0.09600412845611572,0.12809427082538605,-0.05712312087416649
1720787096970814500,8.581814453125,-0.13222205638885498,0.09933298081159592,-0.03581846132874489
1720787096980828400,8.591828369140625,-0.16737474501132965,0.10039821267127991,-0.005991935729980469
1720787096990842000,8.601842041015624,-0.20146219432353973,0.11744193732738495,0.02170412242412567
1720787097000856000,8.61185595703125,-0.23128871619701385,0.16111649572849274,0.03874785080552101
1720787097010869800,8.621869873046874,-0.2600499987602234,0.20585627853870392,0.04407401755452156
1720787097020883700,8.6318837890625,-0.26537618041038513,0.20585627853870392,0.03448691964149475
1720787097030897700,8.641897705078126,-0.24300628900527954,0.2079867422580719,0.007856093347072601
1720787097040911400,8.651911376953125,-0.1950708031654358,0.20479105412960052,-0.01664426550269127
1720787097050925300,8.66192529296875,-0.12689588963985443,0.1664426624774933,-0.01983996480703354
1720787097060939000,8.67193896484375,-0.07469946891069412,0.11957240849733353,-0.008122402243316174
1720787097070953000,8.681952880859376,-0.037416309118270874,0.1440727710723877,-0.010252867825329304
1720787097080967000,8.691966796875,-0.016111649572849274,0.1664426624774933,-0.008122402243316174
1720787097090980600,8.701980712890625,-0.012915950268507004,0.21224768459796906,-0.0038614696823060513
1720787097100994600,8.71199462890625,-0.00226362026296556,0.197334423661232,0.007856093347072601
1720787097111008500,8.722008544921875,-0.007589785382151604,0.22609570622444153,0.012117025442421436
1720787097121022200,8.732022216796874,-0.027829213067889214,0.23035664856433868,0.01744319126009941
1720787097131036200,8.7420361328125,-0.0555252730846405,0.20266057550907135,0.009986559860408306
1720787097141049900,8.7520498046875,-0.08428656309843063,0.15898603200912476,0.006790860556066036
1720787097151063800,8.762063720703125,-0.09174319356679916,0.10572437942028046,0.004660394508391619
1720787097161077800,8.772077880859374,-0.08215609937906265,0.06524552404880524,0.01957365684211254
1720787097171091500,8.782091552734375,-0.07043853402137756,0.07376738637685776,0.03129122033715248
1720787097181105400,8.79210546875,-0.05659050494432449,0.0790935531258583,0.04194355010986328
1720787097191119000,8.802119140625,-0.03209014609456062,0.0908111184835434,0.05792204663157463
1720787097201133000,8.812133056640626,-0.006524552125483751,0.11850717663764954,0.07283531129360199
1720787097211147000,8.82214697265625,0.021171506494283676,0.12489857524633408,0.06963960826396942
1720787097221160700,8.83216064453125,0.048867564648389816,0.12383333593606949,0.05366111174225807
1720787097231174700,8.842174560546875,0.0723026916384697,0.11318100988864899,0.03235645219683647
1720787097241188600,8.852188720703126,0.07869409024715424,0.11957240849733353,0.006790860556066036
1720787097251202300,8.862202392578125,0.06910699605941772,0.13768136501312256,-0.01983996480703354
1720787097261216300,8.87221630859375,0.06697652488946915,0.12915951013565063,-0.04966649040579796
1720787097271230000,8.88222998046875,0.06378082931041718,0.14620323479175568,-0.07203638553619385
1720787097281244000,8.892243896484375,0.05632419511675835,0.1653774231672287,-0.07310161739587784
1720787097291257900,8.9022578125,0.04673709720373154,0.1760297566652298,-0.06777545064687729
1720787097301271600,8.912271484375,0.03928046673536301,0.18987779319286346,-0.05179695412516594
1720787097311285500,8.922285400390624,0.037150003015995026,0.16750788688659668,-0.03794892504811287
1720787097321299500,8.932299560546875,0.03608476743102074,0.1643121987581253,-0.01770949922502041
1720787097331313200,8.942313232421874,0.042476166039705276,0.1451379954814911,0.00359516148455441
1720787097341327000,8.9523271484375,0.060585130006074905,0.12489857524633408,0.02703028731048107
1720787097351340800,8.9623408203125,0.07975932210683823,0.10785484313964844,0.04833494871854782
1720787097361354800,8.972354736328125,0.09786828607320786,0.07802832126617432,0.06644391268491745
1720787097371368700,8.98236865234375,0.1031944528222084,0.0695064514875412,0.07603100687265396
1720787097381382400,8.99238232421875,0.0925421193242073,0.0375494658946991,0.07496577501296997
1720787097391396400,9.002396240234376,0.08402025699615479,-0.0061250897124409676,0.06537867337465286
1720787097401410000,9.01241015625,0.06697652488946915,-0.026364516466856003,0.0611177459359169
1720787097411424000,9.022424072265625,0.05632419511675835,-0.0689738392829895,0.0504654161632061
1720787097421438000,9.03243798828125,0.05312849581241608,-0.07962616533041,0.03342168778181076
1720787097431451600,9.04245166015625,0.05312849581241608,-0.06684337556362152,0.0185084231197834
1720787097441465600,9.052465576171874,0.052063263952732086,-0.06258244067430496,0.005725627299398184
1720787097451479600,9.0624794921875,0.040345702320337296,0.021570969372987747,0.008921326138079166
1720787097461493200,9.0724931640625,0.019041040912270546,0.06204982474446297,0.03342168778181076
1720787097471507200,9.082507080078125,-0.012915950268507004,0.07589785009622574,0.07709623873233795
1720787097481521000,9.09252099609375,-0.050199106335639954,0.10998530685901642,0.13142313063144684
1720787097491534800,9.102534912109375,-0.07469946891069412,0.0588541254401207,0.16977150738239288
1720787097501548800,9.112548828125,-0.09600412845611572,0.006657706573605537,0.18681524693965912
1720787097511562500,9.1225625,-0.12370018661022186,-0.07216953486204147,0.1676410436630249
1720787097521576400,9.132576416015626,-0.1300915777683258,-0.1531272530555725,0.11011846363544464
1720787097531590100,9.142590087890625,-0.1407439112663269,-0.1328878253698349,0.04726971685886383
1720787097541604000,9.15260400390625,-0.13648298382759094,-0.1115831583738327,0.0025299284607172012
1720787097551618000,9.1626181640625,-0.1311568170785904,-0.015712186694145203,-0.02197043038904667
1720787097561631700,9.1726318359375,-0.13861344754695892,0.1014634445309639,-0.03581846132874489
1720787097571645700,9.182645751953125,-0.15033100545406342,0.16750788688659668,-0.02410089783370495
1720787097581659600,9.19265966796875,-0.14500483870506287,0.20372581481933594,0.01637795753777027
1720787097591673300,9.20267333984375,-0.12689588963985443,0.15898603200912476,0.06431344151496887
1720787097601687300,9.212687255859375,-0.0874822586774826,0.04500609636306763,0.10053136944770813
1720787097611701000,9.222700927734374,-0.053394805639982224,-0.013581721112132072,0.11864032596349716
1720787097621715000,9.23271484375,-0.03954677656292915,-0.09666989743709564,0.1037270650267601
1720787097631729000,9.24272900390625,-0.04913387447595596,-0.1446053832769394,0.06644391268491745
1720787097641742600,9.25274267578125,-0.047003407031297684,-0.16697527468204498,0.05153064802289009
1720787097651756500,9.262756591796874,-0.031024912372231483,-0.10838746279478073,0.05579157918691635
1720787097661770500,9.2727705078125,-0.024633513763546944,0.0077229393646121025,0.06218297779560089
1720787097671784200,9.2827841796875,-0.025698747485876083,0.05246272683143616,0.07070484012365341
1720787097681798100,9.292798095703125,-0.016111649572849274,0.07696308940649033,0.08987903594970703
1720787097691811800,9.302811767578126,-0.013981183059513569,0.06844121962785721,0.12077079713344574
1720787097701825800,9.31282568359375,-0.019307348877191544,-0.00719032296910882,0.13887976109981537
1720787097711839700,9.32283984375,-0.037416309118270874,-0.05406057462096214,0.13887976109981537
1720787097721853400,9.332853515625,-0.06298190355300903,-0.1222354918718338,0.11864032596349716
1720787097731867400,9.342867431640625,-0.09174319356679916,-0.1541924774646759,0.06750914454460144
1720787097741881000,9.352881103515625,-0.12370018661022186,-0.1446053832769394,0.02489982172846794
1720787097751895000,9.36289501953125,-0.14607007801532745,-0.08814803510904312,0.0025299284607172012
1720787097761909000,9.372908935546874,-0.16524426639080048,0.010918638668954372,-0.008122402243316174
1720787097771922700,9.382922607421875,-0.19294032454490662,0.09187635034322739,-0.0027962366584688425
1720787097781936600,9.3929365234375,-0.2057231217622757,0.12170287221670151,0.03342168778181076
1720787097791950600,9.40295068359375,-0.20785360038280487,0.12063764035701752,0.08774857223033905
1720787097801964300,9.41296435546875,-0.19187510013580322,0.04287562891840935,0.13035789132118225
1720787097811978200,9.422978271484375,-0.1737661361694336,-0.019973119720816612,0.15485824644565582
1720787097821992000,9.432991943359376,-0.1631138026714325,-0.09773512929677963,0.16018441319465637
1720787097832006000,9.443005859375,-0.1620485782623291,-0.16058388352394104,0.1346188187599182
1720787097842019800,9.453019775390626,-0.14820054173469543,-0.2085193693637848,0.0930747389793396
1720787097852033500,9.463033447265625,-0.11091738939285278,-0.1968017965555191,0.04513924941420555
1720787097862047500,9.473047607421876,-0.0778951644897461,-0.05938674136996269,0.0003994623839389533
1720787097872061200,9.483061279296875,-0.054460037499666214,0.04713656008243561,-0.03368799388408661
1720787097882075100,9.4930751953125,-0.041677240282297134,0.15685556828975677,-0.05392742156982422
1720787097892088800,9.5030888671875,-0.036351077258586884,0.23248711228370667,-0.06351451575756073
1720787097902102500,9.5131025390625,-0.0001331541279796511,0.23248711228370667,-0.07629731297492981
1720787097912116500,9.523116455078124,0.06271559745073318,0.23248711228370667,-0.10186290740966797
1720787097922130200,9.533130126953125,0.13728190958499908,0.2090519815683365,-0.1412765234708786
1720787097932144000,9.54314404296875,0.19373925030231476,0.24207420647144318,-0.20199480652809143
1720787097942157800,9.55315771484375,0.23847904801368713,0.25698745250701904,-0.2488650679588318
1720787097952171500,9.563171630859374,0.2768274247646332,0.3155752718448639,-0.25419121980667114
1720787097962185500,9.573185546875,0.2821536064147949,0.4551208019256592,-0.22436471283435822
1720787097972199200,9.58319921875,0.2746969759464264,0.5808182954788208,-0.17962491512298584
1720787097982213000,9.593213134765625,0.2715012729167938,0.663906455039978,-0.13701559603214264
1720787097992226800,9.603226806640626,0.2544575333595276,0.7065157890319824,-0.09760197252035141
1720787098002240500,9.613240478515625,0.25871846079826355,0.5840139985084534,-0.05925358831882477
1720787098012254500,9.62325439453125,0.2523270845413208,0.44659894704818726,-0.03688369318842888
1720787098022268200,9.63326806640625,0.22463101148605347,0.30705341696739197,-0.05073172226548195
1720787098032282000,9.6432822265625,0.19267402589321136,0.20479105412960052,-0.0880148783326149
1720787098042295800,9.6532958984375,0.16284750401973724,0.12809427082538605,-0.1316894292831421
1720787098052309800,9.663309814453125,0.13302096724510193,0.13874660432338715,-0.15938548743724823
1720787098062323500,9.673323486328124,0.1042596846818924,0.25485700368881226,-0.15725502371788025
1720787098072337200,9.683337158203125,0.11171631515026093,0.31131434440612793,-0.13914605975151062
1720787098082351000,9.69335107421875,0.13941237330436707,0.3049229383468628,-0.1093195378780365
1720787098092364800,9.70336474609375,0.15432563424110413,0.20585627853870392,-0.07203638553619385
1720787098102378800,9.713378662109376,0.1553908735513687,0.07057169079780579,-0.02729659713804722
1720787098112392400,9.723392333984375,0.145803764462471,-0.05512581020593643,0.0185084231197834
1720787098122406100,9.73340625,0.10212921351194382,-0.12756165862083435,0.039813082665205
1720787098132420000,9.743420166015625,0.06804175674915314,-0.21491076052188873,0.05153064802289009
1720787098142433800,9.753433837890626,0.043541401624679565,-0.2276935577392578,0.07070484012365341
1720787098152447700,9.76344775390625,0.016910573467612267,-0.18188853561878204,0.09413997083902359
1720787098162461400,9.77346142578125,0.010519175790250301,-0.1861494779586792,0.10905323177576065
1720787098172475400,9.783475341796875,0.004127778112888336,-0.10732222348451614,0.11011846363544464
1720787098182489000,9.793489013671875,0.009453942999243736,-0.10945269465446472,0.10266183316707611
1720787098192503000,9.8035029296875,0.022236740216612816,-0.18295377492904663,0.08987903594970703
1720787098202516700,9.813516845703125,0.020106272771954536,-0.3150426745414734,0.08348763734102249
1720787098212530700,9.82353076171875,-0.027829213067889214,-0.36630702018737793,0.08561810106039047
1720787098222544600,9.833544677734375,-0.07363422960042953,-0.4121120274066925,0.10585752874612808
1720787098232558300,9.843558349609374,-0.11411308497190475,-0.4121120274066925,0.13035789132118225
1720787098242572300,9.853572265625,-0.15033100545406342,-0.337412565946579,0.15059731900691986
1720787098252586000,9.8635859375,-0.16417904198169708,-0.28947708010673523,0.15379302203655243
1720787098262600000,9.873599853515625,-0.16630950570106506,-0.18827994167804718,0.13994498550891876
1720787098272614000,9.88361376953125,-0.14713531732559204,-0.1115831583738327,0.1250317245721817
1720787098282627600,9.893627685546875,-0.10772168636322021,-0.06151720881462097,0.10905323177576065
1720787098292641500,9.9036416015625,-0.06404713541269302,-0.06577813625335693,0.08881380409002304
1720787098302655500,9.913655517578125,-0.033155377954244614,-0.07216953486204147,0.04833494871854782
1720787098312669200,9.923669189453125,0.005193010903894901,-0.09986559301614761,-0.007057168986648321
1720787098322683100,9.93368310546875,0.037150003015995026,-0.08814803510904312,-0.0560578890144825
1720787098332696800,9.94369677734375,0.041410934180021286,0.00452724052593112,-0.098667211830616
1720787098342710800,9.953710693359374,0.044606633484363556,0.05246272683143616,-0.12210233509540558
1720787098352724700,9.963724853515625,0.043541401624679565,0.1451379954814911,-0.11464570462703705
1720787098362738400,9.973738525390624,0.042476166039705276,0.1440727710723877,-0.08908011019229889
1720787098372752400,9.98375244140625,0.040345702320337296,0.10465914756059647,-0.06031882017850876
1720787098382766000,9.99376611328125,0.037150003015995026,0.021570969372987747,-0.03901416063308716
1720787098392780000,10.003780029296875,0.014780107885599136,-0.021038351580500603,-0.03155753016471863
1720787098402794000,10.0137939453125,-0.00226362026296556,-0.08388710021972656,-0.03049229457974434
1720787098412807700,10.0238076171875,-0.012915950268507004,-0.09240896254777908,-0.03368799388408661
1720787098422821600,10.033821533203126,-0.011850717477500439,-0.06258244067430496,-0.03049229457974434
1720787098432835600,10.043835693359375,0.009453942999243736,-0.0583215095102787,-0.02197043038904667
1720787098442849300,10.053849365234376,0.022236740216612816,0.00452724052593112,-0.008122402243316174
1720787098452863200,10.06386328125,0.03608476743102074,-0.019973119720816612,0.0003994623839389533
1720787098462877000,10.073876953125,0.058454662561416626,-0.07536523789167404,0.0014646954368799925
1720787098472891000,10.083890869140625,0.06484606117010117,-0.1222354918718338,-0.008122402243316174
1720787098482904800,10.09390478515625,0.043541401624679565,-0.12010502070188522,-0.01664426550269127
1720787098492918500,10.10391845703125,0.015845341607928276,-0.15206201374530792,-0.02836182899773121
1720787098502932500,10.113932373046875,-0.025698747485876083,-0.10306129604578018,-0.03688369318842888
1720787098512946400,10.123946533203124,-0.060851436108350754,-0.07856093347072601,-0.03688369318842888
1720787098522960100,10.133960205078125,-0.07363422960042953,-0.06045197322964668,-0.02410089783370495
1720787098532974000,10.14397412109375,-0.08961272984743118,-0.0050598569214344025,0.008921326138079166
1720787098542987800,10.15398779296875,-0.09174319356679916,-0.0370168462395668,0.04407401755452156
1720787098553001700,10.164001708984374,-0.0778951644897461,-0.08814803510904312,0.07283531129360199
1720787098563015700,10.174015625,-0.054460037499666214,-0.1541924774646759,0.08135717362165451
1720787098573029400,10.184029296875,-0.031024912372231483,-0.1659100502729416,0.06857437640428543
1720787098583043300,10.194043212890625,0.0009320789249613881,-0.19360610842704773,0.03235645219683647
1720787098593057000,10.20405712890625,0.013714875094592571,-0.12543119490146637,-0.007057168986648321
1720787098603071000,10.214071044921875,0.023301972076296806,-0.08814803510904312,-0.04114462435245514
1720787098613085000,10.2240849609375,0.028628136962652206,-0.012516488321125507,-0.06777545064687729
1720787098623098600,10.2340986328125,0.03288906812667847,-0.0007989247678779066,-0.07097115367650986
1720787098633112600,10.244112548828125,0.03928046673536301,0.014114337973296642,-0.05925358831882477
1720787098643126500,10.25412646484375,0.044606633484363556,-0.002929390873759985,-0.04434032365679741
1720787098653140200,10.26414013671875,0.033954303711652756,0.008788172155618668,-0.0347532257437706
1720787098663154200,10.274154296875,0.029693370684981346,-0.012516488321125507,-0.03049229457974434
1720787098673168000,10.28416796875,0.017975807189941406,0.006657706573605537,-0.02729659713804722
1720787098683181800,10.294181884765624,0.007323476951569319,-0.012516488321125507,-0.01983996480703354
1720787098693195800,10.30419580078125,0.013714875094592571,-0.03169068321585655,-0.012383334338665009
1720787098703209500,10.31420947265625,0.016910573467612267,0.013049104250967503,0.006790860556066036
1720787098713223400,10.324223388671875,0.016910573467612267,-0.009320789016783237,0.02489982172846794
1720787098723237400,10.3342373046875,0.019041040912270546,-0.07323476672172546,0.03555215150117874
1720787098733251000,10.3442509765625,0.024367205798625946,-0.08175663650035858,0.03342168778181076
1720787098743265000,10.35426513671875,0.037150003015995026,-0.10306129604578018,0.01637795753777027
1720787098753278700,10.36427880859375,0.045671865344047546,-0.09666989743709564,-0.009187635034322739
1720787098763292700,10.374292724609376,0.037150003015995026,-0.04447348043322563,-0.02836182899773121
1720787098773306600,10.384306640625,0.041410934180021286,-0.06684337556362152,-0.0347532257437706
1720787098783320300,10.3943203125,0.030758604407310486,-0.0050598569214344025,-0.03049229457974434
1720787098793334300,10.404334228515625,0.010519175790250301,0.0077229393646121025,-0.01877473294734955
1720787098803348000,10.414347900390625,-0.009720250964164734,-0.0050598569214344025,-0.000665770610794425
1720787098813362000,10.42436181640625,-0.017176883295178413,-0.04660394415259361,0.011051792651414871
1720787098823376000,10.4343759765625,-0.029959678649902344,-0.05086487531661987,0.015312724746763706
1720787098833389600,10.4443896484375,-0.027829213067889214,-0.08388710021972656,0.0025299284607172012
1720787098843403500,10.454403564453125,-0.025698747485876083,-0.05086487531661987,-0.01983996480703354
1720787098853417500,10.46441748046875,-0.013981183059513569,-0.05619104206562042,-0.03262276202440262
1720787098863431200,10.47443115234375,-0.00226362026296556,0.019440501928329468,-0.04434032365679741
1720787098873445000,10.484445068359374,0.0009320789249613881,0.05778888985514641,-0.0560578890144825
1720787098883458800,10.494458740234375,-0.004394086077809334,0.05459319427609444,-0.05818835273385048
1720787098893472800,10.50447265625,-0.008655018173158169,0.014114337973296642,-0.04966649040579796
1720787098903486700,10.51448681640625,-0.006524552125483751,-0.03488638252019882,-0.03581846132874489
1720787098913500400,10.52450048828125,0.005193010903894901,-0.07856093347072601,-0.02623136341571808
1720787098923514400,10.534514404296875,0.004127778112888336,-0.03382114693522453,-0.02410089783370495
1720787098933528000,10.544528076171876,-0.004394086077809334,-0.013581721112132072,-0.02090519852936268
1720787098943542000,10.5545419921875,0.004127778112888336,0.006657706573605537,-0.014513799920678139
1720787098953556000,10.564555908203126,0.012649642303586006,0.03222329914569855,0.0003994623839389533
1720787098963569700,10.574569580078125,0.022236740216612816,0.022636201232671738,0.007856093347072601
1720787098973583600,10.58458349609375,0.030758604407310486,-0.0018641578499227762,0.0014646954368799925
1720787098983597600,10.59459765625,0.028628136962652206,0.00133154122158885,-0.01877473294734955
1720787098993611300,10.604611328125,0.03288906812667847,-0.0370168462395668,-0.03901416063308716
1720787099003625200,10.614625244140624,0.026497671380639076,0.00133154122158885,-0.05818835273385048
1720787099013639000,10.624638916015625,0.008388710208237171,0.03541899845004082,-0.0667102187871933
1720787099023652900,10.63465283203125,-0.0011983871227130294,0.04287562891840935,-0.05925358831882477
1720787099033666800,10.644666748046875,-0.008655018173158169,0.07163692265748978,-0.0347532257437706
1720787099043680500,10.654680419921876,-0.010785484686493874,0.05991935729980469,-0.010252867825329304
1720787099053694500,10.664694580078125,-0.006524552125483751,0.026897134259343147,0.006790860556066036
1720787099063708400,10.67470849609375,-0.011850717477500439,0.021570969372987747,0.015312724746763706
1720787099073722000,10.68472216796875,-0.006524552125483751,-0.013581721112132072,0.0185084231197834
1720787099083736000,10.694736083984376,0.007323476951569319,0.0023967742454260588,0.008921326138079166
1720787099093749800,10.704749755859375,0.022236740216612816,0.0077229393646121025,0.006790860556066036
1720787099103763700,10.714763671875,0.035019535571336746,0.04181039705872536,0.01637795753777027
1720787099113777700,10.724777587890625,0.040345702320337296,0.0790935531258583,0.02809552103281021
1720787099123791400,10.734791259765625,0.047802332788705826,0.06524552404880524,0.03448691964149475
1720787099133805300,10.744805419921875,0.061650361865758896,0.019440501928329468,0.03129122033715248
1720787099143819000,10.754819091796875,0.07017222791910172,0.014114337973296642,0.01637795753777027
1720787099153832700,10.764832763671874,0.08082455396652222,-0.015712186694145203,-0.009187635034322739
1720787099163846700,10.7748466796875,0.0829550251364708,0.03328853100538254,-0.04114462435245514
1720787099173860400,10.7848603515625,0.06910699605941772,0.06204982474446297,-0.05712312087416649
1720787099183874300,10.794874267578125,0.04993279650807381,0.08548495173454285,-0.05392742156982422
1720787099193888000,10.804887939453126,0.013714875094592571,0.132355198264122,-0.02942706272006035
1720787099203902000,10.81490185546875,-0.022503048181533813,0.11744193732738495,0.0014646954368799925
1720787099213915600,10.82491552734375,-0.04593817517161369,0.08122401684522629,0.02809552103281021
1720787099223929300,10.834929443359375,-0.066177599132061,0.05565842613577843,0.04300878196954727
1720787099233943300,10.844943359375,-0.06298190355300903,-0.03169068321585655,0.05472634732723236
1720787099243957000,10.85495703125,-0.053394805639982224,-0.07003907114267349,0.05685681104660034
1720787099253971000,10.864970947265626,-0.048068638890981674,-0.09666989743709564,0.05792204663157463
1720787099263984600,10.874984619140625,-0.033155377954244614,-0.10519175976514816,0.06324820965528488
1720787099273998300,10.884998291015625,-0.026763979345560074,-0.06790860742330551,0.0717700719833374
1720787099284012300,10.89501220703125,-0.031024912372231483,-0.04340824484825134,0.07709623873233795
1720787099294026000,10.90502587890625,-0.026763979345560074,-0.04553871229290962,0.07283531129360199
1720787099304040000,10.9150400390625,-0.026763979345560074,-0.04553871229290962,0.06005251035094261
1720787099314053600,10.9250537109375,-0.019307348877191544,-0.07962616533041,0.04726971685886383
1720787099324067600,10.935067626953124,-0.017176883295178413,-0.0476691760122776,0.03129122033715248
1720787099334081300,10.945081298828125,-0.013981183059513569,-0.05299534276127815,0.02276935614645481
1720787099344095000,10.955094970703126,-0.004394086077809334,-0.027429750189185143,0.02596505545079708
1720787099354109000,10.96510888671875,0.001997311832383275,0.0077229393646121025,0.03555215150117874
1720787099364122600,10.97512255859375,0.004127778112888336,0.014114337973296642,0.03661738336086273
1720787099374136600,10.985136474609375,0.005193010903894901,0.005592473316937685,0.03448691964149475
1720787099384150300,10.995150390625,-0.0001331541279796511,0.015179570764303207,0.02489982172846794
1720787099394164000,11.0051640625,-0.0001331541279796511,-0.03382114693522453,0.007856093347072601
1720787099404178000,11.015177978515625,-0.0033288532868027687,-0.019973119720816612,-0.015579032711684704
1720787099414191600,11.025191650390624,-0.004394086077809334,-0.03488638252019882,-0.03368799388408661
1720787099424205600,11.03520556640625,-0.004394086077809334,-0.016777420416474342,-0.0347532257437706
1720787099434219300,11.04521923828125,-0.0033288532868027687,0.03222329914569855,-0.02197043038904667
1720787099444233000,11.05523291015625,-0.005459319334477186,0.04394086077809334,-0.0027962366584688425
1720787099454247000,11.065246826171874,-0.005459319334477186,0.03328853100538254,0.014247491955757141
1720787099464260900,11.0752607421875,-0.005459319334477186,0.05778888985514641,0.02703028731048107
1720787099474274600,11.085274658203126,0.009453942999243736,0.017310036346316338,0.0238345880061388
1720787099484288500,11.09528857421875,-0.0001331541279796511,0.0482017956674099,0.008921326138079166
1720787099494302200,11.10530224609375,-0.013981183059513569,0.005592473316937685,-0.0038614696823060513
1720787099504316200,11.115316162109375,-0.026763979345560074,0.03222329914569855,-0.009187635034322739
1720787099514330000,11.125330078125,-0.03528584539890289,0.025831900537014008,-0.0038614696823060513
1720787099524343800,11.13534375,-0.03954677656292915,0.023701434955000877,0.012117025442421436
1720787099534357800,11.145357666015625,-0.04274247586727142,0.04926702752709389,0.02703028731048107
1720787099544371500,11.155371337890625,-0.041677240282297134,0.04287562891840935,0.03874785080552101
1720787099554385400,11.165385498046875,-0.031024912372231483,0.011983871459960938,0.04087831825017929
1720787099564399400,11.1753994140625,-0.022503048181533813,0.027962366119027138,0.03874785080552101
1720787099574413000,11.1854130859375,-0.005459319334477186,-0.015712186694145203,0.03129122033715248
1720787099584427000,11.195427001953124,0.009453942999243736,-0.00399462366476655,0.02809552103281021
1720787099594441000,11.20544091796875,0.024367205798625946,-0.014646953903138638,0.03022598661482334
1720787099604454700,11.21545458984375,0.03928046673536301,-0.014646953903138638,0.02703028731048107
1720787099614468600,11.225468505859375,0.045671865344047546,-0.008255556225776672,0.012117025442421436
1720787099624482300,11.235482421875,0.045671865344047546,-0.016777420416474342,0.0003994623839389533
1720787099634496300,11.245496337890625,0.038215234875679016,0.016244804486632347,-0.014513799920678139
1720787099644510200,11.25551025390625,0.011584409512579441,0.05565842613577843,-0.02836182899773121
1720787099654524000,11.26552392578125,-0.015046416781842709,0.03648423030972481,-0.0347532257437706
1720787099664537900,11.275537841796876,-0.048068638890981674,0.06524552404880524,-0.02303566411137581
1720787099674551600,11.285551513671875,-0.07363422960042953,0.05033225938677788,-0.005991935729980469
1720787099684565500,11.2955654296875,-0.08215609937906265,0.022636201232671738,0.007856093347072601
1720787099694579500,11.305579345703125,-0.0874822586774826,0.04394086077809334,0.0185084231197834
1720787099704593200,11.31559326171875,-0.08002562820911407,0.0077229393646121025,0.02916075475513935
1720787099714607000,11.325607177734375,-0.067242830991745,0.015179570764303207,0.03129122033715248
1720787099724621000,11.33562109375,-0.053394805639982224,-0.025299284607172012,0.03448691964149475
1720787099734634800,11.345634765625,-0.04274247586727142,-0.028494983911514282,0.039813082665205
1720787099744648700,11.355648681640625,-0.031024912372231483,-0.022103585302829742,0.04833494871854782
1720787099754662400,11.365662353515624,-0.017176883295178413,-0.029560215771198273,0.05366111174225807
1720787099764676400,11.37567626953125,-0.008655018173158169,-0.016777420416474342,0.05472634732723236
1720787099774690300,11.385690185546874,0.005193010903894901,-0.0018641578499227762,0.05153064802289009
1720787099784704000,11.3957041015625,0.030758604407310486,-0.017842652276158333,0.04726971685886383
1720787099794718000,11.405718017578126,0.04993279650807381,-0.0007989247678779066,0.039813082665205
1720787099804732000,11.41573193359375,0.0712374597787857,-0.022103585302829742,0.03448691964149475
1720787099814745600,11.42574560546875,0.08828118443489075,-0.011451254598796368,0.03022598661482334
1720787099824759600,11.435759521484375,0.09147688746452332,0.009853405877947807,0.02489982172846794
1720787099834773200,11.445773193359376,0.07762885838747025,0.010918638668954372,0.02063889056444168
1720787099844787200,11.455787109375,0.06484606117010117,0.031158065423369408,0.008921326138079166
1720787099854801200,11.46580126953125,0.05632419511675835,0.03967992961406708,-0.0038614696823060513
1720787099864814800,11.47581494140625,0.037150003015995026,0.07270215451717377,-0.02197043038904667
1720787099874828800,11.485828857421875,0.008388710208237171,0.06524552404880524,-0.03794892504811287
1720787099884842500,11.495842529296874,-0.027829213067889214,0.06098458915948868,-0.04647079110145569
1720787099894856400,11.5058564453125,-0.06404713541269302,0.05246272683143616,-0.04007939249277115
1720787099904870400,11.515870361328124,-0.0981345921754837,0.020505735650658607,-0.02410089783370495
1720787099914884000,11.525884033203125,-0.10985215753316879,-0.029560215771198273,-0.0027962366584688425
1720787099924898000,11.53589794921875,-0.10559122264385223,-0.025299284607172012,0.015312724746763706
1720787099934912000,11.545912109375,-0.08322133123874664,-0.05725627392530441,0.03129122033715248
1720787099944925700,11.55592578125,-0.07576470077037811,-0.00399462366476655,0.03874785080552101
1720787099954939600,11.565939697265625,-0.06830807030200958,-0.025299284607172012,0.04194355010986328
1720787099964953300,11.575953369140626,-0.06830807030200958,-0.016777420416474342,0.05366111174225807
1720787099974967300,11.58596728515625,-0.06937330216169357,-0.014646953903138638,0.06750914454460144
1720787099984981200,11.595981201171876,-0.07043853402137756,-0.05512581020593643,0.0717700719833374
1720787099994995000,11.605994873046875,-0.06830807030200958,-0.06684337556362152,0.06644391268491745
1720787100005009000,11.6160087890625,-0.06298190355300903,-0.04873441159725189,0.05579157918691635
1720787100015022600,11.626022705078125,-0.053394805639982224,-0.04553871229290962,0.04407401755452156
1720787100025036500,11.63603662109375,-0.047003407031297684,-0.03595161437988281,0.039813082665205
1720787100035050500,11.646050537109375,-0.03528584539890289,-0.022103585302829742,0.04087831825017929
1720787100045064200,11.656064208984375,-0.019307348877191544,-0.011451254598796368,0.04300878196954727
1720787100055078100,11.666078125,-0.00226362026296556,-0.011451254598796368,0.039813082665205
1720787100065092000,11.676092041015625,0.020106272771954536,-0.03382114693522453,0.02809552103281021
1720787100075105800,11.686105712890624,0.03608476743102074,-0.023168819025158882,0.007856093347072601
1720787100085119700,11.69611962890625,0.04673709720373154,-0.03382114693522453,-0.01664426550269127
1720787100095133400,11.706133544921874,0.03288906812667847,0.014114337973296642,-0.03581846132874489
1720787100105147400,11.7161474609375,0.020106272771954536,0.0023967742454260588,-0.04114462435245514
1720787100115161300,11.726161376953126,-0.0001331541279796511,0.029027599841356277,-0.0347532257437706
1720787100125175000,11.736175048828125,-0.022503048181533813,0.016244804486632347,-0.01770949922502041
1720787100135189000,11.74618896484375,-0.034220609813928604,-0.015712186694145203,0.00359516148455441
1720787100145203000,11.756202880859375,-0.03528584539890289,-0.013581721112132072,0.02063889056444168
1720787100155216600,11.766216552734376,-0.03209014609456062,-0.009320789016783237,0.03342168778181076
1720787100165230600,11.776230712890625,-0.03528584539890289,0.011983871459960938,0.03342168778181076
1720787100175244300,11.786244384765626,-0.03209014609456062,-0.013581721112132072,0.03768261894583702
1720787100185258200,11.79625830078125,-0.019307348877191544,-0.014646953903138638,0.04300878196954727
1720787100195272200,11.806272216796875,-0.004394086077809334,-0.029560215771198273,0.04513924941420555
1720787100205286000,11.816285888671874,0.004127778112888336,-0.03595161437988281,0.03768261894583702
1720787100215299800,11.8262998046875,0.014780107885599136,-0.03595161437988281,0.0185084231197834
1720787100225313500,11.8363134765625,0.022236740216612816,-0.009320789016783237,-0.000665770610794425
1720787100235327500,11.846327392578125,0.023301972076296806,0.0077229393646121025,-0.01770949922502041
1720787100245341400,11.856341552734374,0.017975807189941406,0.025831900537014008,-0.02729659713804722
1720787100255355100,11.866355224609375,0.011584409512579441,0.0482017956674099,-0.02303566411137581
1720787100265369000,11.876369140625,0.007323476951569319,0.04713656008243561,-0.005991935729980469
1720787100275383000,11.886383056640625,-0.0001331541279796511,0.05672365799546242,0.012117025442421436
1720787100285396700,11.896396728515626,-0.0033288532868027687,0.05139749497175217,0.02596505545079708
1720787100295410700,11.90641064453125,-0.004394086077809334,0.03648423030972481,0.03768261894583702
1720787100305424400,11.91642431640625,0.017975807189941406,-0.014646953903138638,0.04833494871854782
1720787100315438300,11.926438232421875,0.03608476743102074,-0.0007989247678779066,0.04087831825017929
1720787100325452300,11.936452392578126,0.05312849581241608,-0.04127778112888336,0.0238345880061388
1720787100335466000,11.946466064453125,0.055258963257074356,-0.012516488321125507,0.008921326138079166
1720787100345480000,11.95647998046875,0.043541401624679565,-0.010386021807789803,-0.011318100616335869
1720787100355494000,11.966493896484375,0.029693370684981346,-0.026364516466856003,-0.02942706272006035
1720787100365507600,11.976507568359375,0.010519175790250301,0.005592473316937685,-0.04434032365679741
1720787100375521500,11.986521484375,0.001997311832383275,-0.0018641578499227762,-0.04753602296113968
1720787100385535200,11.99653515625,-0.011850717477500439,0.04607132822275162,-0.04327509179711342
1720787100395549200,12.006549072265624,-0.025698747485876083,0.05139749497175217,-0.02836182899773121
1720787100405563100,12.016563232421875,-0.031024912372231483,0.06524552404880524,-0.005991935729980469
1720787100415576800,12.026576904296874,-0.028894444927573204,0.06737598776817322,0.013182258233428001
1720787100425590500,12.036590576171875,-0.025698747485876083,0.05459319427609444,0.02489982172846794
1720787100435604500,12.0466044921875,-0.008655018173158169,0.019440501928329468,0.02489982172846794
1720787100445618200,12.0566181640625,0.011584409512579441,0.008788172155618668,0.015312724746763706
1720787100455632100,12.066632080078126,0.028628136962652206,-0.0018641578499227762,-0.008122402243316174
1720787100465645800,12.076645751953125,0.025432437658309937,0.005592473316937685,-0.0347532257437706
1720787100475659500,12.086659423828126,0.015845341607928276,-0.0018641578499227762,-0.04860125854611397
1720787100485673500,12.096673583984375,-0.0033288532868027687,0.013049104250967503,-0.04220985993742943
1720787100495687200,12.106687255859375,-0.024633513763546944,0.013049104250967503,-0.03155753016471863
1720787100505701000,12.116701171875,-0.03954677656292915,-0.008255556225776672,-0.01770949922502041
1720787100515714800,12.12671484375,-0.04593817517161369,-0.00399462366476655,-0.0027962366584688425
1720787100525728800,12.136728759765624,-0.03954677656292915,-0.018907885998487473,0.006790860556066036
1720787100535742500,12.146742431640625,-0.043807707726955414,0.00452724052593112,0.005725627299398184
1720787100545756200,12.156756103515624,-0.048068638890981674,-0.012516488321125507,0.006790860556066036
1720787100555770000,12.16677001953125,-0.0555252730846405,0.00452724052593112,0.013182258233428001
1720787100565783800,12.17678369140625,-0.05659050494432449,-0.010386021807789803,0.02170412242412567
1720787100575797800,12.1867978515625,-0.051264338195323944,-0.03914731368422508,0.03342168778181076
1720787100585811500,12.1968115234375,-0.044872939586639404,-0.017842652276158333,0.03661738336086273
1720787100595825200,12.2068251953125,-0.027829213067889214,-0.030625449493527412,0.03342168778181076
1720787100605839000,12.216839111328126,-0.010785484686493874,-0.009320789016783237,0.02489982172846794
1720787100615852800,12.226852783203125,0.008388710208237171,-0.03808208182454109,0.01957365684211254
1720787100625866800,12.23686669921875,0.022236740216612816,-0.030625449493527412,0.01744319126009941
1720787100635880400,12.24688037109375,0.029693370684981346,-0.025299284607172012,0.014247491955757141
1720787100645894400,12.256894287109375,0.03608476743102074,-0.04553871229290962,0.009986559860408306
1720787100655908000,12.266908203125,0.045671865344047546,-0.024234050884842873,-0.000665770610794425
1720787100665921800,12.276921875,0.057389430701732635,-0.018907885998487473,-0.012383334338665009
