time,seconds_elapsed,z,y,x
1696965115855345400,0.170345458984375,-1.1035528182983398,-0.7273101806640625,-0.15873605012893677
1696965115865238800,0.18023876953125,-0.21435832977294922,-0.3410921096801758,-0.031439244747161865
1696965115875165400,0.19016552734375,-0.3370065689086914,-0.1614546775817871,0.18138569593429565
1696965115885128000,0.2001279296875,0.1180734634399414,-0.1513444185256958,-0.026197195053100586
1696965115895127000,0.210126953125,-1.1044349670410156,-0.28212666511535645,-0.38099735975265503
1696965115905161500,0.220161376953125,-0.6767053604125977,-0.4243077039718628,0.20173031091690063
1696965115915229200,0.230229248046875,0.47942161560058594,-0.3109714984893799,0.24876302480697632
1696965115925326800,0.240326904296875,-2.35299015045166,-0.12034809589385986,-0.4215272068977356
1696965115935449900,0.250449951171875,0.15388202667236328,-0.3301025629043579,0.07756286859512329
1696965115945592600,0.260592529296875,-0.8752012252807617,0.08724939823150635,0.252779483795166
1696965115955749600,0.27074951171875,-0.09374809265136719,-0.494473934173584,0.29968327283859253
1696965115965914000,0.2809140625,-2.739534854888916,-0.20691287517547607,-0.27467548847198486
1696965115976080100,0.291080078125,0.7604303359985352,0.21510744094848633,0.7656250596046448
1696965115986128400,0.30112841796875,-1.0324716567993164,-0.1650604009628296,0.2080811858177185
1696965115996142600,0.311142578125,-1.5263080596923828,-0.37181198596954346,-0.5731366872787476
1696965116006156800,0.32115673828125,-0.1589183807373047,0.3807419538497925,-0.11574304103851318
1696965116016171000,0.3311708984375,-0.921630859375,-0.37506139278411865,0.04422140121459961
1696965116026185200,0.341185302734375,-0.42130565643310547,-0.02647578716278076,-0.1329507827758789
1696965116036199400,0.351199462890625,-1.1036996841430664,-0.04595446586608887,-0.36325281858444214
1696965116046213400,0.36121337890625,0.31325626373291016,0.33709716796875,0.275876522064209
1696965116056227600,0.3712275390625,-0.3408479690551758,-0.2178877592086792,0.05061119794845581
1696965116066241800,0.38124169921875,-1.0854673385620117,-0.11452758312225342,-0.40560609102249146
1696965116076256000,0.391256103515625,0.1923351287841797,-0.04645204544067383,-0.04919713735580444
1696965116086270200,0.401270263671875,0.16812419891357422,0.14389491081237793,-0.06691092252731323
1696965116096284400,0.411284423828125,-0.0923776626586914,-0.6991656422615051,-0.1906304955482483
1696965116106298400,0.42129833984375,-0.9176225662231445,-0.0859140157699585,-0.18018966913223267
1696965116116312600,0.4313125,0.6914224624633789,-0.2797433137893677,0.07435387372970581
1696965116126326800,0.441326904296875,-0.4598512649536133,0.22922289371490479,-0.0667194128036499
1696965116136341000,0.451341064453125,-0.3071308135986328,-0.17614781856536865,0.10658740997314453
1696965116146355200,0.461355224609375,0.04602336883544922,-0.29455316066741943,-0.3769461512565613
1696965116156369400,0.471369384765625,-0.46428966522216797,-0.07797348499298096,-0.06704401969909668
1696965116166383400,0.48138330078125,0.5895004272460938,0.1049494743347168,-0.6919223070144653
1696965116176397600,0.4913974609375,-2.5573201179504395,0.05704760551452637,-0.23251253366470337
1696965116186411800,0.501411865234375,2.5564680099487305,-0.06726372241973877,0.8636523485183716
1696965116196426000,0.511426025390625,-1.523996353149414,-0.5871343612670898,-0.12506192922592163
1696965116206440200,0.521440185546875,0.009063720703125,0.02181684970855713,-0.9927194118499756
1696965116216454400,0.531454345703125,0.4447927474975586,0.12759172916412354,0.042793989181518555
1696965116226468400,0.54146826171875,-0.3186502456665039,-0.389850378036499,0.04689443111419678
1696965116236482600,0.551482666015625,-0.5557422637939453,-0.37934553623199463,-0.31963634490966797
1696965116246496800,0.561496826171875,0.19242286682128906,-0.0194627046585083,-0.39305055141448975
1696965116256511000,0.571510986328125,1.0012121200561523,0.14713919162750244,0.06872105598449707
1696965116266525200,0.581525146484375,0.10404777526855469,-0.44199180603027344,-0.028479278087615967
1696965116276539400,0.591539306640625,-0.8087663650512695,-0.23979371786117554,0.3419281244277954
1696965116286553300,0.60155322265625,1.2844133377075195,0.10531902313232422,0.8052847981452942
1696965116296567600,0.611567626953125,0.6725425720214844,0.14851117134094238,0.05475848913192749
1696965116306581800,0.621581787109375,-0.9149179458618164,-0.20545709133148193,-0.24139559268951416
1696965116316596000,0.631595947265625,-0.7660808563232422,-0.276736855506897,0.4688206911087036
1696965116326610200,0.641610107421875,0.8477745056152344,0.7568126916885376,0.34506022930145264
1696965116336624400,0.651624267578125,-0.890538215637207,-0.6509616374969482,-0.17081183195114136
1696965116346638600,0.661638671875,-1.2281665802001953,-0.005307555198669434,-0.33846747875213623
1696965116356652500,0.671652587890625,0.8886985778808594,0.25231611728668213,0.19318372011184692
1696965116366666800,0.681666748046875,-1.2509527206420898,-0.18228375911712646,0.13743096590042114
1696965116376681000,0.691680908203125,-1.1785078048706055,-0.44922566413879395,0.03661280870437622
1696965116386695200,0.701695068359375,0.6926727294921875,0.26104891300201416,0.11292159557342529
1696965116396709400,0.71170947265625,-0.9688749313354492,-0.13987970352172852,-0.018513143062591553
1696965116406723600,0.7217236328125,-0.1047210693359375,-0.5157690048217773,-0.16086041927337646
1696965116416737500,0.731737548828125,-1.0326929092407227,-0.1734142303466797,-0.3128371834754944
1696965116426751700,0.741751708984375,0.7241458892822266,-0.16624242067337036,-0.2600071430206299
1696965116436766000,0.751765869140625,-1.28314208984375,-0.14597469568252563,-0.6531084179878235
1696965116446780200,0.7617802734375,-0.0977487564086914,0.16719704866409302,-0.40601617097854614
1696965116456794400,0.77179443359375,0.27187538146972656,-0.676090657711029,-0.4450701177120209
1696965116466808600,0.78180859375,0.835205078125,-0.09087622165679932,-0.16917622089385986
1696965116476822500,0.791822509765625,-0.34766292572021484,-0.6257157325744629,-0.5566962957382202
1696965116486836700,0.801836669921875,-0.6679220199584961,0.4861815571784973,0.20440202951431274
1696965116496851000,0.811850830078125,1.8551578521728516,0.01591193675994873,0.25884294509887695
1696965116506865200,0.821865234375,-1.5679540634155273,-0.056732118129730225,0.20923101902008057
1696965116516879400,0.83187939453125,1.6723136901855469,-0.07958817481994629,-0.4259907007217407
1696965116526893600,0.8418935546875,-1.3090238571166992,-0.0866270661354065,0.1481635570526123
1696965116536907500,0.851907470703125,1.3751897811889648,-0.46470165252685547,-0.5142323970794678
1696965116546921700,0.861921630859375,-2.6864981651306152,-0.4328067898750305,-0.5298580527305603
1696965116556936000,0.87193603515625,2.192291259765625,0.32337385416030884,0.5060707926750183
1696965116566950100,0.8819501953125,-1.2464599609375,-0.20449447631835938,-0.3270772695541382
1696965116576964400,0.89196435546875,-0.6815900802612305,-0.43050616979599,-0.10443878173828125
1696965116586978600,0.901978515625,0.2968616485595703,-0.06765693426132202,0.4027790427207947
1696965116596992800,0.91199267578125,-1.2871723175048828,-0.09847122430801392,-0.22678184509277344
1696965116607007000,0.922007080078125,0.8773221969604492,-0.14642584323883057,-0.02500617504119873
1696965116617021200,0.932021240234375,-2.0351734161376953,-0.34206998348236084,-0.6227525472640991
1696965116627035400,0.942035400390625,0.16271305084228516,0.17964565753936768,0.5717378258705139
1696965116637049600,0.952049560546875,0.6913976669311523,0.3468667268753052,0.23967015743255615
1696965116647063800,0.962063720703125,-1.675344467163086,-0.4889603853225708,-0.058725059032440186
1696965116657078000,0.972078125,-0.3059120178222656,0.3254261016845703,0.29063087701797485
1696965116667092200,0.98209228515625,0.4741363525390625,0.2693605422973633,0.4833851456642151
1696965116677106400,0.9921064453125,-0.6826391220092773,-0.10743331909179688,-0.028599917888641357
1696965116687120600,1.00212060546875,-0.5568828582763672,-0.07849276065826416,-0.32486510276794434
1696965116697135000,1.012135009765625,0.2548952102661133,0.3065093755722046,0.08506190776824951
1696965116707149300,1.0221494140625,-0.13204002380371094,-0.4835970401763916,-0.10625499486923218
1696965116717163500,1.03216357421875,-0.5526065826416016,0.17245769500732422,-0.21189218759536743
1696965116727177700,1.042177734375,-0.28166866302490234,-0.5586575269699097,-0.14035314321517944
1696965116737192000,1.05219189453125,0.5751552581787109,0.4238266944885254,0.39140284061431885
1696965116747206100,1.0622060546875,0.7771930694580078,-0.536739706993103,-0.17191123962402344
1696965116757220400,1.072220458984375,-1.3695402145385742,0.039248526096343994,-0.8245078325271606
1696965116767234600,1.082234619140625,2.7091236114501953,-0.13134783506393433,0.5029340386390686
1696965116777248800,1.092248779296875,-1.202733039855957,-0.443994402885437,-0.35507869720458984
1696965116787263000,1.102262939453125,1.285475730895996,-0.18763238191604614,0.01379239559173584
1696965116797277200,1.112277099609375,0.020447731018066406,0.017959892749786377,0.08546125888824463
1696965116807291400,1.12229150390625,0.5850992202758789,-0.3820476531982422,0.18860065937042236
1696965116817305600,1.1323056640625,1.4713001251220703,-0.33993279933929443,-0.3808788061141968
1696965116827319800,1.14231982421875,-1.3090877532958984,-0.22536170482635498,-0.7353994846343994
1696965116837334000,1.152333984375,1.5704774856567383,0.0067940354347229,-0.0964205265045166
1696965116847348200,1.16234814453125,-0.20056724548339844,-0.26072239875793457,-0.3597877323627472
1696965116857362400,1.172362548828125,-0.4262046813964844,-0.6114990711212158,-0.7304427623748779
1696965116867376600,1.182376708984375,-0.023148536682128906,-0.0009489059448242188,-0.7165255546569824
1696965116877390800,1.192390869140625,0.26705074310302734,-0.36480510234832764,-0.49733036756515503
1696965116887405000,1.202405029296875,0.023077011108398438,-0.32720786333084106,-0.6766583323478699
1696965116897419300,1.212419189453125,-0.8834943771362305,-0.33706796169281006,-0.8046392202377319
1696965116907433500,1.22243359375,1.1577157974243164,0.022608041763305664,-0.32928895950317383
1696965116917447700,1.23244775390625,-0.19107818603515625,0.22208786010742188,-0.07209575176239014
1696965116927462000,1.2424619140625,0.3242626190185547,-0.3959169387817383,-0.4240986704826355
1696965116937476400,1.252476318359375,-0.6184558868408203,-0.10203158855438232,-0.0863722562789917
1696965116947490600,1.262490478515625,0.8887853622436523,-0.12905365228652954,0.2642199993133545
1696965116957504800,1.2725048828125,-0.7813634872436523,-0.2561306953430176,-0.620934784412384
1696965116967519000,1.28251904296875,0.7937030792236328,0.2996208667755127,0.24694067239761353
1696965116977533200,1.292533203125,-0.2481536865234375,-0.4063577651977539,-0.4821617901325226
1696965116987547400,1.30254736328125,-0.9107151031494141,0.14004004001617432,-0.3602987229824066
1696965116997561600,1.3125615234375,0.6316385269165039,-0.11065399646759033,0.17391473054885864
1696965117007575800,1.322575927734375,-1.8820500373840332,-0.1371074914932251,-0.10917872190475464
1696965117017590000,1.332590087890625,0.7663803100585938,-0.10129261016845703,0.06709474325180054
1696965117027604200,1.342604248046875,-0.6658573150634766,-0.2113269567489624,-0.38839221000671387
1696965117037618400,1.352618408203125,-0.7077445983886719,0.030896544456481934,-0.3941231966018677
1696965117047632600,1.362632568359375,-0.4734640121459961,0.136857271194458,0.1796606183052063
1696965117057646800,1.372646728515625,-0.2606334686279297,-0.19306981563568115,-0.3767053484916687
1696965117067661000,1.3826611328125,-1.380685806274414,-0.34432339668273926,-0.48210492730140686
1696965117077675300,1.39267529296875,0.3655576705932617,0.061125755310058594,0.26968175172805786
1696965117087689500,1.402689453125,0.6290731430053711,-0.06409716606140137,-0.3341657519340515
1696965117097703700,1.41270361328125,-1.6006908416748047,-0.869707465171814,-0.39522600173950195
1696965117107718700,1.42271875,1.174520492553711,0.7009667158126831,0.44796669483184814
1696965117117733000,1.432733154296875,-0.42263221740722656,-0.9613751173019409,-0.11605089902877808
1696965117127747300,1.442747314453125,0.7744045257568359,-0.11806559562683105,-0.23124539852142334
1696965117137761500,1.452761474609375,0.4977264404296875,-0.08119714260101318,-0.2363523244857788
1696965117147775700,1.462775634765625,-0.8223781585693359,-0.26091480255126953,-0.24848908185958862
1696965117157790000,1.4727900390625,2.236994743347168,-0.1931549310684204,-0.0025786161422729492
1696965117167804200,1.48280419921875,-0.8752946853637695,-0.67128586769104,-0.6490795016288757
1696965117177818400,1.492818359375,0.6162118911743164,-0.49554741382598877,-0.2586928606033325
1696965117187832600,1.50283251953125,0.7643909454345703,0.1603085994720459,0.21696841716766357
1696965117197846800,1.5128466796875,0.9879932403564453,-0.5163842439651489,0.3432086110115051
1696965117207861000,1.522861083984375,-1.2113771438598633,-0.11462998390197754,-0.03326213359832764
1696965117217875200,1.532875244140625,1.4620695114135742,0.23781895637512207,0.19945722818374634
1696965117227889400,1.542889404296875,-0.446563720703125,-0.3721742630004883,-0.05049377679824829
1696965117237903600,1.552903564453125,-0.5093955993652344,-0.7076133489608765,-0.25404906272888184
1696965117247917800,1.562917724609375,-0.2153148651123047,0.09109032154083252,-0.35368332266807556
1696965117257932000,1.57293212890625,-0.2943239212036133,0.17212259769439697,-0.2565982937812805
1696965117267946200,1.5829462890625,-0.3159618377685547,-0.16165757179260254,-0.17000895738601685
1696965117277960400,1.59296044921875,-1.1271438598632812,-0.38786590099334717,-0.5436294078826904
1696965117287974700,1.602974609375,-0.19148635864257812,0.05901074409484863,-0.29931217432022095
1696965117297988900,1.61298876953125,-0.6469345092773438,-0.3629854917526245,-0.4299440383911133
1696965117308003000,1.623003173828125,-0.4998931884765625,-0.18134987354278564,-0.8348026871681213
1696965117318017300,1.633017333984375,-1.4958200454711914,-0.039101243019104004,-0.9301347732543945
1696965117328031500,1.643031494140625,1.9127197265625,-0.015329480171203613,0.0036358237266540527
1696965117338045700,1.653045654296875,-1.7458906173706055,-1.0737649202346802,-0.6336431503295898
1696965117348060200,1.66306005859375,1.007547378540039,0.10506439208984375,-0.41121387481689453
1696965117358074400,1.673074462890625,-0.42728328704833984,-0.10039544105529785,-0.7236804962158203
1696965117368088600,1.683088623046875,0.37555408477783203,-0.4944484233856201,-0.05379986763000488
1696965117378102800,1.693102783203125,-0.06505680084228516,-0.366512656211853,-0.8274321556091309
1696965117388117000,1.703116943359375,-0.45995140075683594,-0.27688419818878174,-0.7953970432281494
1696965117398131200,1.713131103515625,0.8047952651977539,-0.4077029228210449,-0.4600546956062317
1696965117408145400,1.7231455078125,0.8994474411010742,-0.5887724161148071,-0.948451817035675
1696965117418159600,1.73315966796875,-2.1627464294433594,-0.4469500780105591,-1.2562248706817627
1696965117428173800,1.743173828125,2.226811408996582,-0.31396281719207764,0.27069807052612305
1696965117438188000,1.75318798828125,-0.6298704147338867,-0.36789369583129883,-0.3100886642932892
1696965117448202200,1.7632021484375,1.835902214050293,-0.5822123289108276,-0.6853175163269043
1696965117458216400,1.773216552734375,-1.489389419555664,-0.5991359949111938,-0.7001128792762756
1696965117468230700,1.783230712890625,2.444183349609375,-0.8662949800491333,0.21355175971984863
1696965117478244900,1.793244873046875,0.038519859313964844,-0.6037043333053589,-0.7106610536575317
1696965117488259000,1.803259033203125,0.3531026840209961,-0.4149264097213745,-0.5797661542892456
1696965117498273300,1.813273193359375,0.7136306762695312,-0.5061889886856079,0.10105574131011963
1696965117508287500,1.82328759765625,1.581369400024414,-0.4241443872451782,0.4214668869972229
1696965117518301700,1.8333017578125,-1.1476011276245117,-1.0864375829696655,-1.0026509761810303
1696965117528316000,1.84331591796875,0.30304908752441406,-0.09217798709869385,0.06277710199356079
1696965117538330000,1.853330078125,1.015970230102539,-0.25229430198669434,-0.07475703954696655
1696965117548344300,1.86334423828125,-1.9047365188598633,-0.9174199104309082,-0.382900595664978
1696965117558358500,1.873358642578125,0.6120681762695312,-0.003993988037109375,-0.519099771976471
1696965117568372700,1.883372802734375,-1.0868988037109375,-0.07953846454620361,-0.37113600969314575
1696965117578387000,1.893386962890625,0.31560230255126953,-0.43083226680755615,0.015329062938690186
1696965117588401400,1.9034013671875,-1.272562026977539,-0.8831226825714111,-0.9000272154808044
1696965117598415600,1.91341552734375,-0.4837217330932617,-0.2755650281906128,-0.37024933099746704
1696965117608429800,1.923429931640625,-0.23747920989990234,-0.1533515453338623,0.08432745933532715
1696965117618444000,1.933444091796875,0.002216339111328125,-0.4256317615509033,-0.1354130506515503
1696965117628458200,1.943458251953125,-1.0743961334228516,-0.29627227783203125,-0.2810996174812317
1696965117638472400,1.953472412109375,0.8805532455444336,-0.20014607906341553,0.3719252347946167
1696965117648486700,1.963486572265625,-0.34856700897216797,-0.18156075477600098,-0.0851893424987793
1696965117658500900,1.9735009765625,-0.37071895599365234,-0.8380029201507568,-0.47331416606903076
1696965117668515000,1.98351513671875,-0.5259180068969727,-0.552979588508606,0.07589441537857056
1696965117678529300,1.993529296875,0.6110734939575195,-0.19694852828979492,-0.15311270952224731
1696965117688543500,2.00354345703125,-0.7931900024414062,-0.4782334566116333,-0.20054525136947632
1696965117698557700,2.0135576171875,0.18307113647460938,-0.331539511680603,-0.6186553239822388
1696965117708572000,2.023572021484375,-0.8616828918457031,-1.3405721187591553,-0.029170572757720947
1696965117718586000,2.033586181640625,0.7061138153076172,0.07348525524139404,-0.5216010212898254
1696965117728600300,2.043600341796875,-1.4901304244995117,-0.5185948610305786,-0.9705455303192139
1696965117738614500,2.053614501953125,0.715001106262207,-0.8855255842208862,-0.4665759801864624
1696965117748628700,2.063628662109375,-1.6767263412475586,-0.5432019233703613,-0.11175328493118286
1696965117758643000,2.073642822265625,1.2683143615722656,-0.37183451652526855,-0.43208083510398865
1696965117768657200,2.0836572265625,-0.8454475402832031,-0.7737252712249756,-1.298213005065918
1696965117778671400,2.09367138671875,-0.8212957382202148,-0.41735780239105225,-0.12459969520568848
1696965117788685600,2.103685546875,2.0667848587036133,-0.22805190086364746,-0.2703380584716797
1696965117798699800,2.11369970703125,-2.100334644317627,-0.7700811624526978,-0.9555826187133789
1696965117808714000,2.1237138671875,2.148416519165039,-0.4976179897785187,-0.016671061515808105
1696965117818728200,2.133728271484375,-0.13602638244628906,-0.3002753257751465,0.21966612339019775
1696965117828742700,2.14374267578125,1.1379499435424805,-0.5853166580200195,-0.4439217150211334
1696965117838756900,2.1537568359375,-0.9129018783569336,-0.44466298818588257,-0.6566298604011536
1696965117848771000,2.16377099609375,0.3697233200073242,-0.5716710090637207,0.1505870819091797
1696965117858785300,2.173785400390625,1.4266653060913086,-0.26497727632522583,-0.18011009693145752
1696965117868799500,2.183799560546875,-0.6589851379394531,-1.4050192832946777,-1.2314505577087402
1696965117878813700,2.193813720703125,-0.9790620803833008,0.010174572467803955,0.13927972316741943
1696965117888828000,2.203827880859375,2.2114315032958984,-0.05514639616012573,0.7735969424247742
1696965117898842000,2.213842041015625,-1.5376396179199219,-0.6044943332672119,-0.8702764511108398
1696965117908856300,2.223856201171875,-1.4821929931640625,-0.9124227166175842,-0.4601212441921234
1696965117918870500,2.23387060546875,1.4483814239501953,0.2052491307258606,0.7593233585357666
1696965117928884700,2.243884765625,-0.6038455963134766,-0.2506059408187866,-0.22366249561309814
1696965117938899000,2.25389892578125,-0.5296707153320312,-1.0264039039611816,-0.7648366689682007
1696965117948913200,2.2639130859375,-0.3504638671875,-0.10095882415771484,-0.19017541408538818
1696965117958927400,2.27392724609375,0.5290737152099609,-0.0879354476928711,0.5077732801437378
1696965117968941600,2.283941650390625,0.2738018035888672,-0.5153665542602539,-0.02916485071182251
1696965117978955800,2.293955810546875,-1.0011377334594727,-0.806687593460083,-0.42354047298431396
1696965117988970000,2.303969970703125,1.5504398345947266,-0.5017986297607422,0.561377227306366
1696965117998984200,2.313984130859375,-0.3549537658691406,-0.575458288192749,-0.4690570533275604
1696965118008998400,2.323998291015625,0.48590755462646484,-0.7802697420120239,-0.5156524181365967
1696965118019012600,2.3340126953125,0.6553764343261719,-0.4515663683414459,-0.11261671781539917
1696965118029026800,2.34402685546875,0.7766361236572266,-0.6019572019577026,-0.14321744441986084
1696965118039041000,2.354041015625,0.4535856246948242,-0.8566068410873413,0.1202545166015625
1696965118049055200,2.36405517578125,0.8616762161254883,-0.708544135093689,-0.15155547857284546
1696965118059069400,2.3740693359375,-0.40615272521972656,-0.7867171168327332,-0.4321092367172241
1696965118069084000,2.384083984375,1.3797903060913086,-0.1488046646118164,-0.06026679277420044
1696965118079098000,2.39409814453125,0.004441261291503906,-1.3548836708068848,-0.5367988348007202
1696965118089112300,2.4041123046875,-0.7869949340820312,-1.015331506729126,-0.8041780591011047
1696965118099126500,2.41412646484375,1.2531251907348633,-0.28115469217300415,0.19071203470230103
1696965118109140700,2.424140625,0.1315450668334961,-0.8048374652862549,-0.39300164580345154
1696965118119155000,2.434155029296875,-0.5939531326293945,-0.8168880939483643,-0.7220532298088074
1696965118129169200,2.444169189453125,1.0784740447998047,-0.5945076942443848,0.08539223670959473
1696965118139183400,2.454183349609375,-0.40514469146728516,-0.4066305458545685,-0.39845010638237
1696965118149197600,2.464197509765625,0.6749153137207031,-1.0298819541931152,-0.8332616686820984
1696965118159211800,2.474211669921875,-0.8257608413696289,-0.19739991426467896,-0.5730024576187134
1696965118169226000,2.48422607421875,0.2230539321899414,-0.6422402858734131,-0.13735854625701904
1696965118179240200,2.494240234375,0.18381881713867188,-0.440669983625412,-0.28970521688461304
1696965118189254400,2.50425439453125,-0.0743551254272461,-0.9270395040512085,-0.013292253017425537
1696965118199268600,2.5142685546875,0.5181446075439453,-0.13919568061828613,0.4405207633972168
1696965118209282800,2.52428271484375,-0.32834720611572266,-0.7523189783096313,0.10645544528961182
1696965118219297000,2.534297119140625,0.07355690002441406,-0.2873953580856323,-0.823893129825592
1696965118229311200,2.544311279296875,-1.5153675079345703,-0.43779340386390686,-0.8726164102554321
1696965118239325400,2.554325439453125,0.4620208740234375,-0.3150642514228821,0.30435997247695923
1696965118249339600,2.564339599609375,-0.9380121231079102,-0.836459755897522,-0.3075163960456848
1696965118259353900,2.574353759765625,-1.5734329223632812,-0.5155600309371948,-0.4264327883720398
1696965118269368000,2.5843681640625,0.6566791534423828,0.16689443588256836,0.25809335708618164
1696965118279382300,2.59438232421875,-0.6198883056640625,-0.12273246049880981,-0.1231231689453125
1696965118289396500,2.604396484375,-0.15936279296875,-0.9633856415748596,-0.2155061960220337
1696965118299410700,2.61441064453125,-1.3945598602294922,-0.46431586146354675,-0.7309690117835999
1696965118309425200,2.624425048828125,0.33863162994384766,-0.20245057344436646,0.33172309398651123
1696965118319439400,2.634439453125,-0.2926511764526367,-0.27418893575668335,-0.5505998730659485
1696965118329453600,2.64445361328125,-1.1076698303222656,-1.0281935930252075,-0.3495984673500061
1696965118339467800,2.6544677734375,0.7342710494995117,-0.327189564704895,0.037975192070007324
1696965118349482000,2.66448193359375,-0.695460319519043,-0.44281378388404846,-0.36062687635421753
1696965118359496200,2.67449609375,1.2113971710205078,-0.53101646900177,-0.2067340612411499
1696965118369510400,2.684510498046875,-0.9644813537597656,-0.440605491399765,-0.25993895530700684
1696965118379524600,2.694524658203125,1.115412712097168,-0.6248388290405273,-0.3659931719303131
1696965118389538800,2.704538818359375,-1.0317564010620117,-0.21273905038833618,0.0941588282585144
1696965118399553000,2.714552978515625,1.4729890823364258,-1.2665038108825684,-0.10982722043991089
1696965118409567200,2.724567138671875,-1.7206039428710938,-0.43304863572120667,-0.28270429372787476
1696965118419581400,2.73458154296875,2.028219223022461,-0.27942460775375366,0.1380997896194458
1696965118429595600,2.744595703125,-0.4762601852416992,-1.1944291591644287,-0.9696764349937439
1696965118439609900,2.75460986328125,0.07043170928955078,-0.8663762211799622,0.1102479100227356
1696965118449624000,2.7646240234375,1.2111291885375977,-0.29253798723220825,0.21987205743789673
1696965118459638500,2.774638427734375,-0.30640506744384766,-0.6451373100280762,-0.1010550856590271
1696965118469652700,2.78465283203125,1.1932497024536133,-0.8332910537719727,-0.0677945613861084
1696965118479667000,2.7946669921875,-0.05167198181152344,-0.5407576560974121,0.2648667097091675
1696965118489681200,2.80468115234375,0.5071372985839844,-0.5068272352218628,-0.0845831036567688
1696965118499695600,2.814695556640625,0.02282428741455078,-0.5376096963882446,0.20196622610092163
1696965118509709800,2.824709716796875,1.655491828918457,-0.32193654775619507,0.07056677341461182
1696965118519724000,2.83472412109375,-0.9996337890625,-0.996238648891449,-0.22102606296539307
1696965118529738200,2.84473828125,0.5797061920166016,-0.2634892463684082,0.41890913248062134
1696965118539752700,2.854752685546875,1.6509017944335938,-0.16538864374160767,-0.044046759605407715
1696965118549767000,2.864766845703125,-1.4524965286254883,-1.2705135345458984,-0.08961743116378784
1696965118559781000,2.874781005859375,1.531825065612793,-0.11237388849258423,0.28602027893066406
1696965118569795300,2.88479541015625,-0.9464244842529297,-0.28660649061203003,0.2972102761268616
1696965118579809800,2.894809814453125,1.86376953125,-0.7626608610153198,-0.392245888710022
1696965118589824000,2.904823974609375,-3.006927967071533,-0.8880771398544312,-0.4241199493408203
1696965118599838200,2.914838134765625,2.389498710632324,0.11083799600601196,0.7053295373916626
1696965118609852400,2.924852294921875,-1.051687240600586,-0.5175710916519165,0.14173799753189087
1696965118619866600,2.93486669921875,0.17423725128173828,-1.179379940032959,-0.628267765045166
1696965118629881000,2.944881103515625,-1.768845558166504,-0.12007129192352295,0.5778216123580933
1696965118639895300,2.954895263671875,2.4485960006713867,0.3749927282333374,0.3674975633621216
1696965118649909500,2.964909423828125,-2.21053409576416,-1.198343276977539,-0.1979878544807434
1696965118659923700,2.974923828125,0.40424251556396484,-0.04331398010253906,-0.1121872067451477
1696965118669938200,2.984938232421875,0.04468727111816406,-0.3361048102378845,0.5938568115234375
1696965118679952400,2.994952392578125,-0.556614875793457,-0.6749792098999023,0.38065338134765625
1696965118689966600,3.004966552734375,0.8150672912597656,-1.0642708539962769,0.5792347192764282
1696965118699980800,3.014980712890625,-1.708937644958496,-0.004843533039093018,0.054703712463378906
1696965118709995300,3.024995361328125,1.6007661819458008,-0.3911854326725006,0.17654556035995483
1696965118720009500,3.035009521484375,-0.935643196105957,-0.8624013066291809,0.005323171615600586
1696965118730023700,3.045023681640625,0.15125751495361328,-1.0301331281661987,-0.3571505546569824
1696965118740038000,3.055037841796875,-0.2553997039794922,-0.49614086747169495,-0.25158631801605225
1696965118750052400,3.06505224609375,0.4904041290283203,-0.7761854529380798,-0.09422147274017334
1696965118760066600,3.075066650390625,0.3833503723144531,-0.5958714485168457,-0.4901869595050812
1696965118770080800,3.085080810546875,-0.37694454193115234,-1.1620441675186157,-0.33950895071029663
1696965118780095000,3.095094970703125,0.01618671417236328,-0.8062659502029419,0.22635918855667114
1696965118790109200,3.105109130859375,1.448373794555664,-0.8841556310653687,0.10097885131835938
1696965118800123400,3.115123291015625,0.3164634704589844,-0.8620989322662354,-0.7650451064109802
1696965118810137600,3.1251376953125,0.2872505187988281,-1.1718907356262207,-0.44283241033554077
1696965118820151800,3.13515185546875,0.5445661544799805,-0.4779283106327057,0.5676125884056091
1696965118830166000,3.145166015625,1.3160524368286133,-0.739019513130188,-0.12068921327590942
1696965118840180200,3.15518017578125,-0.10676765441894531,-0.9898607730865479,-0.9227125644683838
1696965118850194400,3.1651943359375,0.27136898040771484,-1.3387553691864014,-0.026109635829925537
1696965118860208600,3.175208740234375,0.8865814208984375,-0.8926348686218262,0.21052312850952148
1696965118870222800,3.185222900390625,0.2052755355834961,-1.0720722675323486,-0.9770082831382751
1696965118880237000,3.195237060546875,-0.16767501831054688,-0.33007678389549255,-1.185203194618225
1696965118890251300,3.205251220703125,0.06311607360839844,-0.9271924495697021,0.791165292263031
1696965118900265700,3.215265625,0.8701009750366211,-1.0655696392059326,-0.0015787482261657715
1696965118910280000,3.225280029296875,-0.6136674880981445,-0.9290400147438049,-1.1805217266082764
1696965118920294100,3.235294189453125,0.44892024993896484,-0.4661749303340912,-0.4773038625717163
1696965118930308400,3.245308349609375,-1.0889768600463867,-0.6156436204910278,0.9731559753417969
1696965118940322600,3.255322509765625,1.6986732482910156,-0.52101069688797,-0.021766245365142822
1696965118950336800,3.265336669921875,-3.039961814880371,-1.3900935649871826,-0.887070894241333
1696965118960351000,3.27535107421875,1.7362136840820312,-0.12686371803283691,0.031307876110076904
1696965118970365200,3.285365234375,-1.2774314880371094,-0.5149096250534058,-0.1143651008605957
1696965118980379400,3.29537939453125,-0.03631114959716797,-1.0169107913970947,-0.7247946858406067
1696965118990393600,3.3053935546875,-0.9677639007568359,-0.613075852394104,-0.8132750988006592
1696965119000407800,3.31540771484375,-0.2953310012817383,-0.4005451500415802,0.15116918087005615
1696965119010422000,3.325422119140625,-0.1076812744140625,-0.3069579005241394,-0.029628634452819824
1696965119020436200,3.335436279296875,-0.8430614471435547,-1.3005552291870117,-0.10130387544631958
1696965119030450400,3.345450439453125,0.630650520324707,-0.47515562176704407,-0.24947547912597656
1696965119040464600,3.355464599609375,-0.9851856231689453,-0.3105606436729431,0.259612500667572
1696965119050478800,3.365478759765625,1.2534065246582031,-0.3673611581325531,0.33627134561538696
1696965119060493000,3.3754931640625,-1.315861701965332,-1.2213027477264404,-0.09943079948425293
1696965119070507300,3.38550732421875,-0.2894783020019531,-0.38162681460380554,0.22595834732055664
1696965119080521500,3.395521484375,0.36559104919433594,0.05815023183822632,0.6645603775978088
1696965119090535700,3.40553564453125,-0.3856496810913086,-1.1777353286743164,-0.01863759756088257
1696965119100550000,3.4155498046875,-0.8912734985351562,-0.7762267589569092,-0.4758804440498352
1696965119110564000,3.425564208984375,-0.0004062652587890625,-0.4662267863750458,-0.14327889680862427
1696965119120578300,3.435578369140625,-0.7217531204223633,-0.38792577385902405,0.12990117073059082
1696965119130592500,3.445592529296875,-0.2662467956542969,-1.2196797132492065,0.02290862798690796
1696965119140607000,3.45560693359375,-0.8151454925537109,-0.3291183412075043,-0.19044989347457886
1696965119150621200,3.46562109375,0.509979248046875,-0.9138429760932922,0.10729432106018066
1696965119160635400,3.475635498046875,-0.8243579864501953,-0.483188271522522,-0.2634541392326355
1696965119170649600,3.485649658203125,0.9640331268310547,-1.3337308168411255,-0.0269697904586792
1696965119180663800,3.495663818359375,-1.7811193466186523,-0.8864399194717407,-1.1437164545059204
1696965119190678000,3.505677978515625,1.644547462463379,-0.8494691848754883,0.7231241464614868
1696965119200692200,3.515692138671875,0.5403976440429688,-0.6808451414108276,-0.49507007002830505
1696965119210706400,3.52570654296875,-1.1282882690429688,-1.5236701965332031,-0.6204767823219299
1696965119220720600,3.535720703125,1.8747730255126953,-0.546669602394104,-0.0023781657218933105
1696965119230734800,3.54573486328125,0.0968637466430664,-1.3086273670196533,-0.10992294549942017
1696965119240749000,3.5557490234375,1.9260025024414062,-1.3600807189941406,-0.6382505893707275
1696965119250763300,3.56576318359375,-0.9504480361938477,-0.8610244393348694,-0.33652591705322266
1696965119260777500,3.575777587890625,2.4344539642333984,-1.0254466533660889,0.3924316167831421
1696965119270791700,3.585791748046875,-0.21927738189697266,-1.1377304792404175,-0.2160787582397461
1696965119280806000,3.595805908203125,1.4769458770751953,-1.3394925594329834,-0.8491696119308472
1696965119290820000,3.605820068359375,-1.6177024841308594,-0.732816755771637,-0.6742426156997681
1696965119300834300,3.615834228515625,1.960383415222168,-1.0426175594329834,-0.08276748657226562
1696965119310848500,3.6258486328125,0.0005092620849609375,-1.0397611856460571,-1.2071821689605713
1696965119320862700,3.63586279296875,-0.12328720092773438,-0.9202380180358887,-1.3752317428588867
1696965119330877000,3.645876953125,-0.6285057067871094,-0.8601670265197754,-0.5121777653694153
1696965119340891100,3.65589111328125,0.868708610534668,-0.6829363107681274,-0.2609228491783142
1696965119350905300,3.6659052734375,-0.38529109954833984,-1.0024043321609497,-0.724811851978302
1696965119360919600,3.67591943359375,0.22806739807128906,-0.6069355010986328,-0.7941035032272339
1696965119370933800,3.685933837890625,0.44290733337402344,-0.4986475110054016,-0.3425449728965759
1696965119380948200,3.6959482421875,1.3973960876464844,-0.8953276872634888,-0.8825371265411377
1696965119390962400,3.70596240234375,-0.08719825744628906,-1.210825800895691,-1.1747419834136963
1696965119400976600,3.7159765625,0.1912555694580078,-0.5055164098739624,-0.373306006193161
1696965119410990800,3.725990966796875,1.1847591400146484,-0.9942534565925598,-0.3728046119213104
1696965119421005000,3.736005126953125,0.7899932861328125,-1.0030314922332764,-0.7513400316238403
1696965119431019300,3.746019287109375,0.9794750213623047,-1.2762407064437866,-1.4277251958847046
1696965119441033500,3.756033447265625,-0.9140110015869141,-1.0447616577148438,-1.099449634552002
1696965119451047700,3.766047607421875,2.0559616088867188,-1.0592727661132812,-0.7503980398178101
1696965119461062000,3.776061767578125,0.13489532470703125,-1.4799842834472656,-2.023728370666504
1696965119471076000,3.786076171875,0.13142967224121094,-1.1814708709716797,-1.4477317333221436
1696965119481090300,3.79609033203125,1.0114068984985352,-1.341348648071289,-0.831525981426239
1696965119491104500,3.8061044921875,1.358414649963379,-1.0698907375335693,-0.9493882656097412
1696965119501118700,3.81611865234375,1.0074338912963867,-1.0822696685791016,-1.4280788898468018
1696965119511133000,3.8261328125,0.22308635711669922,-1.1540391445159912,-0.9599381685256958
1696965119521147100,3.836147216796875,1.4901294708251953,-1.1090024709701538,-0.35197359323501587
1696965119531161300,3.846161376953125,2.4767255783081055,-0.8601309657096863,-0.1501779556274414
1696965119541175600,3.856175537109375,1.802882194519043,-1.339341402053833,-0.39016228914260864
1696965119551189800,3.866189697265625,1.2078142166137695,-1.1887540817260742,0.5600941777229309
1696965119561204000,3.876203857421875,3.671274185180664,-1.4236304759979248,1.3565919399261475
1696965119571218200,3.88621826171875,1.3594446182250977,-1.8211982250213623,0.30799955129623413
1696965119581232400,3.896232421875,2.714040756225586,-1.6124337911605835,0.8777544498443604
1696965119591246600,3.90624658203125,1.9535846710205078,-0.92457515001297,1.790668249130249
1696965119601260800,3.9162607421875,1.978327751159668,-1.3425641059875488,2.2497706413269043
1696965119611275300,3.926275146484375,1.8825387954711914,-1.4409271478652954,1.0701582431793213
1696965119621289500,3.93628955078125,-0.48267269134521484,-1.0959692001342773,1.2699041366577148
1696965119631303700,3.9463037109375,1.5979785919189453,-1.1554584503173828,1.6995723247528076
1696965119641318000,3.95631787109375,-0.37900829315185547,-0.599381685256958,1.8768818378448486
1696965119651332000,3.96633203125,1.280364990234375,-0.9595510959625244,1.412804126739502
1696965119661346300,3.97634619140625,-2.7461328506469727,-0.6415942907333374,1.3359603881835938
1696965119671360500,3.986360595703125,-0.119232177734375,-0.6596137881278992,2.281780958175659
1696965119681374700,3.996374755859375,-2.2497000694274902,-0.4050869941711426,1.533390760421753
1696965119691389000,4.006388916015625,-1.8325738906860352,-0.8740434646606445,1.2618906497955322
1696965119701403100,4.016403076171875,-2.759906768798828,-0.2142716646194458,1.0004398822784424
1696965119711417300,4.026417236328125,-2.9534335136413574,-0.5145682096481323,1.8883267641067505
1696965119721431600,4.036431640625,-1.8562326431274414,-0.09247267246246338,1.259859323501587
1696965119731445800,4.04644580078125,-4.045076847076416,0.08481013774871826,0.9563974142074585
1696965119741460000,4.0564599609375,-3.040971279144287,0.0308876633644104,1.1083475351333618
1696965119751474200,4.06647412109375,-2.909557819366455,-0.03134715557098389,1.0546793937683105
1696965119761488400,4.07648828125,-2.6738576889038086,0.20535808801651,1.034837245941162
1696965119771502600,4.086502685546875,-3.50948429107666,-0.5841083526611328,0.3669060468673706
1696965119781516800,4.096516845703125,-3.855257511138916,0.25339049100875854,0.26887422800064087
1696965119791531000,4.106531005859375,-2.852538585662842,0.4442455768585205,0.28606197237968445
1696965119801545200,4.116545166015625,-3.4774460792541504,0.21627718210220337,-0.1969885528087616
1696965119811559700,4.1265595703125,-4.244339942932129,0.029252052307128906,-0.9893166422843933
1696965119821574000,4.136573974609375,-3.7142415046691895,-0.08920472860336304,-0.8057476282119751
1696965119831588000,4.146588134765625,-2.5930142402648926,0.23420244455337524,-1.3061513900756836
1696965119841602300,4.156602294921875,-3.1853179931640625,-0.03617119789123535,-1.9932777881622314
1696965119851616800,4.16661669921875,-3.512968063354492,0.5168234705924988,-1.7082120180130005
1696965119861631000,4.176630859375,-2.6979289054870605,-0.1767851710319519,-1.817308783531189
1696965119871645200,4.186645263671875,-2.688048839569092,0.267006516456604,-2.5619049072265625
1696965119881659400,4.196659423828125,-3.4663052558898926,-0.037871479988098145,-2.3449761867523193
1696965119891673900,4.206673828125,-2.7181501388549805,0.14344048500061035,-2.6651268005371094
1696965119901688000,4.21668798828125,-2.583883762359619,0.3217202425003052,-2.454923629760742
1696965119911702300,4.226702392578125,-1.0831212997436523,0.2462819218635559,-2.3891828060150146
1696965119921716500,4.236716552734375,-2.692167282104492,-0.058424949645996094,-2.2930517196655273
1696965119931730700,4.246730712890625,0.11356258392333984,0.39968132972717285,-2.1515443325042725
1696965119941745200,4.2567451171875,-0.6672372817993164,0.22041499614715576,-1.8815721273422241
1696965119951759400,4.26675927734375,-0.4420957565307617,-0.3312329947948456,-1.4519397020339966
1696965119961773600,4.276773681640625,-0.7818136215209961,-0.4738544225692749,-1.8215868473052979
1696965119971787800,4.286787841796875,-0.5471439361572266,-0.09371227025985718,-1.6116576194763184
1696965119981802200,4.29680224609375,1.0490684509277344,0.08308142423629761,-1.1330395936965942
1696965119991816400,4.30681640625,0.6437606811523438,-0.3806098401546478,-1.4655160903930664
1696965120001830700,4.31683056640625,0.9421262741088867,-0.3703114092350006,-1.0352847576141357
1696965120011844900,4.326844970703125,0.8528051376342773,-0.6474889516830444,-0.713182270526886
1696965120021859300,4.336859375,2.1017980575561523,-0.42718833684921265,-0.3033503293991089
1696965120031873500,4.34687353515625,1.6367979049682617,-0.7374697923660278,-0.8691926002502441
1696965120041887700,4.3568876953125,0.3563652038574219,-0.5383021831512451,-0.4891009032726288
1696965120051902000,4.36690185546875,2.2044506072998047,-0.46340784430503845,-0.29183679819107056
1696965120061916400,4.37691650390625,2.6569814682006836,-0.5213947296142578,-0.05078586935997009
1696965120071930600,4.3869306640625,2.1913537979125977,-0.7916569709777832,-0.8281410932540894
1696965120081944800,4.39694482421875,1.7750434875488281,-0.5281071662902832,-0.13620033860206604
1696965120091959000,4.406958984375,3.9211807250976562,-0.3269965946674347,0.538903534412384
1696965120101973500,4.416973388671875,3.2087221145629883,-0.5271294713020325,-0.38425540924072266
1696965120111987700,4.42698779296875,1.9681930541992188,-0.9674808979034424,-0.5316144824028015
1696965120122002000,4.437001953125,2.4416847229003906,-0.6289905309677124,-0.15587961673736572
1696965120132016000,4.44701611328125,3.788302421569824,-0.21859854459762573,-0.13934069871902466
1696965120142030600,4.457030517578125,3.1009082794189453,-0.7479114532470703,-0.8162742853164673
1696965120152044800,4.467044921875,2.554014205932617,-0.8369068503379822,-0.537510097026825
1696965120162059000,4.47705908203125,3.57595157623291,-0.9641189575195312,-0.2383062243461609
1696965120172073200,4.4870732421875,3.1232471466064453,-0.33632561564445496,-0.1509190797805786
1696965120182087400,4.49708740234375,4.3828630447387695,-0.4752548933029175,-0.8563164472579956
1696965120192101600,4.5071015625,0.5498170852661133,-1.179464340209961,-0.16888028383255005
1696965120202115800,4.51711572265625,4.5684051513671875,-1.2013771533966064,0.5776564478874207
1696965120212130000,4.527130126953125,1.8094110488891602,-0.47333598136901855,-0.18898403644561768
1696965120222144300,4.537144287109375,3.330512046813965,-1.249392032623291,-0.12299841642379761
1696965120232158500,4.547158447265625,0.6181201934814453,-0.9775663614273071,0.31603091955184937
1696965120242172700,4.557172607421875,3.441364288330078,-1.2156808376312256,0.8404437303543091
1696965120252187100,4.567187255859375,1.3781394958496094,-0.742501974105835,0.49574190378189087
1696965120262201300,4.577201416015625,2.5077266693115234,-1.1059647798538208,0.5425365567207336
1696965120272215600,4.587215576171875,0.2414875030517578,-1.0347691774368286,0.775350034236908
1696965120282229800,4.597229736328125,1.4738473892211914,-1.4015672206878662,1.1952481269836426
1696965120292244000,4.607243896484375,0.1271514892578125,-0.7062912583351135,0.9895029664039612
1696965120302258200,4.617258056640625,0.6714439392089844,-1.068354845046997,0.9094054102897644
1696965120312272400,4.6272724609375,-0.4533710479736328,-0.7943660020828247,0.7709605097770691
1696965120322286600,4.63728662109375,0.06883621215820312,-0.48885583877563477,1.8393958806991577
1696965120332300800,4.64730078125,1.2199726104736328,-0.5555052757263184,1.1680974960327148
1696965120342315000,4.65731494140625,-1.4073963165283203,-0.535888671875,0.9269354939460754
1696965120352329200,4.6673291015625,0.6890573501586914,-0.5975896716117859,1.2929892539978027
1696965120362343400,4.677343505859375,-1.000056266784668,-0.3951871395111084,1.8860318660736084
1696965120372357600,4.687357666015625,0.8036527633666992,-0.2301538735628128,1.38829505443573
1696965120382371800,4.697371826171875,-1.8660802841186523,-0.7024058103561401,1.2248904705047607
1696965120392386000,4.707385986328125,-0.4901714324951172,-0.318848192691803,1.6118457317352295
1696965120402400300,4.717400146484375,-0.23182296752929688,-0.0871918797492981,1.5910662412643433
1696965120412414500,4.72741455078125,-0.26580142974853516,-0.38659587502479553,1.1664502620697021
1696965120422428700,4.7374287109375,-1.2029523849487305,-0.39064446091651917,0.5672368407249451
1696965120432443000,4.74744287109375,-0.3786487579345703,-0.24029229581356049,1.4652906656265259
1696965120442457000,4.75745703125,-0.6174936294555664,-0.11165955662727356,1.1358981132507324
1696965120452471300,4.76747119140625,-0.8322839736938477,-0.4897363483905792,0.7659885287284851
1696965120462485500,4.777485595703125,-2.035604476928711,-0.510435938835144,0.18059027194976807
1696965120472499700,4.787499755859375,-0.7984371185302734,-0.23768123984336853,0.9238749742507935
1696965120482514000,4.797513916015625,-0.8640937805175781,0.03680777549743652,0.6752524375915527
1696965120492528400,4.8075283203125,-0.79144287109375,-0.5262538194656372,0.11510181427001953
1696965120502542600,4.81754248046875,-2.2143445014953613,-0.2676609754562378,-0.5971533060073853
1696965120512556800,4.827556884765625,-0.7993793487548828,-0.06142190098762512,0.6867735981941223
1696965120522571000,4.837571044921875,-1.1803598403930664,-0.10390657186508179,-0.478175550699234
1696965120532585200,4.847585205078125,-1.622354507446289,-0.13336163759231567,-1.119701623916626
1696965120542599400,4.857599365234375,-1.5273361206054688,0.04978346824645996,-0.9849221110343933
1696965120552613600,4.867613525390625,-1.7859010696411133,0.1433679461479187,-0.4988504946231842
1696965120562627800,4.8776279296875,-0.19957447052001953,0.25903552770614624,-1.0911214351654053
1696965120572642000,4.88764208984375,-3.390763282775879,-0.13661876320838928,-1.5029641389846802
1696965120582656300,4.89765625,-0.05521392822265625,0.3829514682292938,-1.1871074438095093
1696965120592670500,4.90767041015625,-2.840338706970215,0.21485382318496704,-1.3398035764694214
1696965120602684700,4.9176845703125,-0.09840583801269531,-0.027822494506835938,-1.3517513275146484
1696965120612699000,4.927698974609375,-2.409931182861328,-0.00966864824295044,-1.6978744268417358
1696965120622713000,4.937713134765625,-0.16068458557128906,0.5156130790710449,-0.8612809181213379
1696965120632727300,4.947727294921875,-1.7166986465454102,0.69449383020401,-1.4011192321777344
1696965120642741500,4.957741455078125,-1.146707534790039,0.03390318155288696,-1.1481419801712036
1696965120652755700,4.967755615234375,-0.4635658264160156,0.8375406861305237,-1.6225049495697021
1696965120662770000,4.97777001953125,-1.5498600006103516,0.2422802448272705,-1.5199451446533203
1696965120672784100,4.9877841796875,-0.7791156768798828,0.729925811290741,-1.3959792852401733
1696965120682798300,4.99779833984375,-1.4825620651245117,0.1713336706161499,-1.4418776035308838
1696965120692812500,5.0078125,-1.1324825286865234,1.1883764266967773,-2.21616268157959
1696965120702826800,5.01782666015625,-0.8358573913574219,0.24180954694747925,-1.3152250051498413
1696965120712841000,5.027841064453125,-0.07630443572998047,0.44349873065948486,-1.266265630722046
1696965120722855200,5.037855224609375,-0.18386077880859375,0.3960551619529724,-1.1389000415802002
1696965120732869600,5.04786962890625,-0.7828340530395508,0.8511892557144165,-0.838351845741272
1696965120742883800,5.0578837890625,1.2714786529541016,0.662605345249176,-0.3865710198879242
1696965120752898000,5.06789794921875,-0.8467607498168945,0.7535415291786194,-0.8197001218795776
1696965120762912300,5.077912353515625,0.6293392181396484,0.6936618685722351,-0.4248672425746918
1696965120772926500,5.087926513671875,-0.5075187683105469,0.781741738319397,-0.4558905363082886
1696965120782940700,5.097940673828125,1.7845182418823242,0.9497102499008179,-0.0966096818447113
1696965120792955000,5.107954833984375,-0.3640584945678711,0.6254400610923767,-0.5607491135597229
1696965120802969000,5.117968994140625,0.6135406494140625,0.8730983734130859,0.035055458545684814
1696965120812983300,5.1279833984375,1.0722074508666992,1.4561702013015747,0.19904905557632446
1696965120822997500,5.13799755859375,0.8266611099243164,0.3873889446258545,-0.010149121284484863
1696965120833011700,5.14801171875,-0.7991046905517578,0.9899802207946777,-0.18261194229125977
1696965120843026000,5.15802587890625,1.636286735534668,0.8902974128723145,0.674640417098999
1696965120853040000,5.1680400390625,0.8394327163696289,1.2944729328155518,0.39534473419189453
1696965120863054300,5.178054443359375,0.6417274475097656,0.2752718925476074,0.43764710426330566
1696965120873068500,5.188068603515625,1.0753192901611328,1.0813746452331543,0.6585230827331543
1696965120883082800,5.198082763671875,1.6746253967285156,0.6298688650131226,0.860683798789978
1696965120893097000,5.208096923828125,0.4518775939941406,0.49497854709625244,0.5949440598487854
1696965120903111200,5.218111083984375,0.5984125137329102,-0.03395569324493408,0.7462857365608215
1696965120913125400,5.22812548828125,0.4006175994873047,0.5527269840240479,0.8893818259239197
1696965120923139800,5.238139892578125,1.6126890182495117,0.31182587146759033,1.2434592247009277
1696965120933154000,5.248154052734375,-0.0072879791259765625,0.23900914192199707,0.3422260880470276
1696965120943168300,5.258168212890625,1.1532115936279297,0.2536274790763855,0.839444637298584
1696965120953182500,5.268182373046875,-0.07362174987792969,0.03325986862182617,0.7972957491874695
1696965120963197000,5.278197021484375,1.5982179641723633,0.23530584573745728,0.9467833638191223
1696965120973211100,5.288211181640625,-1.1162395477294922,-0.29972344636917114,0.14762431383132935
1696965120983225300,5.298225341796875,0.8167257308959961,0.18480169773101807,0.8902007937431335
1696965120993239600,5.308239501953125,0.8473529815673828,0.12293082475662231,1.1335763931274414
1696965121003254000,5.31825390625,0.43820762634277344,-0.2873363494873047,0.39205342531204224
1696965121013268200,5.328268310546875,-0.8677940368652344,-0.07685834169387817,0.5019090175628662
1696965121023282400,5.338282470703125,1.3081388473510742,-0.11943864822387695,1.22849702835083
1696965121033296600,5.348296630859375,0.14275264739990234,-0.3775303363800049,0.7233514785766602
1696965121043311000,5.35831103515625,-0.469818115234375,-0.3348025679588318,0.3739627003669739
1696965121053325300,5.3683251953125,0.7017307281494141,-0.049559831619262695,1.0826973915100098
1696965121063339500,5.378339599609375,0.9571876525878906,-0.07020169496536255,0.8336228132247925
1696965121073353700,5.388353759765625,-0.5798234939575195,-0.403074711561203,0.0432208776473999
1696965121083368200,5.3983681640625,0.0711374282836914,-0.18138325214385986,0.3003321886062622
1696965121093382400,5.40838232421875,0.45749473571777344,-0.04672449827194214,0.6022512316703796
1696965121103396600,5.418396728515625,-0.5905361175537109,-0.3344324231147766,0.24671638011932373
1696965121113410800,5.428410888671875,-0.6897068023681641,-0.3202062249183655,-0.1558777093887329
1696965121123425300,5.43842529296875,-0.15785789489746094,-0.20662814378738403,0.5675053000450134
1696965121133439500,5.448439453125,0.4157400131225586,0.044718384742736816,0.30908703804016113
1696965121143453700,5.45845361328125,-1.606642723083496,0.08328360319137573,-0.14372694492340088
1696965121153468000,5.468468017578125,0.84881591796875,0.3476231098175049,0.3253886103630066
1696965121163482400,5.478482421875,-0.1284942626953125,0.12295889854431152,0.12674063444137573
1696965121173496600,5.48849658203125,-0.9834537506103516,-0.3988650143146515,-0.4485035538673401
1696965121183510800,5.4985107421875,-0.2257251739501953,-0.04874628782272339,-0.36431020498275757
1696965121193525000,5.50852490234375,0.4722890853881836,-0.46917179226875305,-0.15400367975234985
1696965121203539500,5.51853955078125,-1.8267955780029297,-0.3995371162891388,-0.2324007749557495
1696965121213553700,5.5285537109375,0.056346893310546875,-0.14213258028030396,-0.08295941352844238
1696965121223568000,5.53856787109375,-0.8851308822631836,-0.13902759552001953,0.03742349147796631
1696965121233582000,5.54858203125,1.2341699600219727,0.04630839824676514,-0.3003418445587158
1696965121243596500,5.558596435546875,-1.8219022750854492,0.022235333919525146,-0.5913771390914917
1696965121253610800,5.56861083984375,1.4091367721557617,-0.24855917692184448,-0.17965149879455566
1696965121263625000,5.578625,-0.34814453125,0.22154349088668823,-0.06674838066101074
1696965121273639200,5.58863916015625,-0.5709514617919922,-0.5483430027961731,-0.4082834720611572
1696965121283653400,5.5986533203125,-0.5878944396972656,0.7046397924423218,0.26268380880355835
1696965121293667600,5.60866748046875,1.870626449584961,0.000595390796661377,0.6648018956184387
1696965121303681800,5.618681884765625,-0.7482728958129883,-0.3045768141746521,-0.16671860218048096
1696965121313696000,5.628696044921875,-0.34870147705078125,-0.2507480978965759,-0.2612527012825012
1696965121323710200,5.638710205078125,0.19708919525146484,0.03667759895324707,0.3551751375198364
1696965121333724400,5.648724365234375,-0.5096836090087891,-0.11675763130187988,0.21321672201156616
1696965121343738600,5.658738525390625,0.5903787612915039,0.253257155418396,-0.31868094205856323
1696965121353752800,5.6687529296875,-2.1004581451416016,-0.0820474624633789,0.030402779579162598
1696965121363767000,5.67876708984375,2.315948486328125,0.4737396836280823,0.1519959568977356
1696965121373781200,5.68878125,-1.8905200958251953,-0.6628537178039551,-0.48119592666625977
1696965121383795500,5.69879541015625,-0.0452728271484375,-0.17663562297821045,-0.2647959589958191
1696965121393809700,5.7088095703125,-1.3583354949951172,0.3106633424758911,0.2829717993736267
1696965121403823900,5.718823974609375,1.7518177032470703,0.3500211834907532,0.10340720415115356
1696965121413838300,5.72883837890625,-1.3494291305541992,-0.25057995319366455,-0.5188742876052856
1696965121423852500,5.7388525390625,-0.11675262451171875,-0.15268796682357788,-0.25109153985977173
1696965121433866800,5.74886669921875,0.6867656707763672,0.04997909069061279,0.20278245210647583
1696965121443881000,5.758880859375,0.1120443344116211,-0.07714736461639404,-0.06335979700088501
1696965121453895200,5.768895263671875,0.3749504089355469,-0.13695013523101807,-0.011854290962219238
1696965121463909400,5.778909423828125,-0.8435468673706055,0.031005799770355225,0.11824709177017212
1696965121473923600,5.788923583984375,1.772806167602539,0.5544056296348572,0.48678576946258545
1696965121483937800,5.798937744140625,-0.3107109069824219,-0.4854870140552521,-0.3556007146835327
1696965121493952000,5.808951904296875,-0.6008491516113281,-0.06616520881652832,-0.5267347097396851
1696965121503966200,5.81896630859375,0.9449825286865234,0.44628286361694336,0.3828740119934082
1696965121513980400,5.82898046875,0.8468790054321289,0.23316645622253418,-0.06315809488296509
1696965121523994600,5.83899462890625,-0.5168352127075195,-0.5437560081481934,-0.29981470108032227
1696965121534008800,5.8490087890625,0.3833160400390625,-0.09607625007629395,-0.028335630893707275
1696965121544023000,5.85902294921875,0.16312789916992188,0.02050459384918213,0.47446900606155396
1696965121554037200,5.869037353515625,1.5389108657836914,-0.5120440721511841,0.22923696041107178
1696965121564051500,5.879051513671875,-0.6102933883666992,-0.0024260282516479492,-0.3844974637031555
1696965121574065700,5.889065673828125,0.9451313018798828,-0.1780819296836853,0.237695574760437
1696965121584080000,5.899079833984375,0.14507675170898438,-0.004211366176605225,0.39874064922332764
1696965121594094000,5.909093994140625,1.5208396911621094,-0.38822758197784424,0.18279105424880981
1696965121604108300,5.9191083984375,-0.9627923965454102,-0.09979468584060669,-0.5353282690048218
1696965121614122500,5.92912255859375,0.5559396743774414,-0.13339710235595703,0.625783383846283
1696965121624136700,5.93913671875,0.25380611419677734,0.30721771717071533,0.4388151168823242
1696965121634151000,5.94915087890625,-0.18190860748291016,-0.4644400477409363,-0.4278242588043213
1696965121644165000,5.9591650390625,-0.7642011642456055,-0.07875502109527588,-0.3793770670890808
1696965121654179600,5.9691796875,0.194732666015625,0.18372976779937744,0.6021182537078857
1696965121664193800,5.97919384765625,0.02748394012451172,0.2461320161819458,0.32221388816833496
1696965121674208000,5.9892080078125,-0.1255512237548828,-0.5303753614425659,0.1806267499923706
1696965121684222200,5.99922216796875,-0.02995014190673828,-0.05754101276397705,-0.13914954662322998
1696965121694236400,6.009236328125,-0.5787210464477539,0.08674472570419312,0.4496329426765442
1696965121704250600,6.019250732421875,0.9758977890014648,-0.10245412588119507,0.44216787815093994
1696965121714264800,6.029264892578125,-1.119908332824707,-0.4288957118988037,-0.4626166820526123
1696965121724279000,6.039279052734375,0.029659271240234375,0.21561527252197266,-0.06981605291366577
1696965121734293200,6.049293212890625,-0.8538074493408203,-0.1569300889968872,0.22754698991775513
1696965121744307500,6.059307373046875,0.8205375671386719,-0.009960830211639404,-0.32471317052841187
1696965121754321700,6.06932177734375,-2.197054862976074,-0.6042125225067139,-0.5988476276397705
1696965121764335900,6.0793359375,0.767033576965332,0.32201051712036133,0.10789883136749268
1696965121774350000,6.08935009765625,-0.4293937683105469,0.17016947269439697,-0.27871525287628174
1696965121784364300,6.0993642578125,-0.2513904571533203,-0.20937061309814453,-0.3203451633453369
1696965121794378500,6.10937841796875,-0.4607820510864258,-0.23939085006713867,-0.3968028426170349
1696965121804392700,6.119392822265625,-0.1676931381225586,0.0839536190032959,-0.15448874235153198
1696965121814407000,6.129406982421875,-0.8121376037597656,-0.1861783266067505,-0.25045764446258545
1696965121824421000,6.139421142578125,0.7860622406005859,-0.4070171117782593,0.22534042596817017
1696965121834435300,6.149435302734375,-1.184438705444336,0.10750484466552734,-0.42685139179229736
1696965121844449500,6.159449462890625,0.04717063903808594,0.14785230159759521,0.08302050828933716
1696965121854463700,6.169463623046875,0.9260492324829102,0.242406964302063,-0.1414697766304016
1696965121864478000,6.17947802734375,-1.2171602249145508,-0.7116168737411499,-0.6073877811431885
1696965121874492200,6.1894921875,-0.29117774963378906,0.10524189472198486,-0.4959637224674225
1696965121884506400,6.19950634765625,0.6745948791503906,0.06105983257293701,-0.3079671859741211
1696965121894520800,6.209520751953125,-0.48336219787597656,-0.4336531162261963,-0.8328755497932434
1696965121904535000,6.21953515625,-0.14727401733398438,-0.28679096698760986,-0.9133502840995789
1696965121914549200,6.22954931640625,-0.3756895065307617,0.2032773494720459,-0.5326743721961975
1696965121924563500,6.2395634765625,1.5987939834594727,-0.0950474739074707,-0.5987290740013123
1696965121934577700,6.24957763671875,-0.6697807312011719,-0.5616166591644287,-0.9979762434959412
1696965121944592000,6.259591796875,0.4794769287109375,0.039034247398376465,-0.7511023879051208
1696965121954606000,6.269606201171875,-0.37186622619628906,-0.17923307418823242,-0.47917473316192627
1696965121964620300,6.279620361328125,1.5121841430664062,0.029640913009643555,-0.49239155650138855
1696965121974634500,6.289634521484375,-1.057485580444336,-0.35157525539398193,-0.8166443109512329
1696965121984648700,6.299648681640625,0.8004360198974609,0.02330303192138672,0.03720402717590332
1696965121994663000,6.309662841796875,1.4099540710449219,0.30346035957336426,0.09928077459335327
1696965122004677000,6.319677001953125,-0.0032339096069335938,-0.27333033084869385,-0.1859235167503357
1696965122014691300,6.32969140625,0.55609130859375,-0.34684276580810547,-0.6286950707435608
1696965122024705500,6.33970556640625,0.10581779479980469,0.5737713575363159,-0.07355320453643799
1696965122034719700,6.3497197265625,1.2045049667358398,-0.2953070402145386,-0.3153896927833557
1696965122044734000,6.35973388671875,-0.5046405792236328,-0.20548474788665771,-0.8469215631484985
1696965122054748200,6.369748046875,-0.03003406524658203,-0.22628724575042725,-0.42408251762390137
1696965122064762400,6.379762451171875,0.2669229507446289,-0.04260051250457764,-0.4547308087348938
1696965122074776800,6.38977685546875,0.7436094284057617,-0.20616483688354492,-0.932172417640686
1696965122084791000,6.399791015625,-1.4414653778076172,-0.27568328380584717,-1.0742398500442505
1696965122094805200,6.40980517578125,0.7707815170288086,0.10424816608428955,-0.09738707542419434
1696965122104819500,6.4198193359375,-0.6502485275268555,-0.027091383934020996,-0.5372105836868286
1696965122114834000,6.429833984375,0.04431438446044922,-0.6352120637893677,-0.5051703453063965
1696965122124848000,6.43984814453125,-1.0494794845581055,0.24330413341522217,-0.9254724383354187
1696965122134862300,6.4498623046875,-0.2813425064086914,0.0671929121017456,-0.12679433822631836
1696965122144876500,6.45987646484375,0.22130107879638672,0.09450232982635498,-0.2748396396636963
1696965122154891000,6.46989111328125,-1.2225055694580078,-0.4705994129180908,-0.8271170854568481
1696965122164905200,6.4799052734375,0.18126201629638672,0.13628268241882324,-0.38020259141921997
1696965122174919400,6.48991943359375,0.4486684799194336,0.2057180404663086,0.017066776752471924
1696965122184933600,6.49993359375,-0.3982076644897461,0.04154706001281738,-0.7475411295890808
1696965122194948000,6.509947998046875,-0.3829154968261719,0.05550873279571533,-0.6491749286651611
1696965122204962300,6.51996240234375,0.17733097076416016,0.17394304275512695,-0.19418084621429443
1696965122214976500,6.5299765625,0.3582115173339844,-0.338148832321167,-0.5336796045303345
1696965122224990700,6.53999072265625,-0.9139766693115234,-0.3663100004196167,-0.9704095125198364
1696965122235005200,6.550005126953125,0.26878929138183594,-0.05549025535583496,-0.4421752691268921
1696965122245019400,6.560019287109375,-0.17148494720458984,0.17785871028900146,-0.435718297958374
1696965122255033600,6.57003369140625,0.4738197326660156,-0.529550313949585,-0.9856515526771545
1696965122265047800,6.5800478515625,-1.45330810546875,-0.031452298164367676,-1.2359247207641602
1696965122275062300,6.590062255859375,0.2809009552001953,-0.22345483303070068,-0.4269036650657654
1696965122285076500,6.600076416015625,0.8294076919555664,0.2841554880142212,-0.6939294338226318
1696965122295090700,6.610090576171875,-0.7926387786865234,-0.5771459341049194,-1.056201457977295
1696965122305105000,6.62010498046875,-0.0016307830810546875,0.011805176734924316,-0.5675448775291443
1696965122315119400,6.630119384765625,0.6722879409790039,-0.08853769302368164,-0.21361011266708374
1696965122325133600,6.640133544921875,0.34545230865478516,-0.637420654296875,-0.6748741269111633
1696965122335147800,6.650147705078125,0.22516536712646484,0.12925589084625244,-1.118995189666748
1696965122345162000,6.660161865234375,1.0519113540649414,-0.1590418815612793,-0.0942220687866211
1696965122355176400,6.670176513671875,0.3946981430053711,0.0937645435333252,-0.5724136829376221
1696965122365190700,6.680190673828125,0.7230463027954102,-0.42642736434936523,-0.8678761124610901
1696965122375204900,6.690204833984375,-0.3869905471801758,-0.21115946769714355,-0.7994261980056763
1696965122385219000,6.700218994140625,0.5509738922119141,-0.34599220752716064,-0.35016852617263794
1696965122395233500,6.710233642578125,0.7644510269165039,-0.1777282953262329,-0.9824055433273315
1696965122405247700,6.720247802734375,-0.7187232971191406,-0.303117036819458,-1.1191508769989014
1696965122415262000,6.730261962890625,1.1810970306396484,0.2696648836135864,-0.5033362507820129
1696965122425276200,6.740276123046875,-0.6761016845703125,-0.16731774806976318,-0.6623923182487488
1696965122435290400,6.750290283203125,-0.038498878479003906,-0.4631688594818115,-0.9516950845718384
1696965122445304600,6.7603046875,-0.26787376403808594,-0.041753530502319336,-0.9621312618255615
1696965122455318800,6.77031884765625,0.30228424072265625,-0.11981785297393799,-0.4995184540748596
1696965122465333000,6.7803330078125,0.17743873596191406,-0.04972338676452637,-0.3303731679916382
1696965122475347200,6.79034716796875,0.13410568237304688,-0.44627177715301514,-1.0097640752792358
1696965122485361700,6.800361572265625,-0.1668376922607422,-0.1368393898010254,-0.31712836027145386
1696965122495376000,6.8103759765625,0.43632030487060547,-0.36270689964294434,-0.5130308866500854
1696965122505390000,6.82039013671875,-0.4345235824584961,-0.3974188566207886,-0.6712602972984314
1696965122515404300,6.830404296875,0.34579944610595703,-0.33976292610168457,-1.1165531873703003
1696965122525418500,6.84041845703125,-0.7149419784545898,0.04366898536682129,-0.3852080702781677
1696965122535432700,6.8504326171875,1.2942476272583008,0.12830126285552979,-0.3185061812400818
1696965122545447000,6.860447021484375,-1.3515663146972656,-0.763759970664978,-1.166709542274475
1696965122555461000,6.870461181640625,-0.4296998977661133,-0.0519942045211792,-0.6853723526000977
1696965122565475300,6.880475341796875,0.34605884552001953,0.10289335250854492,-0.29388225078582764
1696965122575489500,6.890489501953125,-0.5339450836181641,-0.2385321855545044,-0.8807355761528015
1696965122585503700,6.900503662109375,-0.28366851806640625,-0.2116912603378296,-0.6990779638290405
1696965122595518000,6.91051806640625,0.24336528778076172,0.18275880813598633,-0.23811107873916626
1696965122605532200,6.9205322265625,0.9313106536865234,-0.3079214096069336,-0.03765583038330078
1696965122615546400,6.93054638671875,0.5131816864013672,-0.28495919704437256,-0.37868791818618774
1696965122625560600,6.940560546875,-0.9402542114257812,-0.8049779534339905,-0.3508152961730957
1696965122635574800,6.95057470703125,2.0253257751464844,0.16466474533081055,0.24774634838104248
1696965122645589000,6.960589111328125,0.5003843307495117,-0.5842255353927612,-0.45821401476860046
1696965122655603200,6.970603271484375,0.5807514190673828,-0.5296717882156372,-0.7327085137367249
1696965122665617400,6.980617431640625,-0.17959880828857422,-0.15128707885742188,-0.43456900119781494
1696965122675631600,6.990631591796875,1.1254758834838867,-0.13503623008728027,-0.41359418630599976
1696965122685645800,7.000645751953125,0.2148580551147461,-0.6971230506896973,-0.8067795038223267
1696965122695660000,7.010659912109375,0.7597198486328125,-0.07851076126098633,-0.9206122159957886
1696965122705674200,7.02067431640625,-0.4979076385498047,-0.1603391170501709,-0.49973660707473755
1696965122715688400,7.0306884765625,1.2861509323120117,0.6014957427978516,-0.0476188063621521
1696965122725703000,7.040702880859375,-0.9010038375854492,-0.38243842124938965,-0.7941415905952454
1696965122735717000,7.050717041015625,-0.013884544372558594,0.21748661994934082,-0.21911662817001343
1696965122745731300,7.0607314453125,0.904078483581543,-0.1786327362060547,0.06437861919403076
1696965122755745500,7.07074560546875,-0.8329153060913086,-0.36274921894073486,-0.38069480657577515
1696965122765759700,7.080759765625,0.15832138061523438,-0.6266694068908691,-0.580676794052124
1696965122775774000,7.09077392578125,-0.8502254486083984,-0.06908917427062988,-0.9307031035423279
1696965122785788200,7.1007880859375,1.3121147155761719,0.44451308250427246,-0.35679370164871216
1696965122795802400,7.11080224609375,-0.40701866149902344,-0.6199254989624023,-1.194922685623169
1696965122805816600,7.120816650390625,-1.7530975341796875,-0.2293452024459839,-1.6588566303253174
1696965122815830800,7.130830810546875,0.02444744110107422,0.012841105461120605,-0.47775188088417053
1696965122825845000,7.140844970703125,-0.6685943603515625,-0.2745931148529053,-1.354339838027954
1696965122835859200,7.150859130859375,-0.17946529388427734,-0.7049382925033569,-1.3828405141830444
1696965122845873400,7.160873291015625,-0.20203590393066406,-0.07956385612487793,-1.397353172302246
1696965122855887600,7.1708876953125,0.864558219909668,0.08573365211486816,-0.7838233709335327
1696965122865901800,7.18090185546875,-0.12163257598876953,-0.2696375846862793,-0.9815031886100769
