time,seconds_elapsed,z,y,x
1696965115855345400,0.170345458984375,-0.16417904198169708,-0.0106523297727108,0.019307348877191544
1696965115865238800,0.18023876953125,-0.15565717220306396,-0.06604444980621338,0.012915950268507004
1696965115875165400,0.19016552734375,-0.16630950570106506,0.0213046595454216,0.015046416781842709
1696965115885128000,0.2001279296875,-0.1631138026714325,-0.007456631399691105,0.012915950268507004
1696965115895127000,0.210126953125,-0.15991811454296112,-0.02450035884976387,0.026763979345560074
1696965115905161500,0.220161376953125,-0.15778763592243195,-0.07776200771331787,0.03528584539890289
1696965115915229200,0.230229248046875,-0.16950520873069763,0.04047885537147522,0.019307348877191544
1696965115925326800,0.240326904296875,-0.15885287523269653,-0.03408745676279068,0.024633513763546944
1696965115935449900,0.250449951171875,-0.15565717220306396,-0.05539211630821228,0.027829213067889214
1696965115945592600,0.260592529296875,-0.16524426639080048,0.0063913981430232525,0.028894444927573204
1696965115955749600,0.27074951171875,-0.16417904198169708,-0.012782796286046505,0.027829213067889214
1696965115965914000,0.2809140625,-0.1620485782623291,-0.05006595328450203,0.040612008422613144
1696965115976080100,0.291080078125,-0.1620485782623291,-0.02769605815410614,0.024633513763546944
1696965115986128400,0.30112841796875,-0.17696183919906616,0.05645735189318657,0.029959678649902344
1696965115996142600,0.311142578125,-0.16417904198169708,-0.02876129187643528,0.012915950268507004
1696965116006156800,0.32115673828125,-0.16524426639080048,0.0053261648863554,0.017176883295178413
1696965116016171000,0.3311708984375,-0.17057043313980103,-0.02876129187643528,0.029959678649902344
1696965116026185200,0.341185302734375,-0.16737474501132965,-0.01917419396340847,0.009720250964164734
1696965116036199400,0.351199462890625,-0.1620485782623291,-0.0106523297727108,0.008655018173158169
1696965116046213400,0.36121337890625,-0.16630950570106506,-0.0426093190908432,0.013981183059513569
1696965116056227600,0.3712275390625,-0.16950520873069763,-0.0010652330238372087,0.007589785382151604
1696965116066241800,0.38124169921875,-0.16524426639080048,-0.01917419396340847,-0.0009320789249613881
1696965116076256000,0.391256103515625,-0.1631138026714325,-0.01384802907705307,-0.006258244160562754
1696965116086270200,0.401270263671875,-0.16630950570106506,-0.02343512699007988,0.004394086077809334
1696965116096284400,0.411284423828125,-0.1620485782623291,-0.01810896210372448,0.007589785382151604
1696965116106298400,0.42129833984375,-0.1631138026714325,-0.06071828305721283,0.013981183059513569
1696965116116312600,0.4313125,-0.16524426639080048,0.0106523297727108,-0.005193010903894901
1696965116126326800,0.441326904296875,-0.16417904198169708,-0.00852186419069767,0.009720250964164734
1696965116136341000,0.451341064453125,-0.15778763592243195,-0.0745663121342659,0.018242115154862404
1696965116146355200,0.461355224609375,-0.16843996942043304,0.03089175745844841,0.004394086077809334
1696965116156369400,0.471369384765625,-0.16524426639080048,-0.0010652330238372087,-0.0009320789249613881
1696965116166383400,0.48138330078125,-0.16098333895206451,-0.01810896210372448,0.00226362026296556
1696965116176397600,0.4913974609375,-0.15778763592243195,-0.07776200771331787,0.023568280041217804
1696965116186411800,0.501411865234375,-0.15565717220306396,-0.05965305119752884,0.0033288532868027687
1696965116196426000,0.511426025390625,-0.17589659988880157,0.07882724702358246,0.005459319334477186
1696965116206440200,0.521440185546875,-0.1524614691734314,-0.05432688444852829,-0.020106272771954536
1696965116216454400,0.531454345703125,-0.16098333895206451,0,0.005459319334477186
1696965116226468400,0.54146826171875,-0.15885287523269653,-0.10865376889705658,0.026763979345560074
1696965116236482600,0.551482666015625,-0.1631138026714325,-0.012782796286046505,0.012915950268507004
1696965116246496800,0.561496826171875,-0.15459194779396057,-0.01704372838139534,-0.011584409512579441
1696965116256511000,0.571510986328125,-0.16417904198169708,-0.0319569893181324,0.018242115154862404
1696965116266525200,0.581525146484375,-0.15565717220306396,-0.08308817446231842,0.028894444927573204
1696965116276539400,0.591539306640625,-0.16098333895206451,-0.07776200771331787,0.026763979345560074
1696965116286553300,0.60155322265625,-0.16630950570106506,-0.01917419396340847,0.015046416781842709
1696965116296567600,0.611567626953125,-0.1716356724500656,0.05752258375287056,0.007589785382151604
1696965116306581800,0.621581787109375,-0.1631138026714325,-0.05219641700387001,0.021437814459204674
1696965116316596000,0.631595947265625,-0.16843996942043304,-0.0639139786362648,0.033155377954244614
1696965116326610200,0.641610107421875,-0.1737661361694336,0.004260932095348835,0.009720250964164734
1696965116336624400,0.651624267578125,-0.17057043313980103,0.0639139786362648,-0.0009320789249613881
1696965116346638600,0.661638671875,-0.1620485782623291,-0.0745663121342659,0.0011983871227130294
1696965116356652500,0.671652587890625,-0.172700896859169,0.01384802907705307,0.004394086077809334
1696965116366666800,0.681666748046875,-0.16524426639080048,-0.02450035884976387,0.005459319334477186
1696965116376681000,0.691680908203125,-0.1620485782623291,-0.06071828305721283,0.0011983871227130294
1696965116386695200,0.701695068359375,-0.16950520873069763,0.04580501839518547,-0.017975807189941406
1696965116396709400,0.71170947265625,-0.16524426639080048,0.007456631399691105,-0.004127778112888336
1696965116406723600,0.7217236328125,-0.15991811454296112,-0.02769605815410614,-0.004127778112888336
1696965116416737500,0.731737548828125,-0.1620485782623291,-0.0031956990715116262,-0.006258244160562754
1696965116426751700,0.741751708984375,-0.16098333895206451,-0.0063913981430232525,-0.009453942999243736
1696965116436766000,0.751765869140625,-0.15991811454296112,-0.02023942768573761,0.0001331541279796511
1696965116446780200,0.7617802734375,-0.14926578104496002,-0.0958709716796875,-0.004127778112888336
1696965116456794400,0.77179443359375,-0.15565717220306396,0.00852186419069767,-0.007323476951569319
1696965116466808600,0.78180859375,-0.1524614691734314,-0.05965305119752884,-0.004127778112888336
1696965116476822500,0.791822509765625,-0.1524614691734314,-0.04047885537147522,0.012915950268507004
1696965116486836700,0.801836669921875,-0.14500483870506287,-0.1374150663614273,0.015046416781842709
1696965116496851000,0.811850830078125,-0.15991811454296112,0.03728315606713295,-0.005193010903894901
1696965116506865200,0.821865234375,-0.1524614691734314,-0.05219641700387001,0.005459319334477186
1696965116516879400,0.83187939453125,-0.151396244764328,-0.004260932095348835,-0.010519175790250301
1696965116526893600,0.8418935546875,-0.15885287523269653,-0.05219641700387001,0.023568280041217804
1696965116536907500,0.851907470703125,-0.15565717220306396,0.0010652330238372087,-0.001997311832383275
1696965116546921700,0.861921630859375,-0.15459194779396057,0,0.013981183059513569
1696965116556936000,0.87193603515625,-0.14607007801532745,-0.08415340632200241,0.005459319334477186
1696965116566950100,0.8819501953125,-0.16417904198169708,0.04367455467581749,0.023568280041217804
1696965116576964400,0.89196435546875,-0.1418091505765915,-0.10119713842868805,0.004394086077809334
1696965116586978600,0.901978515625,-0.15565717220306396,0.02769605815410614,0.010785484686493874
1696965116596992800,0.91199267578125,-0.15565717220306396,-0.06284874677658081,0.022503048181533813
1696965116607007000,0.922007080078125,-0.15778763592243195,0.03515268862247467,0.007589785382151604
1696965116617021200,0.932021240234375,-0.15459194779396057,-0.02982652559876442,0.022503048181533813
1696965116627035400,0.942035400390625,-0.15033100545406342,-0.07776200771331787,0.022503048181533813
1696965116637049600,0.952049560546875,-0.15778763592243195,-0.0031956990715116262,0.00226362026296556
1696965116647063800,0.962063720703125,-0.15991811454296112,0.01171756349503994,0.019307348877191544
1696965116657078000,0.972078125,-0.14926578104496002,-0.08308817446231842,0.00226362026296556
1696965116667092200,0.98209228515625,-0.16417904198169708,0.04900071769952774,-0.007323476951569319
1696965116677106400,0.9921064453125,-0.15778763592243195,-0.012782796286046505,-0.015845341607928276
1696965116687120600,1.00212060546875,-0.15991811454296112,0.004260932095348835,-0.004127778112888336
1696965116697135000,1.012135009765625,-0.15352670848369598,-0.02769605815410614,-0.012649642303586006
1696965116707149300,1.0221494140625,-0.16524426639080048,0.02343512699007988,-0.011584409512579441
1696965116717163500,1.03216357421875,-0.151396244764328,-0.04047885537147522,-0.025432437658309937
1696965116727177700,1.042177734375,-0.1524614691734314,0.01491326279938221,-0.019041040912270546
1696965116737192000,1.05219189453125,-0.15459194779396057,-0.07243584841489792,-0.009453942999243736
1696965116747206100,1.0622060546875,-0.16524426639080048,0.08308817446231842,-0.028628136962652206
1696965116757220400,1.072220458984375,-0.14287437498569489,-0.06071828305721283,-0.024367205798625946
1696965116767234600,1.082234619140625,-0.15352670848369598,-0.009587096981704235,-0.015845341607928276
1696965116777248800,1.092248779296875,-0.15885287523269653,-0.007456631399691105,-0.001997311832383275
1696965116787263000,1.102262939453125,-0.14820054173469543,-0.01384802907705307,-0.015845341607928276
1696965116797277200,1.112277099609375,-0.14926578104496002,-0.00852186419069767,-0.007323476951569319
1696965116807291400,1.12229150390625,-0.15672241151332855,-0.02023942768573761,0.00226362026296556
1696965116817305600,1.1323056640625,-0.15672241151332855,0.05113118514418602,-0.015845341607928276
1696965116827319800,1.14231982421875,-0.14713531732559204,-0.03621792420744896,0.016111649572849274
1696965116837334000,1.152333984375,-0.14820054173469543,-0.05432688444852829,0.016111649572849274
1696965116847348200,1.16234814453125,-0.15565717220306396,0.04900071769952774,0.006524552125483751
1696965116857362400,1.172362548828125,-0.1418091505765915,-0.05113118514418602,0.009720250964164734
1696965116867376600,1.182376708984375,-0.14287437498569489,-0.03621792420744896,0.018242115154862404
1696965116877390800,1.192390869140625,-0.14607007801532745,-0.02343512699007988,0.021437814459204674
1696965116887405000,1.202405029296875,-0.14500483870506287,-0.04793548583984375,0.027829213067889214
1696965116897419300,1.212419189453125,-0.13328728079795837,-0.07137060910463333,0.024633513763546944
1696965116907433500,1.22243359375,-0.13861344754695892,-0.08095771074295044,0.034220609813928604
1696965116917447700,1.23244775390625,-0.14500483870506287,-0.03621792420744896,0.037416309118270874
1696965116927462000,1.2424619140625,-0.13541774451732635,-0.07350108027458191,0.025698747485876083
1696965116937476400,1.252476318359375,-0.13648298382759094,-0.04580501839518547,0.03209014609456062
1696965116947490600,1.262490478515625,-0.1407439112663269,-0.07989247888326645,0.033155377954244614
1696965116957504800,1.2725048828125,-0.1524614691734314,0.04047885537147522,0.037416309118270874
1696965116967519000,1.28251904296875,-0.1290263533592224,-0.08202294260263443,0.015046416781842709
1696965116977533200,1.292533203125,-0.14926578104496002,-0.0159784946590662,0.041677240282297134
1696965116987547400,1.30254736328125,-0.13861344754695892,-0.07137060910463333,0.025698747485876083
1696965116997561600,1.3125615234375,-0.13861344754695892,0.02450035884976387,0.016111649572849274
1696965117007575800,1.322575927734375,-0.13541774451732635,-0.07563154399394989,0.027829213067889214
1696965117017590000,1.332590087890625,-0.1407439112663269,-0.01917419396340847,0.024633513763546944
1696965117027604200,1.342604248046875,-0.13861344754695892,0.04793548583984375,0.006524552125483751
1696965117037618400,1.352618408203125,-0.1290263533592224,-0.05432688444852829,0.010785484686493874
1696965117047632600,1.362632568359375,-0.13328728079795837,-0.05965305119752884,0.023568280041217804
1696965117057646800,1.372646728515625,-0.13222205638885498,-0.0010652330238372087,0.0001331541279796511
1696965117067661000,1.3826611328125,-0.12583065032958984,-0.0021304660476744175,-0.001997311832383275
1696965117077675300,1.39267529296875,-0.12476541846990585,-0.04473978653550148,0.005459319334477186
1696965117087689500,1.402689453125,-0.1300915777683258,0.007456631399691105,0.0033288532868027687
1696965117097703700,1.41270361328125,-0.12583065032958984,-0.03089175745844841,0.017176883295178413
1696965117107718700,1.42271875,-0.11624355614185333,-0.07563154399394989,-0.004127778112888336
1696965117117733000,1.432733154296875,-0.13222205638885498,0.03941362351179123,0.013981183059513569
1696965117127747300,1.442747314453125,-0.1205044835805893,-0.0319569893181324,0.0001331541279796511
1696965117137761500,1.452761474609375,-0.12476541846990585,0.01491326279938221,0.012915950268507004
1696965117147775700,1.462775634765625,-0.12156971544027328,-0.10545806586742401,0.036351077258586884
1696965117157790000,1.4727900390625,-0.12689588963985443,0.05113118514418602,-0.0009320789249613881
1696965117167804200,1.48280419921875,-0.12370018661022186,-0.00852186419069767,0.031024912372231483
1696965117177818400,1.492818359375,-0.11624355614185333,-0.10439283400774002,0.043807707726955414
1696965117187832600,1.50283251953125,-0.12689588963985443,0.0159784946590662,0.034220609813928604
1696965117197846800,1.5128466796875,-0.12370018661022186,-0.02023942768573761,0.040612008422613144
1696965117207861000,1.522861083984375,-0.12583065032958984,-0.04367455467581749,0.0555252730846405
1696965117217875200,1.532875244140625,-0.12796111404895782,-0.02023942768573761,0.044872939586639404
1696965117227889400,1.542889404296875,-0.1300915777683258,0.07137060910463333,0.033155377954244614
1696965117237903600,1.552903564453125,-0.12370018661022186,-0.05432688444852829,0.041677240282297134
1696965117247917800,1.562917724609375,-0.1311568170785904,0.02023942768573761,0.048068638890981674
1696965117257932000,1.57293212890625,-0.12583065032958984,-0.01810896210372448,0.033155377954244614
1696965117267946200,1.5829462890625,-0.1300915777683258,0.02663082629442215,0.03528584539890289
1696965117277960400,1.59296044921875,-0.12263495475053787,-0.04900071769952774,0.028894444927573204
1696965117287974700,1.602974609375,-0.12476541846990585,0.01491326279938221,0.023568280041217804
1696965117297988900,1.61298876953125,-0.12476541846990585,-0.0063913981430232525,0.020372580736875534
1696965117308003000,1.623003173828125,-0.12370018661022186,0.004260932095348835,0.008655018173158169
1696965117318017300,1.633017333984375,-0.11198262125253677,-0.06817491352558136,0.010785484686493874
1696965117328031500,1.643031494140625,-0.11517832428216934,-0.01704372838139534,-0.004127778112888336
1696965117338045700,1.653045654296875,-0.12156971544027328,-0.0063913981430232525,0.009720250964164734
1696965117348060200,1.66306005859375,-0.10772168636322021,-0.06604444980621338,-0.015845341607928276
1696965117358074400,1.673074462890625,-0.11730878800153732,0.02769605815410614,-0.006258244160562754
1696965117368088600,1.683088623046875,-0.10772168636322021,-0.07243584841489792,-0.011584409512579441
1696965117378102800,1.693102783203125,-0.11411308497190475,0.009587096981704235,-0.017975807189941406
1696965117388117000,1.703116943359375,-0.10452599078416824,-0.02769605815410614,-0.023301972076296806
1696965117398131200,1.713131103515625,-0.10772168636322021,-0.04047885537147522,-0.014780107885599136
1696965117408145400,1.7231455078125,-0.1087869256734848,0.02982652559876442,-0.028628136962652206
1696965117418159600,1.73315966796875,-0.09493889659643173,-0.09906667470932007,-0.007323476951569319
1696965117428173800,1.743173828125,-0.09600412845611572,-0.05645735189318657,-0.023301972076296806
1696965117438188000,1.75318798828125,-0.10772168636322021,0.007456631399691105,-0.020106272771954536
1696965117448202200,1.7632021484375,-0.09280842542648315,-0.01810896210372448,-0.031823836266994476
1696965117458216400,1.773216552734375,-0.09706936031579971,-0.05645735189318657,0.007589785382151604
1696965117468230700,1.783230712890625,-0.09067796170711517,-0.05965305119752884,-0.013714875094592571
1696965117478244900,1.793244873046875,-0.10133028775453568,0.04900071769952774,-0.009453942999243736
1696965117488259000,1.803259033203125,-0.08215609937906265,-0.07563154399394989,0.0001331541279796511
1696965117498273300,1.813273193359375,-0.09067796170711517,-0.04687025398015976,0.026763979345560074
1696965117508287500,1.82328759765625,-0.0981345921754837,0.00852186419069767,0.012915950268507004
1696965117518301700,1.8333017578125,-0.09493889659643173,0.01704372838139534,0.020372580736875534
1696965117528316000,1.84331591796875,-0.08002562820911407,-0.08308817446231842,0.023568280041217804
1696965117538330000,1.853330078125,-0.10239552706480026,0.04793548583984375,0.028894444927573204
1696965117548344300,1.86334423828125,-0.09387365728616714,-0.04687025398015976,0.03848154470324516
1696965117558358500,1.873358642578125,-0.0874822586774826,-0.0106523297727108,0.011850717477500439
1696965117568372700,1.883372802734375,-0.09387365728616714,-0.03621792420744896,0.036351077258586884
1696965117578387000,1.893386962890625,-0.0981345921754837,-0.02556559257209301,0.034220609813928604
1696965117588401400,1.9034013671875,-0.09067796170711517,-0.01384802907705307,0.015046416781842709
1696965117598415600,1.91341552734375,-0.0874822586774826,-0.05006595328450203,0.019307348877191544
1696965117608429800,1.923429931640625,-0.09600412845611572,-0.05965305119752884,0.026763979345560074
1696965117618444000,1.933444091796875,-0.09387365728616714,-0.0106523297727108,0.009720250964164734
1696965117628458200,1.943458251953125,-0.09174319356679916,-0.04473978653550148,0.010785484686493874
1696965117638472400,1.953472412109375,-0.09387365728616714,-0.02343512699007988,0.00226362026296556
1696965117648486700,1.963486572265625,-0.10133028775453568,-0.03515268862247467,0.009720250964164734
1696965117658500900,1.9735009765625,-0.09493889659643173,0.012782796286046505,-0.008388710208237171
1696965117668515000,1.98351513671875,-0.09387365728616714,-0.02343512699007988,0.0001331541279796511
1696965117678529300,1.993529296875,-0.0981345921754837,-0.00852186419069767,-0.010519175790250301
1696965117688543500,2.00354345703125,-0.0991998240351677,-0.0159784946590662,0.005459319334477186
1696965117698557700,2.0135576171875,-0.09067796170711517,-0.0063913981430232525,-0.017975807189941406
1696965117708572000,2.023572021484375,-0.0981345921754837,-0.009587096981704235,-0.0030625448562204838
1696965117718586000,2.033586181640625,-0.0981345921754837,-0.02663082629442215,-0.016910573467612267
1696965117728600300,2.043600341796875,-0.09280842542648315,0.0031956990715116262,0.0011983871227130294
1696965117738614500,2.053614501953125,-0.0778951644897461,-0.07137060910463333,-0.027562905102968216
1696965117748628700,2.063628662109375,-0.0991998240351677,-0.012782796286046505,0.0001331541279796511
1696965117758643000,2.073642822265625,-0.08322133123874664,-0.07243584841489792,-0.023301972076296806
1696965117768657200,2.0836572265625,-0.08854749798774719,0.03302222490310669,-0.020106272771954536
1696965117778671400,2.09367138671875,-0.0768299326300621,-0.16191542148590088,-0.001997311832383275
1696965117788685600,2.103685546875,-0.09387365728616714,0.0053261648863554,-0.019041040912270546
1696965117798699800,2.11369970703125,-0.08322133123874664,-0.05752258375287056,-0.008388710208237171
1696965117808714000,2.1237138671875,-0.07896039634943008,-0.05858781561255455,-0.022236740216612816
1696965117818728200,2.133728271484375,-0.09280842542648315,-0.03089175745844841,0.0001331541279796511
1696965117828742700,2.14374267578125,-0.08854749798774719,-0.05539211630821228,-0.0009320789249613881
1696965117838756900,2.1537568359375,-0.08961272984743118,-0.01171756349503994,-0.0009320789249613881
1696965117848771000,2.16377099609375,-0.08428656309843063,-0.0745663121342659,-0.0009320789249613881
1696965117858785300,2.173785400390625,-0.09387365728616714,-0.01917419396340847,0.006524552125483751
1696965117868799500,2.183799560546875,-0.08961272984743118,0.007456631399691105,0.011850717477500439
1696965117878813700,2.193813720703125,-0.0778951644897461,-0.14167599380016327,0.024633513763546944
1696965117888828000,2.203827880859375,-0.09387365728616714,-0.05006595328450203,0.027829213067889214
1696965117898842000,2.213842041015625,-0.09706936031579971,0.04047885537147522,0.006524552125483751
1696965117908856300,2.223856201171875,-0.07576470077037811,-0.09693620353937149,0.0033288532868027687
1696965117918870500,2.23387060546875,-0.09280842542648315,-0.04473978653550148,0.019307348877191544
1696965117928884700,2.243884765625,-0.0991998240351677,-0.02876129187643528,0.012915950268507004
1696965117938899000,2.25389892578125,-0.0874822586774826,0.0063913981430232525,-0.009453942999243736
1696965117948913200,2.2639130859375,-0.08215609937906265,-0.06817491352558136,-0.008388710208237171
1696965117958927400,2.27392724609375,-0.09600412845611572,-0.05006595328450203,0.011850717477500439
1696965117968941600,2.283941650390625,-0.09174319356679916,-0.01384802907705307,-0.020106272771954536
1696965117978955800,2.293955810546875,-0.0874822586774826,0.0053261648863554,-0.026497671380639076
1696965117988970000,2.303969970703125,-0.08961272984743118,-0.05219641700387001,-0.013714875094592571
1696965117998984200,2.313984130859375,-0.10026505589485168,0.01384802907705307,-0.010519175790250301
1696965118008998400,2.323998291015625,-0.08428656309843063,-0.01810896210372448,-0.030758604407310486
1696965118019012600,2.3340126953125,-0.08854749798774719,-0.007456631399691105,-0.014780107885599136
1696965118029026800,2.34402685546875,-0.09280842542648315,-0.03408745676279068,-0.008388710208237171
1696965118039041000,2.354041015625,-0.0874822586774826,-0.0031956990715116262,-0.008388710208237171
1696965118049055200,2.36405517578125,-0.08854749798774719,-0.0021304660476744175,-0.017975807189941406
1696965118059069400,2.3740693359375,-0.09280842542648315,-0.0063913981430232525,-0.004127778112888336
1696965118069084000,2.384083984375,-0.08961272984743118,-0.02982652559876442,-0.006258244160562754
1696965118079098000,2.39409814453125,-0.09067796170711517,0.0426093190908432,-0.007323476951569319
1696965118089112300,2.4041123046875,-0.08109086751937866,-0.08202294260263443,-0.0030625448562204838
1696965118099126500,2.41412646484375,-0.09174319356679916,0.0319569893181324,-0.005193010903894901
1696965118109140700,2.424140625,-0.08641702681779861,-0.01704372838139534,-0.004127778112888336
1696965118119155000,2.434155029296875,-0.08428656309843063,-0.02343512699007988,0.006524552125483751
1696965118129169200,2.444169189453125,-0.08428656309843063,-0.02663082629442215,0.0001331541279796511
1696965118139183400,2.454183349609375,-0.09387365728616714,0.02343512699007988,0.0011983871227130294
1696965118149197600,2.464197509765625,-0.07896039634943008,-0.03089175745844841,-0.005193010903894901
1696965118159211800,2.474211669921875,-0.08109086751937866,-0.0159784946590662,0.015046416781842709
1696965118169226000,2.48422607421875,-0.07896039634943008,-0.06497921794652939,0.015046416781842709
1696965118179240200,2.494240234375,-0.08641702681779861,0.03834838792681694,0.009720250964164734
1696965118189254400,2.50425439453125,-0.0768299326300621,-0.02236989326775074,0.010785484686493874
1696965118199268600,2.5142685546875,-0.08215609937906265,-0.05113118514418602,0.027829213067889214
1696965118209282800,2.52428271484375,-0.08854749798774719,0.009587096981704235,0.024633513763546944
1696965118219297000,2.534297119140625,-0.08961272984743118,0.04580501839518547,0.004394086077809334
1696965118229311200,2.544311279296875,-0.08322133123874664,-0.0031956990715116262,0.03209014609456062
1696965118239325400,2.554325439453125,-0.08002562820911407,-0.05965305119752884,0.026763979345560074
1696965118249339600,2.564339599609375,-0.09174319356679916,0.04154408723115921,0.020372580736875534
1696965118259353900,2.574353759765625,-0.08002562820911407,-0.0159784946590662,0.017176883295178413
1696965118269368000,2.5843681640625,-0.08535179495811462,-0.0031956990715116262,0.015046416781842709
1696965118279382300,2.59438232421875,-0.09280842542648315,0.007456631399691105,0.021437814459204674
1696965118289396500,2.604396484375,-0.08854749798774719,0.01810896210372448,0.007589785382151604
1696965118299410700,2.61441064453125,-0.08322133123874664,-0.01704372838139534,0.005459319334477186
1696965118309425200,2.624425048828125,-0.09174319356679916,-0.004260932095348835,0.019307348877191544
1696965118319439400,2.634439453125,-0.08854749798774719,0.0106523297727108,0.004394086077809334
1696965118329453600,2.64445361328125,-0.08854749798774719,0.02450035884976387,0.005459319334477186
1696965118339467800,2.6544677734375,-0.08109086751937866,-0.05965305119752884,-0.007323476951569319
1696965118349482000,2.66448193359375,-0.09706936031579971,0.0159784946590662,0.018242115154862404
1696965118359496200,2.67449609375,-0.08109086751937866,-0.009587096981704235,-0.012649642303586006
1696965118369510400,2.684510498046875,-0.08961272984743118,-0.02343512699007988,0.018242115154862404
1696965118379524600,2.694524658203125,-0.08641702681779861,-0.02876129187643528,-0.007323476951569319
1696965118389538800,2.704538818359375,-0.08854749798774719,-0.0021304660476744175,0.00226362026296556
1696965118399553000,2.714552978515625,-0.08641702681779861,0.00852186419069767,-0.007323476951569319
1696965118409567200,2.724567138671875,-0.09387365728616714,-0.02343512699007988,0.012915950268507004
1696965118419581400,2.73458154296875,-0.08961272984743118,-0.05965305119752884,0.00226362026296556
1696965118429595600,2.744595703125,-0.09706936031579971,0.08947957307100296,-0.009453942999243736
1696965118439609900,2.75460986328125,-0.0768299326300621,-0.1288931965827942,0.005459319334477186
1696965118449624000,2.7646240234375,-0.10026505589485168,-0.0063913981430232525,0.016111649572849274
1696965118459638500,2.774638427734375,-0.09600412845611572,-0.01171756349503994,-0.0009320789249613881
1696965118469652700,2.78465283203125,-0.09174319356679916,0.03515268862247467,-0.009453942999243736
1696965118479667000,2.7946669921875,-0.09387365728616714,-0.0745663121342659,0.011850717477500439
1696965118489681200,2.80468115234375,-0.10559122264385223,-0.009587096981704235,0.008655018173158169
1696965118499695600,2.814695556640625,-0.09706936031579971,0.03834838792681694,-0.013714875094592571
1696965118509709800,2.824709716796875,-0.09600412845611572,-0.02663082629442215,0.005459319334477186
1696965118519724000,2.83472412109375,-0.10346075892448425,-0.0106523297727108,0.018242115154862404
1696965118529738200,2.84473828125,-0.0991998240351677,-0.06284874677658081,0.006524552125483751
1696965118539752700,2.854752685546875,-0.10452599078416824,0.10439283400774002,-0.023301972076296806
1696965118549767000,2.864766845703125,-0.09600412845611572,-0.0852186381816864,0.024633513763546944
1696965118559781000,2.874781005859375,-0.10452599078416824,-0.02769605815410614,0.010785484686493874
1696965118569795300,2.88479541015625,-0.11411308497190475,0.01704372838139534,0.021437814459204674
1696965118579809800,2.894809814453125,-0.10346075892448425,0.02982652559876442,-0.009453942999243736
1696965118589824000,2.904823974609375,-0.10772168636322021,-0.05645735189318657,0.034220609813928604
1696965118599838200,2.914838134765625,-0.10665645450353622,-0.09374050796031952,0.013981183059513569
1696965118609852400,2.924852294921875,-0.1205044835805893,0.06071828305721283,0.019307348877191544
1696965118619866600,2.93486669921875,-0.10559122264385223,-0.01810896210372448,-0.006258244160562754
1696965118629881000,2.944881103515625,-0.1194392517209053,-0.05113118514418602,0.040612008422613144
1696965118639895300,2.954895263671875,-0.12156971544027328,-0.04154408723115921,0.011850717477500439
1696965118649909500,2.964909423828125,-0.12370018661022186,0.07776200771331787,0.005459319334477186
1696965118659923700,2.974923828125,-0.11411308497190475,-0.06710968166589737,-0.009453942999243736
1696965118669938200,2.984938232421875,-0.12583065032958984,0.02769605815410614,0.009720250964164734
1696965118679952400,2.994952392578125,-0.1194392517209053,-0.07030537724494934,0.0033288532868027687
1696965118689966600,3.004966552734375,-0.13435252010822296,0.07882724702358246,-0.007323476951569319
1696965118699980800,3.014980712890625,-0.12583065032958984,0.0159784946590662,-0.013714875094592571
1696965118709995300,3.024995361328125,-0.12689588963985443,0.0159784946590662,-0.011584409512579441
1696965118720009500,3.035009521484375,-0.1311568170785904,0.05006595328450203,-0.009453942999243736
1696965118730023700,3.045023681640625,-0.12370018661022186,-0.0063913981430232525,-0.020106272771954536
1696965118740038000,3.055037841796875,-0.12476541846990585,0.03089175745844841,-0.012649642303586006
1696965118750052400,3.06505224609375,-0.12263495475053787,-0.0213046595454216,-0.007323476951569319
1696965118760066600,3.075066650390625,-0.12476541846990585,0.03834838792681694,-0.017975807189941406
1696965118770080800,3.085080810546875,-0.11304785311222076,-0.04793548583984375,-0.007323476951569319
1696965118780095000,3.095094970703125,-0.1194392517209053,-0.04580501839518547,0.007589785382151604
1696965118790109200,3.105109130859375,-0.12583065032958984,0.03302222490310669,-0.013714875094592571
1696965118800123400,3.115123291015625,-0.11837401986122131,0.02450035884976387,-0.007323476951569319
1696965118810137600,3.1251376953125,-0.11411308497190475,-0.06071828305721283,0.016111649572849274
1696965118820151800,3.13515185546875,-0.12370018661022186,-0.04473978653550148,0.016111649572849274
1696965118830166000,3.145166015625,-0.12689588963985443,0.05006595328450203,-0.007323476951569319
1696965118840180200,3.15518017578125,-0.11624355614185333,0.03728315606713295,-0.005193010903894901
1696965118850194400,3.1651943359375,-0.11624355614185333,-0.05219641700387001,0.028894444927573204
1696965118860208600,3.175208740234375,-0.1311568170785904,0.01491326279938221,0.016111649572849274
1696965118870222800,3.185222900390625,-0.1290263533592224,0.06071828305721283,0.0011983871227130294
1696965118880237000,3.195237060546875,-0.1087869256734848,-0.0213046595454216,0.010785484686493874
1696965118890251300,3.205251220703125,-0.11517832428216934,-0.10439283400774002,0.054460037499666214
1696965118900265700,3.215265625,-0.1300915777683258,0.01491326279938221,0.021437814459204674
1696965118910280000,3.225280029296875,-0.1205044835805893,0.09374050796031952,-0.0009320789249613881
1696965118920294100,3.235294189453125,-0.1087869256734848,-0.03515268862247467,0.027829213067889214
1696965118930308400,3.245308349609375,-0.11517832428216934,-0.13634982705116272,0.07150376588106155
1696965118940322600,3.255322509765625,-0.12796111404895782,0.0532616525888443,0.021437814459204674
1696965118950336800,3.265336669921875,-0.11730878800153732,0.07776200771331787,0.008655018173158169
1696965118960351000,3.27535107421875,-0.11091738939285278,-0.02343512699007988,0.013981183059513569
1696965118970365200,3.285365234375,-0.12689588963985443,-0.03408745676279068,0.057655736804008484
1696965118980379400,3.29537939453125,-0.11624355614185333,-0.004260932095348835,0.015046416781842709
1696965118990393600,3.3053935546875,-0.11091738939285278,0.03941362351179123,-0.0009320789249613881
1696965119000407800,3.31540771484375,-0.11411308497190475,-0.08734910935163498,0.037416309118270874
1696965119010422000,3.325422119140625,-0.11837401986122131,-0.04687025398015976,0.025698747485876083
1696965119020436200,3.335436279296875,-0.11837401986122131,0.03728315606713295,0.004394086077809334
1696965119030450400,3.345450439453125,-0.11304785311222076,-0.01384802907705307,-0.005193010903894901
1696965119040464600,3.355464599609375,-0.12263495475053787,-0.03834838792681694,0.034220609813928604
1696965119050478800,3.365478759765625,-0.11411308497190475,-0.04793548583984375,-0.001997311832383275
1696965119060493000,3.3754931640625,-0.12583065032958984,0.08628387749195099,-0.006258244160562754
1696965119070507300,3.38550732421875,-0.11411308497190475,-0.05539211630821228,-0.007323476951569319
1696965119080521500,3.395521484375,-0.12796111404895782,0.03621792420744896,0.0011983871227130294
1696965119090535700,3.40553564453125,-0.12156971544027328,0.00852186419069767,-0.021171506494283676
1696965119100550000,3.4155498046875,-0.12263495475053787,0.05113118514418602,-0.022236740216612816
1696965119110564000,3.425564208984375,-0.11730878800153732,0.0063913981430232525,-0.026497671380639076
1696965119120578300,3.435578369140625,-0.12263495475053787,-0.0053261648863554,-0.011584409512579441
1696965119130592500,3.445592529296875,-0.11730878800153732,0.02343512699007988,-0.037150003015995026
1696965119140607000,3.45560693359375,-0.11517832428216934,0.007456631399691105,-0.03928046673536301
1696965119150621200,3.46562109375,-0.12263495475053787,0.04900071769952774,-0.025432437658309937
1696965119160635400,3.475635498046875,-0.11730878800153732,-0.03621792420744896,-0.035019535571336746
1696965119170649600,3.485649658203125,-0.12370018661022186,0.05539211630821228,-0.038215234875679016
1696965119180663800,3.495663818359375,-0.11091738939285278,0.0010652330238372087,-0.045671865344047546
1696965119190678000,3.505677978515625,-0.11837401986122131,-0.0532616525888443,-0.015845341607928276
1696965119200692200,3.515692138671875,-0.12476541846990585,0.05965305119752884,-0.044606633484363556
1696965119210706400,3.52570654296875,-0.11837401986122131,-0.03621792420744896,-0.013714875094592571
1696965119220720600,3.535720703125,-0.11624355614185333,-0.00852186419069767,-0.035019535571336746
1696965119230734800,3.54573486328125,-0.12583065032958984,0.01384802907705307,-0.014780107885599136
1696965119240749000,3.5557490234375,-0.11730878800153732,0.007456631399691105,-0.027562905102968216
1696965119250763300,3.56576318359375,-0.12156971544027328,-0.02023942768573761,0.010785484686493874
1696965119260777500,3.575777587890625,-0.1205044835805893,0.009587096981704235,-0.009453942999243736
1696965119270791700,3.585791748046875,-0.12796111404895782,0.0319569893181324,-0.0009320789249613881
1696965119280806000,3.595805908203125,-0.12156971544027328,0.05645735189318657,-0.010519175790250301
1696965119290820000,3.605820068359375,-0.1194392517209053,-0.05219641700387001,0.033155377954244614
1696965119300834300,3.615834228515625,-0.1205044835805893,0.0106523297727108,0.007589785382151604
1696965119310848500,3.6258486328125,-0.12156971544027328,0.06817491352558136,-0.005193010903894901
1696965119320862700,3.63586279296875,-0.10772168636322021,-0.05113118514418602,0.023568280041217804
1696965119330877000,3.645876953125,-0.10665645450353622,-0.11291470378637314,0.041677240282297134
1696965119340891100,3.65589111328125,-0.11624355614185333,0.0053261648863554,0.013981183059513569
1696965119350905300,3.6659052734375,-0.10772168636322021,-0.02023942768573761,0.007589785382151604
1696965119360919600,3.67591943359375,-0.10133028775453568,-0.10119713842868805,0.034220609813928604
1696965119370933800,3.685933837890625,-0.10985215753316879,-0.05432688444852829,0.027829213067889214
1696965119380948200,3.6959482421875,-0.11091738939285278,-0.01917419396340847,0.009720250964164734
1696965119390962400,3.70596240234375,-0.10559122264385223,-0.04047885537147522,0.021437814459204674
1696965119400976600,3.7159765625,-0.10133028775453568,-0.1501978635787964,0.047003407031297684
1696965119410990800,3.725990966796875,-0.11198262125253677,-0.01384802907705307,0.022503048181533813
1696965119421005000,3.736005126953125,-0.11091738939285278,-0.02982652559876442,0.013981183059513569
1696965119431019300,3.746019287109375,-0.10772168636322021,-0.05645735189318657,0.031024912372231483
1696965119441033500,3.756033447265625,-0.10452599078416824,-0.1587197184562683,0.05659050494432449
1696965119451047700,3.766047607421875,-0.11198262125253677,-0.03621792420744896,0.024633513763546944
1696965119461062000,3.776061767578125,-0.11091738939285278,-0.0532616525888443,0.025698747485876083
1696965119471076000,3.786076171875,-0.09493889659643173,-0.23009033501148224,0.060851436108350754
1696965119481090300,3.79609033203125,-0.0991998240351677,-0.14593692123889923,0.04913387447595596
1696965119491104500,3.8061044921875,-0.10772168636322021,-0.11184946447610855,0.03954677656292915
1696965119501118700,3.81611865234375,-0.09387365728616714,-0.18748101592063904,0.05232957378029823
1696965119511133000,3.8261328125,-0.0874822586774826,-0.24074266850948334,0.07363422960042953
1696965119521147100,3.836147216796875,-0.09280842542648315,-0.16724158823490143,0.053394805639982224
1696965119531161300,3.846161376953125,-0.09600412845611572,-0.15126308798789978,0.06830807030200958
1696965119541175600,3.856175537109375,-0.0874822586774826,-0.16724158823490143,0.08002562820911407
1696965119551189800,3.866189697265625,-0.08322133123874664,-0.21730753779411316,0.10239552706480026
1696965119561204000,3.876203857421875,-0.0981345921754837,-0.05645735189318657,0.08109086751937866
1696965119571218200,3.88621826171875,-0.09493889659643173,-0.04154408723115921,0.08961272984743118
1696965119581232400,3.896232421875,-0.09067796170711517,-0.03621792420744896,0.10559122264385223
1696965119591246600,3.90624658203125,-0.09280842542648315,-0.07882724702358246,0.13541774451732635
1696965119601260800,3.9162607421875,-0.10772168636322021,-0.0063913981430232525,0.13648298382759094
1696965119611275300,3.926275146484375,-0.10559122264385223,0.10545806586742401,0.10452599078416824
1696965119621289500,3.93628955078125,-0.10026505589485168,0.1065233051776886,0.11837401986122131
1696965119631303700,3.9463037109375,-0.10772168636322021,0.06817491352558136,0.1396786868572235
1696965119641318000,3.95631787109375,-0.11837401986122131,0.08734910935163498,0.14926578104496002
1696965119651332000,3.96633203125,-0.11198262125253677,0.12995843589305878,0.12263495475053787
1696965119661346300,3.97634619140625,-0.11198262125253677,0.11930610239505768,0.13648298382759094
1696965119671360500,3.986360595703125,-0.11730878800153732,0.02023942768573761,0.14287437498569489
1696965119681374700,3.996374755859375,-0.13222205638885498,0.11397993564605713,0.1407439112663269
1696965119691389000,4.006388916015625,-0.12476541846990585,0.0852186381816864,0.10559122264385223
1696965119701403100,4.016403076171875,-0.13435252010822296,0.17895914614200592,0.10772168636322021
1696965119711417300,4.026417236328125,-0.1311568170785904,0.10013190656900406,0.08641702681779861
1696965119721431600,4.036431640625,-0.14607007801532745,0.1065233051776886,0.08535179495811462
1696965119731445800,4.04644580078125,-0.15352670848369598,0.1384802907705307,0.08535179495811462
1696965119741460000,4.0564599609375,-0.14926578104496002,0.09693620353937149,0.051264338195323944
1696965119751474200,4.06647412109375,-0.15991811454296112,0.14700216054916382,0.03954677656292915
1696965119761488400,4.07648828125,-0.16950520873069763,0.19706811010837555,0.013981183059513569
1696965119771502600,4.086502685546875,-0.172700896859169,0.21517707407474518,-0.005193010903894901
1696965119781516800,4.096516845703125,-0.172700896859169,0.16191542148590088,-0.006258244160562754
1696965119791531000,4.106531005859375,-0.18122276663780212,0.16404588520526886,-0.012649642303586006
1696965119801545200,4.116545166015625,-0.18548369407653809,0.1800243854522705,-0.035019535571336746
1696965119811559700,4.1265595703125,-0.18122276663780212,0.1821548491716385,-0.05632419511675835
1696965119821574000,4.136573974609375,-0.17802706360816956,0.17256775498390198,-0.06804175674915314
1696965119831588000,4.146588134765625,-0.17909230291843414,0.1715025156736374,-0.08721595257520676
1696965119841602300,4.156602294921875,-0.17802706360816956,0.15552401542663574,-0.0829550251364708
1696965119851616800,4.16661669921875,-0.1631138026714325,0.06284874677658081,-0.08934641629457474
1696965119861631000,4.176630859375,-0.1631138026714325,0.0958709716796875,-0.11065108329057693
1696965119871645200,4.186645263671875,-0.15885287523269653,0.09480573982000351,-0.14154283702373505
1696965119881659400,4.196659423828125,-0.1524614691734314,0.03728315606713295,-0.12023817747831345
1696965119891673900,4.206673828125,-0.13754820823669434,-0.02343512699007988,-0.14793424308300018
1696965119901688000,4.21668798828125,-0.1311568170785904,0.01704372838139534,-0.17030413448810577
1696965119911702300,4.226702392578125,-0.12796111404895782,0.01171756349503994,-0.17030413448810577
1696965119921716500,4.236716552734375,-0.11730878800153732,-0.06604444980621338,-0.1692388951778412
1696965119931730700,4.246730712890625,-0.1087869256734848,-0.03834838792681694,-0.19160878658294678
1696965119941745200,4.2567451171875,-0.11198262125253677,0.00852186419069767,-0.18521739542484283
1696965119951759400,4.26675927734375,-0.10133028775453568,-0.11078423261642456,-0.18415215611457825
1696965119961773600,4.276773681640625,-0.10559122264385223,-0.01384802907705307,-0.1990654170513153
1696965119971787800,4.286787841796875,-0.09067796170711517,-0.05752258375287056,-0.21397867798805237
1696965119981802200,4.29680224609375,-0.0981345921754837,-0.04154408723115921,-0.19693495333194733
1696965119991816400,4.30681640625,-0.09067796170711517,-0.0639139786362648,-0.2001306563615799
1696965120001830700,4.31683056640625,-0.08428656309843063,-0.09161003679037094,-0.19693495333194733
1696965120011844900,4.326844970703125,-0.08002562820911407,-0.11078423261642456,-0.1894783228635788
1696965120021859300,4.336859375,-0.08641702681779861,-0.0852186381816864,-0.18734785914421082
1696965120031873500,4.34687353515625,-0.08215609937906265,-0.08202294260263443,-0.19160878658294678
1696965120041887700,4.3568876953125,-0.07576470077037811,-0.19706811010837555,-0.16391272842884064
1696965120051902000,4.36690185546875,-0.08428656309843063,-0.15126308798789978,-0.1692388951778412
1696965120061916400,4.37691650390625,-0.09174319356679916,-0.08947957307100296,-0.18095645308494568
1696965120071930600,4.3869306640625,-0.08215609937906265,-0.18535055220127106,-0.1585865616798401
1696965120081944800,4.39694482421875,-0.0874822586774826,-0.23222079873085022,-0.13728190958499908
1696965120091959000,4.406958984375,-0.10133028775453568,-0.191741943359375,-0.14154283702373505
1696965120101973500,4.416973388671875,-0.1087869256734848,-0.14700216054916382,-0.14899946749210358
1696965120111987700,4.42698779296875,-0.10665645450353622,-0.25139498710632324,-0.13089050352573395
1696965120122002000,4.437001953125,-0.1205044835805893,-0.2332860380411148,-0.11917294561862946
1696965120132016000,4.44701611328125,-0.13435252010822296,-0.18322007358074188,-0.13089050352573395
1696965120142030600,4.457030517578125,-0.13435252010822296,-0.23648172616958618,-0.11065108329057693
1696965120152044800,4.467044921875,-0.13861344754695892,-0.2545906901359558,-0.1042596846818924
1696965120162059000,4.47705908203125,-0.1524614691734314,-0.2343512624502182,-0.1031944528222084
1696965120172073200,4.4870732421875,-0.1620485782623291,-0.19387240707874298,-0.09999874979257584
1696965120182087400,4.49708740234375,-0.15672241151332855,-0.2343512624502182,-0.09467258304357529
1696965120192101600,4.5071015625,-0.15778763592243195,-0.23009033501148224,-0.07762885838747025
1696965120202115800,4.51711572265625,-0.16417904198169708,-0.19493764638900757,-0.09786828607320786
1696965120212130000,4.527130126953125,-0.17483137547969818,-0.10971900075674057,-0.09467258304357529
1696965120222144300,4.537144287109375,-0.15565717220306396,-0.2141118347644806,-0.07656362652778625
1696965120232158500,4.547158447265625,-0.15565717220306396,-0.1608501821756363,-0.07017222791910172
1696965120242172700,4.557172607421875,-0.15459194779396057,-0.10758853703737259,-0.09147688746452332
1696965120252187100,4.567187255859375,-0.15352670848369598,-0.08734910935163498,-0.07762885838747025
1696965120262201300,4.577201416015625,-0.13435252010822296,-0.09906667470932007,-0.08508548885583878
1696965120272215600,4.587215576171875,-0.1300915777683258,-0.10119713842868805,-0.07336792349815369
1696965120282229800,4.597229736328125,-0.1205044835805893,-0.03941362351179123,-0.09147688746452332
1696965120292244000,4.607243896484375,-0.11837401986122131,-0.02450035884976387,-0.0936073511838913
1696965120302258200,4.617258056640625,-0.10026505589485168,-0.01491326279938221,-0.09786828607320786
1696965120312272400,4.6272724609375,-0.09067796170711517,-0.02663082629442215,-0.0925421193242073
1696965120322286600,4.63728662109375,-0.0874822586774826,-0.05219641700387001,-0.07975932210683823
1696965120332300800,4.64730078125,-0.0874822586774826,0.0213046595454216,-0.0936073511838913
1696965120342315000,4.65731494140625,-0.0778951644897461,0.0532616525888443,-0.0936073511838913
1696965120352329200,4.6673291015625,-0.067242830991745,0.0021304660476744175,-0.0925421193242073
1696965120362343400,4.677343505859375,-0.07896039634943008,0.03515268862247467,-0.05632419511675835
1696965120372357600,4.687357666015625,-0.07896039634943008,0.03834838792681694,-0.07017222791910172
1696965120382371800,4.697371826171875,-0.08002562820911407,0.12037133425474167,-0.057389430701732635
1696965120392386000,4.707385986328125,-0.07576470077037811,0.02769605815410614,-0.048867564648389816
1696965120402400300,4.717400146484375,-0.09706936031579971,0.11824086308479309,-0.022236740216612816
1696965120412414500,4.72741455078125,-0.10026505589485168,0.14167599380016327,-0.022236740216612816
1696965120422428700,4.7374287109375,-0.10239552706480026,0.15339355170726776,-0.005193010903894901
1696965120432443000,4.74744287109375,-0.11091738939285278,0.10439283400774002,0.027829213067889214
1696965120442457000,4.75745703125,-0.1290263533592224,0.13421936333179474,0.04913387447595596
1696965120452471300,4.76747119140625,-0.13541774451732635,0.19919857382774353,0.047003407031297684
1696965120462485500,4.777485595703125,-0.13754820823669434,0.18535055220127106,0.067242830991745
1696965120472499700,4.787499755859375,-0.14926578104496002,0.1715025156736374,0.09600412845611572
1696965120482514000,4.797513916015625,-0.15991811454296112,0.16298064589500427,0.1194392517209053
1696965120492528400,4.8075283203125,-0.16737474501132965,0.2439383566379547,0.12476541846990585
1696965120502542600,4.81754248046875,-0.16524426639080048,0.18961147964000702,0.14287437498569489
1696965120512556800,4.827556884765625,-0.17589659988880157,0.15658925473690033,0.1822880059480667
1696965120522571000,4.837571044921875,-0.1844184696674347,0.21624229848384857,0.17909230291843414
1696965120532585200,4.847585205078125,-0.1822880059480667,0.2119813710451126,0.1940055638551712
1696965120542599400,4.857599365234375,-0.1716356724500656,0.12037133425474167,0.22063638269901276
1696965120552613600,4.867613525390625,-0.1844184696674347,0.09906667470932007,0.25152814388275146
1696965120562627800,4.8776279296875,-0.1822880059480667,0.17682868242263794,0.21957115828990936
1696965120572642000,4.88764208984375,-0.17802706360816956,0.10119713842868805,0.26537618041038513
1696965120582656300,4.89765625,-0.16950520873069763,0.05539211630821228,0.25152814388275146
1696965120592670500,4.90767041015625,-0.1822880059480667,0.10865376889705658,0.2813546657562256
1696965120602684700,4.9176845703125,-0.16950520873069763,0.02982652559876442,0.2675066292285919
1696965120612699000,4.927698974609375,-0.1737661361694336,0.08095771074295044,0.29413747787475586
1696965120622713000,4.937713134765625,-0.16417904198169708,-0.05006595328450203,0.2888112962245941
1696965120632727300,4.947727294921875,-0.18015754222869873,0.06604444980621338,0.2983984053134918
1696965120642741500,4.957741455078125,-0.16737474501132965,-0.0010652330238372087,0.278158962726593
1696965120652755700,4.967755615234375,-0.172700896859169,0.04367455467581749,0.27602851390838623
1696965120662770000,4.97777001953125,-0.16843996942043304,-0.03089175745844841,0.2909417748451233
1696965120672784100,4.9877841796875,-0.17057043313980103,-0.05432688444852829,0.2770937383174896
1696965120682798300,4.99779833984375,-0.1716356724500656,0.01917419396340847,0.26111525297164917
1696965120692812500,5.0078125,-0.15778763592243195,-0.09906667470932007,0.24194104969501495
1696965120702826800,5.01782666015625,-0.16417904198169708,-0.04473978653550148,0.25898477435112
1696965120712841000,5.027841064453125,-0.15033100545406342,-0.13208889961242676,0.22170162200927734
1696965120722855200,5.037855224609375,-0.15352670848369598,-0.06284874677658081,0.22276686131954193
1696965120732869600,5.04786962890625,-0.14287437498569489,-0.19387240707874298,0.2163754552602768
1696965120742883800,5.0578837890625,-0.14607007801532745,-0.1065233051776886,0.18974463641643524
1696965120752898000,5.06789794921875,-0.14500483870506287,-0.10332760214805603,0.17057043313980103
1696965120762912300,5.077912353515625,-0.13328728079795837,-0.1501978635787964,0.14713531732559204
1696965120772926500,5.087926513671875,-0.13541774451732635,-0.14593692123889923,0.15033100545406342
1696965120782940700,5.097940673828125,-0.13328728079795837,-0.11397993564605713,0.11304785311222076
1696965120792955000,5.107954833984375,-0.1300915777683258,-0.11930610239505768,0.1087869256734848
1696965120802969000,5.117968994140625,-0.12263495475053787,-0.18961147964000702,0.08428656309843063
1696965120812983300,5.1279833984375,-0.1300915777683258,-0.14380645751953125,0.06830807030200958
1696965120822997500,5.13799755859375,-0.12583065032958984,-0.09480573982000351,0.036351077258586884
1696965120833011700,5.14801171875,-0.12263495475053787,-0.16404588520526886,0.027829213067889214
1696965120843026000,5.15802587890625,-0.12476541846990585,-0.14593692123889923,0.009720250964164734
1696965120853040000,5.1680400390625,-0.13222205638885498,-0.11611039936542511,-0.009453942999243736
1696965120863054300,5.178054443359375,-0.1300915777683258,-0.10865376889705658,-0.027562905102968216
1696965120873068500,5.188068603515625,-0.1300915777683258,-0.1384802907705307,-0.047802332788705826
1696965120883082800,5.198082763671875,-0.1407439112663269,-0.08095771074295044,-0.061650361865758896
1696965120893097000,5.208096923828125,-0.14393961429595947,-0.12037133425474167,-0.06271559745073318
1696965120903111200,5.218111083984375,-0.14500483870506287,-0.06497921794652939,-0.08615072071552277
1696965120913125400,5.22812548828125,-0.15033100545406342,-0.09693620353937149,-0.09467258304357529
1696965120923139800,5.238139892578125,-0.1620485782623291,-0.03834838792681694,-0.10212921351194382
1696965120933154000,5.248154052734375,-0.15991811454296112,-0.06178351491689682,-0.1042596846818924
1696965120943168300,5.258168212890625,-0.1620485782623291,-0.05432688444852829,-0.11704248189926147
1696965120953182500,5.268182373046875,-0.16843996942043304,-0.08415340632200241,-0.10958584398031235
1696965120963197000,5.278197021484375,-0.1737661361694336,-0.0319569893181324,-0.12343387305736542
1696965120973211100,5.288211181640625,-0.17057043313980103,-0.05219641700387001,-0.11704248189926147
1696965120983225300,5.298225341796875,-0.1716356724500656,-0.09161003679037094,-0.12023817747831345
1696965120993239600,5.308239501953125,-0.18015754222869873,-0.04687025398015976,-0.11704248189926147
1696965121003254000,5.31825390625,-0.17909230291843414,-0.04473978653550148,-0.12023817747831345
1696965121013268200,5.328268310546875,-0.17483137547969818,-0.10439283400774002,-0.1042596846818924
1696965121023282400,5.338282470703125,-0.1844184696674347,-0.05113118514418602,-0.11278154700994492
1696965121033296600,5.348296630859375,-0.18974463641643524,-0.02023942768573761,-0.10745538026094437
1696965121043311000,5.35831103515625,-0.1833532303571701,-0.05219641700387001,-0.09786828607320786
1696965121053325300,5.3683251953125,-0.19080986082553864,-0.04154408723115921,-0.08721595257520676
1696965121063339500,5.378339599609375,-0.19720126688480377,0.004260932095348835,-0.09467258304357529
1696965121073353700,5.388353759765625,-0.1940055638551712,-0.01491326279938221,-0.07762885838747025
1696965121083368200,5.3983681640625,-0.1940055638551712,-0.02556559257209301,-0.0712374597787857
1696965121093382400,5.40838232421875,-0.19933173060417175,-0.0010652330238372087,-0.06697652488946915
1696965121103396600,5.418396728515625,-0.20146219432353973,-0.0213046595454216,-0.052063263952732086
1696965121113410800,5.428410888671875,-0.19613602757453918,-0.02236989326775074,-0.05312849581241608
1696965121123425300,5.43842529296875,-0.20039696991443634,-0.0031956990715116262,-0.043541401624679565
1696965121133439500,5.448439453125,-0.20252743363380432,-0.0063913981430232525,-0.038215234875679016
1696965121143453700,5.45845361328125,-0.20146219432353973,-0.04580501839518547,-0.019041040912270546
1696965121153468000,5.468468017578125,-0.20039696991443634,-0.012782796286046505,-0.031823836266994476
1696965121163482400,5.478482421875,-0.20785360038280487,0.01171756349503994,-0.023301972076296806
1696965121173496600,5.48849658203125,-0.20252743363380432,-0.0319569893181324,-0.008388710208237171
1696965121183510800,5.4985107421875,-0.19826649129390717,-0.04687025398015976,-0.016910573467612267
1696965121193525000,5.50852490234375,-0.2046578973531723,0.02236989326775074,-0.014780107885599136
1696965121203539500,5.51853955078125,-0.20252743363380432,-0.08947957307100296,0.018242115154862404
1696965121213553700,5.5285537109375,-0.20146219432353973,-0.05858781561255455,0.00226362026296556
1696965121223568000,5.53856787109375,-0.20891882479190826,-0.0106523297727108,0.005459319334477186
1696965121233582000,5.54858203125,-0.20785360038280487,-0.0010652330238372087,-0.0009320789249613881
1696965121243596500,5.558596435546875,-0.20785360038280487,-0.06924014538526535,0.034220609813928604
1696965121253610800,5.56861083984375,-0.19933173060417175,-0.07350108027458191,0.017176883295178413
1696965121263625000,5.578625,-0.21317975223064423,0.007456631399691105,0.021437814459204674
1696965121273639200,5.58863916015625,-0.20039696991443634,-0.09054480493068695,0.033155377954244614
1696965121283653400,5.5986533203125,-0.2046578973531723,-0.05752258375287056,0.03848154470324516
1696965121293667600,5.60866748046875,-0.20678836107254028,-0.0532616525888443,0.031024912372231483
1696965121303681800,5.618681884765625,-0.2153102308511734,0.04687025398015976,0.025698747485876083
1696965121313696000,5.628696044921875,-0.19826649129390717,-0.10865376889705658,0.028894444927573204
1696965121323710200,5.638710205078125,-0.2142449915409088,0.02236989326775074,0.03209014609456062
1696965121333724400,5.648724365234375,-0.20785360038280487,-0.09267527610063553,0.037416309118270874
1696965121343738600,5.658738525390625,-0.21211452782154083,0.06924014538526535,0.015046416781842709
1696965121353752800,5.6687529296875,-0.19933173060417175,-0.12143656611442566,0.03528584539890289
1696965121363767000,5.67876708984375,-0.21104928851127625,0.0031956990715116262,0.020372580736875534
1696965121373781200,5.68878125,-0.20678836107254028,0.009587096981704235,0.012915950268507004
1696965121383795500,5.69879541015625,-0.19294032454490662,-0.06497921794652939,0.015046416781842709
1696965121393809700,5.7088095703125,-0.20252743363380432,-0.09267527610063553,0.03954677656292915
1696965121403823900,5.718823974609375,-0.20146219432353973,-0.03941362351179123,0.013981183059513569
1696965121413838300,5.72883837890625,-0.20146219432353973,0.02236989326775074,0.008655018173158169
1696965121423852500,5.7388525390625,-0.18867939710617065,-0.1267627328634262,0.017176883295178413
1696965121433866800,5.74886669921875,-0.20252743363380432,-0.02663082629442215,0.017176883295178413
1696965121443881000,5.758880859375,-0.19613602757453918,-0.04687025398015976,0.012915950268507004
1696965121453895200,5.768895263671875,-0.19613602757453918,-0.03089175745844841,0.011850717477500439
1696965121463909400,5.778909423828125,-0.19613602757453918,-0.10545806586742401,0.029959678649902344
1696965121473923600,5.788923583984375,-0.2046578973531723,-0.0106523297727108,0.006524552125483751
1696965121483937800,5.798937744140625,-0.20359265804290771,0.02876129187643528,-0.0009320789249613881
1696965121493952000,5.808951904296875,-0.1950708031654358,-0.06710968166589737,0.009720250964164734
1696965121503966200,5.81896630859375,-0.20039696991443634,-0.06497921794652939,0.023568280041217804
1696965121513980400,5.82898046875,-0.20891882479190826,0.02236989326775074,0.0011983871227130294
1696965121523994600,5.83899462890625,-0.19613602757453918,-0.04580501839518547,0.006524552125483751
1696965121534008800,5.8490087890625,-0.19933173060417175,-0.03621792420744896,0.013981183059513569
1696965121544023000,5.85902294921875,-0.20146219432353973,-0.05858781561255455,0.016111649572849274
1696965121554037200,5.869037353515625,-0.20678836107254028,0.02556559257209301,0.004394086077809334
1696965121564051500,5.879051513671875,-0.19933173060417175,-0.03408745676279068,0.015046416781842709
1696965121574065700,5.889065673828125,-0.19613602757453918,-0.06817491352558136,0.021437814459204674
1696965121584080000,5.899079833984375,-0.20678836107254028,-0.02876129187643528,0.018242115154862404
1696965121594094000,5.909093994140625,-0.2046578973531723,0.02982652559876442,0.0011983871227130294
1696965121604108300,5.9191083984375,-0.19826649129390717,-0.02769605815410614,0.025698747485876083
1696965121614122500,5.92912255859375,-0.1940055638551712,-0.13208889961242676,0.037416309118270874
1696965121624136700,5.93913671875,-0.20891882479190826,-0.0106523297727108,0.025698747485876083
1696965121634151000,5.94915087890625,-0.19933173060417175,0.02343512699007988,-0.0009320789249613881
1696965121644165000,5.9591650390625,-0.1940055638551712,-0.02343512699007988,0.010785484686493874
1696965121654179600,5.9691796875,-0.19933173060417175,-0.10865376889705658,0.03848154470324516
1696965121664193800,5.97919384765625,-0.2057231217622757,-0.03302222490310669,0.024633513763546944
1696965121674208000,5.9892080078125,-0.19933173060417175,0.0063913981430232525,0.0011983871227130294
1696965121684222200,5.99922216796875,-0.20252743363380432,0.03728315606713295,0.0001331541279796511
1696965121694236400,6.009236328125,-0.20252743363380432,-0.06284874677658081,0.024633513763546944
1696965121704250600,6.019250732421875,-0.20891882479190826,0.01171756349503994,0.009720250964164734
1696965121714264800,6.029264892578125,-0.2046578973531723,0.02343512699007988,0.0011983871227130294
1696965121724279000,6.039279052734375,-0.2057231217622757,0.02556559257209301,0.0011983871227130294
1696965121734293200,6.049293212890625,-0.20678836107254028,-0.06071828305721283,0.024633513763546944
1696965121744307500,6.059307373046875,-0.21317975223064423,0.05432688444852829,-0.0009320789249613881
1696965121754321700,6.06932177734375,-0.20252743363380432,0.0021304660476744175,0.0011983871227130294
1696965121764335900,6.0793359375,-0.20252743363380432,-0.04154408723115921,0.008655018173158169
1696965121774350000,6.08935009765625,-0.20998406410217285,-0.01384802907705307,0.012915950268507004
1696965121784364300,6.0993642578125,-0.20252743363380432,-0.01384802907705307,0.0001331541279796511
1696965121794378500,6.10937841796875,-0.20039696991443634,-0.02876129187643528,0.0033288532868027687
1696965121804392700,6.119392822265625,-0.2057231217622757,-0.04580501839518547,0.006524552125483751
1696965121814407000,6.129406982421875,-0.20146219432353973,-0.02876129187643528,0.007589785382151604
1696965121824421000,6.139421142578125,-0.20252743363380432,0,-0.0009320789249613881
1696965121834435300,6.149435302734375,-0.20359265804290771,-0.03834838792681694,0.010785484686493874
1696965121844449500,6.159449462890625,-0.20039696991443634,-0.04687025398015976,0.008655018173158169
1696965121854463700,6.169463623046875,-0.2046578973531723,0.03089175745844841,-0.009453942999243736
1696965121864478000,6.17947802734375,-0.20252743363380432,0,0.008655018173158169
1696965121874492200,6.1894921875,-0.1940055638551712,-0.06924014538526535,0.006524552125483751
1696965121884506400,6.19950634765625,-0.19826649129390717,0.0319569893181324,-0.006258244160562754
1696965121894520800,6.209520751953125,-0.1940055638551712,-0.02023942768573761,0.008655018173158169
1696965121904535000,6.21953515625,-0.18654893338680267,-0.03302222490310669,0.009720250964164734
1696965121914549200,6.22954931640625,-0.18548369407653809,-0.05965305119752884,0.015046416781842709
1696965121924563500,6.2395634765625,-0.1844184696674347,0.02450035884976387,0.0011983871227130294
1696965121934577700,6.24957763671875,-0.17909230291843414,-0.06071828305721283,0.019307348877191544
1696965121944592000,6.259591796875,-0.17483137547969818,-0.06071828305721283,0.016111649572849274
1696965121954606000,6.269606201171875,-0.17483137547969818,-0.0426093190908432,0.018242115154862404
1696965121964620300,6.279620361328125,-0.172700896859169,-0.01917419396340847,0.005459319334477186
1696965121974634500,6.289634521484375,-0.17057043313980103,-0.02343512699007988,0.023568280041217804
1696965121984648700,6.299648681640625,-0.1620485782623291,-0.10332760214805603,0.023568280041217804
1696965121994663000,6.309662841796875,-0.1716356724500656,0.03089175745844841,0.004394086077809334
1696965122004677000,6.319677001953125,-0.16950520873069763,0,0.012915950268507004
1696965122014691300,6.32969140625,-0.16417904198169708,-0.0053261648863554,0.012915950268507004
1696965122024705500,6.33970556640625,-0.1620485782623291,-0.02556559257209301,0.013981183059513569
1696965122034719700,6.3497197265625,-0.16950520873069763,0.04793548583984375,0.013981183059513569
1696965122044734000,6.35973388671875,-0.15778763592243195,0.012782796286046505,0.005459319334477186
1696965122054748200,6.369748046875,-0.15352670848369598,-0.01491326279938221,0.010785484686493874
1696965122064762400,6.379762451171875,-0.15565717220306396,-0.04793548583984375,0.021437814459204674
1696965122074776800,6.38977685546875,-0.15778763592243195,0.07350108027458191,0.0001331541279796511
1696965122084791000,6.399791015625,-0.1396786868572235,-0.0745663121342659,0.021437814459204674
1696965122094805200,6.40980517578125,-0.14607007801532745,-0.07243584841489792,0.020372580736875534
1696965122104819500,6.4198193359375,-0.14713531732559204,-0.02023942768573761,0.009720250964164734
1696965122114834000,6.429833984375,-0.1396786868572235,0.0053261648863554,0.00226362026296556
1696965122124848000,6.43984814453125,-0.1396786868572235,-0.0745663121342659,0.013981183059513569
1696965122134862300,6.4498623046875,-0.1407439112663269,-0.08202294260263443,0.024633513763546944
1696965122144876500,6.45987646484375,-0.14393961429595947,-0.01810896210372448,0.0011983871227130294
1696965122154891000,6.46989111328125,-0.13861344754695892,-0.0010652330238372087,-0.0009320789249613881
1696965122164905200,6.4799052734375,-0.13435252010822296,-0.05965305119752884,0.00226362026296556
1696965122174919400,6.48991943359375,-0.1418091505765915,-0.01917419396340847,0.008655018173158169
1696965122184933600,6.49993359375,-0.1407439112663269,-0.01491326279938221,0.0011983871227130294
1696965122194948000,6.509947998046875,-0.13222205638885498,-0.0053261648863554,-0.007323476951569319
1696965122204962300,6.51996240234375,-0.13328728079795837,-0.0213046595454216,-0.0009320789249613881
1696965122214976500,6.5299765625,-0.13754820823669434,0.02663082629442215,-0.007323476951569319
1696965122224990700,6.53999072265625,-0.12796111404895782,0.0021304660476744175,-0.006258244160562754
1696965122235005200,6.550005126953125,-0.12583065032958984,-0.012782796286046505,-0.001997311832383275
1696965122245019400,6.560019287109375,-0.1290263533592224,-0.00852186419069767,0.0001331541279796511
1696965122255033600,6.57003369140625,-0.12476541846990585,0.02023942768573761,-0.012649642303586006
1696965122265047800,6.5800478515625,-0.11730878800153732,-0.007456631399691105,-0.006258244160562754
1696965122275062300,6.590062255859375,-0.11091738939285278,-0.07882724702358246,0.0011983871227130294
1696965122285076500,6.600076416015625,-0.11837401986122131,0.03089175745844841,-0.013714875094592571
1696965122295090700,6.610090576171875,-0.10772168636322021,-0.02023942768573761,-0.004127778112888336
1696965122305105000,6.62010498046875,-0.0981345921754837,-0.0745663121342659,-0.004127778112888336
1696965122315119400,6.630119384765625,-0.10665645450353622,-0.02343512699007988,-0.008388710208237171
1696965122325133600,6.640133544921875,-0.10452599078416824,0.0063913981430232525,-0.012649642303586006
1696965122335147800,6.650147705078125,-0.09493889659643173,-0.02450035884976387,-0.011584409512579441
1696965122345162000,6.660161865234375,-0.09706936031579971,-0.06710968166589737,0.005459319334477186
1696965122355176400,6.670176513671875,-0.10452599078416824,-0.01704372838139534,0.0011983871227130294
1696965122365190700,6.680190673828125,-0.09706936031579971,0.0319569893181324,-0.016910573467612267
1696965122375204900,6.690204833984375,-0.0874822586774826,-0.06497921794652939,0.00226362026296556
1696965122385219000,6.700218994140625,-0.09706936031579971,-0.03089175745844841,0.008655018173158169
1696965122395233500,6.710233642578125,-0.09493889659643173,0.01491326279938221,-0.008388710208237171
1696965122405247700,6.720247802734375,-0.0874822586774826,-0.0159784946590662,0.009720250964164734
1696965122415262000,6.730261962890625,-0.08428656309843063,-0.09374050796031952,0.008655018173158169
1696965122425276200,6.740276123046875,-0.09387365728616714,0.01171756349503994,0.007589785382151604
1696965122435290400,6.750290283203125,-0.08109086751937866,-0.05219641700387001,-0.006258244160562754
1696965122445304600,6.7603046875,-0.08215609937906265,0.0063913981430232525,-0.0030625448562204838
1696965122455318800,6.77031884765625,-0.07576470077037811,-0.09161003679037094,0.011850717477500439
1696965122465333000,6.7803330078125,-0.08641702681779861,-0.0031956990715116262,0.012915950268507004
1696965122475347200,6.79034716796875,-0.07256899774074554,-0.02450035884976387,-0.005193010903894901
1696965122485361700,6.800361572265625,-0.07363422960042953,-0.03728315606713295,0.018242115154862404
1696965122495376000,6.8103759765625,-0.07469946891069412,-0.06497921794652939,0.010785484686493874
1696965122505390000,6.82039013671875,-0.08109086751937866,0.0213046595454216,0.016111649572849274
1696965122515404300,6.830404296875,-0.06404713541269302,-0.03302222490310669,0.00226362026296556
1696965122525418500,6.84041845703125,-0.07469946891069412,-0.08415340632200241,0.040612008422613144
1696965122535432700,6.8504326171875,-0.07363422960042953,-0.02023942768573761,0.007589785382151604
1696965122545447000,6.860447021484375,-0.07469946891069412,0.00852186419069767,0.023568280041217804
1696965122555461000,6.870461181640625,-0.058720968663692474,-0.09906667470932007,0.018242115154862404
1696965122565475300,6.880475341796875,-0.07363422960042953,-0.02982652559876442,0.024633513763546944
1696965122575489500,6.890489501953125,-0.067242830991745,-0.0053261648863554,0.013981183059513569
1696965122585503700,6.900503662109375,-0.05978620424866676,-0.02876129187643528,0.020372580736875534
1696965122595518000,6.91051806640625,-0.058720968663692474,-0.05113118514418602,0.023568280041217804
1696965122605532200,6.9205322265625,-0.06298190355300903,-0.0159784946590662,0.023568280041217804
1696965122615546400,6.93054638671875,-0.05978620424866676,0.02343512699007988,0.012915950268507004
1696965122625560600,6.940560546875,-0.057655736804008484,-0.02450035884976387,0.04274247586727142
1696965122635574800,6.95057470703125,-0.0555252730846405,-0.0031956990715116262,0.021437814459204674
1696965122645589000,6.960589111328125,-0.060851436108350754,0.06178351491689682,0.025698747485876083
1696965122655603200,6.970603271484375,-0.053394805639982224,0.009587096981704235,0.03954677656292915
1696965122665617400,6.980617431640625,-0.048068638890981674,-0.05432688444852829,0.050199106335639954
1696965122675631600,6.990631591796875,-0.057655736804008484,0.05006595328450203,0.028894444927573204
1696965122685645800,7.000645751953125,-0.04913387447595596,0.01917419396340847,0.029959678649902344
1696965122695660000,7.010659912109375,-0.044872939586639404,-0.01704372838139534,0.041677240282297134
1696965122705674200,7.02067431640625,-0.047003407031297684,-0.0745663121342659,0.053394805639982224
1696965122715688400,7.0306884765625,-0.05232957378029823,0.0106523297727108,0.028894444927573204
1696965122725703000,7.040702880859375,-0.04593817517161369,0.0319569893181324,0.024633513763546944
1696965122735717000,7.050717041015625,-0.03528584539890289,-0.05752258375287056,0.029959678649902344
1696965122745731300,7.0607314453125,-0.04913387447595596,0.004260932095348835,0.034220609813928604
1696965122755745500,7.07074560546875,-0.048068638890981674,0.03834838792681694,0.026763979345560074
1696965122765759700,7.080759765625,-0.04274247586727142,0.04154408723115921,0.017176883295178413
1696965122775774000,7.09077392578125,-0.04274247586727142,0.01704372838139534,0.028894444927573204
1696965122785788200,7.1007880859375,-0.041677240282297134,0.02450035884976387,0.024633513763546944
1696965122795802400,7.11080224609375,-0.04274247586727142,0.06497921794652939,0.021437814459204674
1696965122805816600,7.120816650390625,-0.033155377954244614,-0.03834838792681694,0.026763979345560074
1696965122815830800,7.130830810546875,-0.033155377954244614,0.009587096981704235,0.019307348877191544
1696965122825845000,7.140844970703125,-0.034220609813928604,0.01171756349503994,0.004394086077809334
1696965122835859200,7.150859130859375,-0.026763979345560074,0.012782796286046505,0.007589785382151604
1696965122845873400,7.160873291015625,-0.019307348877191544,-0.08841434121131897,0.023568280041217804
1696965122855887600,7.1708876953125,-0.025698747485876083,-0.02023942768573761,0.020372580736875534
1696965122865901800,7.18090185546875,-0.021437814459204674,-0.04047885537147522,0.013981183059513569
