time,seconds_elapsed,z,y,x
1696965898253235500,0.1462353515625,-0.11837401986122131,0,0.022503048181533813
1696965898263245000,0.1562451171875,-0.1194392517209053,0.00852186419069767,0.005459319334477186
1696965898273257000,0.166257080078125,-0.1205044835805893,0.004260932095348835,0.012915950268507004
1696965898283270000,0.176269775390625,-0.11517832428216934,-0.0159784946590662,0.03209014609456062
1696965898293284900,0.186284912109375,-0.12476541846990585,0.004260932095348835,-0.020106272771954536
1696965898303302400,0.196302490234375,-0.12583065032958984,0.02876129187643528,0.015046416781842709
1696965898313322000,0.206322021484375,-0.11837401986122131,-0.05752258375287056,0.031024912372231483
1696965898323343400,0.21634326171875,-0.12476541846990585,0.03834838792681694,-0.030758604407310486
1696965898333366300,0.2263662109375,-0.12156971544027328,-0.07669677585363388,0.048068638890981674
1696965898343390000,0.236389892578125,-0.1300915777683258,0.0426093190908432,-0.054193731397390366
1696965898353414400,0.246414306640625,-0.12156971544027328,-0.06178351491689682,0.044872939586639404
1696965898363439000,0.256439208984375,-0.12156971544027328,-0.03515268862247467,0.00226362026296556
1696965898373457400,0.26645751953125,-0.1290263533592224,-0.0053261648863554,-0.023301972076296806
1696965898383471600,0.2764716796875,-0.12583065032958984,-0.04687025398015976,0.051264338195323944
1696965898393485600,0.286485595703125,-0.12796111404895782,-0.01810896210372448,-0.047802332788705826
1696965898403499800,0.296499755859375,-0.12796111404895782,-0.02343512699007988,0.027829213067889214
1696965898413513700,0.306513671875,-0.1311568170785904,-0.04687025398015976,0.0033288532868027687
1696965898423528000,0.31652783203125,-0.13435252010822296,0.04367455467581749,-0.030758604407310486
1696965898433542000,0.3265419921875,-0.12583065032958984,-0.09267527610063553,0.060851436108350754
1696965898443555800,0.336555908203125,-0.13541774451732635,0.04154408723115921,-0.06378082931041718
1696965898453570000,0.346570068359375,-0.13328728079795837,-0.04793548583984375,0.04913387447595596
1696965898463584000,0.356583984375,-0.13541774451732635,0,-0.037150003015995026
1696965898473598200,0.36659814453125,-0.1300915777683258,-0.02450035884976387,0.027829213067889214
1696965898483612200,0.376612060546875,-0.13435252010822296,-0.02343512699007988,-0.007323476951569319
1696965898493626400,0.38662646484375,-0.1396786868572235,0.012782796286046505,-0.022236740216612816
1696965898503640300,0.396640380859375,-0.1311568170785904,-0.04900071769952774,0.041677240282297134
1696965898513654300,0.406654296875,-0.13328728079795837,-0.0031956990715116262,-0.010519175790250301
1696965898523668500,0.41666845703125,-0.13861344754695892,-0.03408745676279068,0.004394086077809334
1696965898533682400,0.426682373046875,-0.1396786868572235,0.02023942768573761,-0.006258244160562754
1696965898543696600,0.436696533203125,-0.1300915777683258,-0.07243584841489792,0.047003407031297684
1696965898553710600,0.446710693359375,-0.13861344754695892,0.01917419396340847,-0.025432437658309937
1696965898563724800,0.456724853515625,-0.1407439112663269,-0.02236989326775074,0.025698747485876083
1696965898573738800,0.46673876953125,-0.13648298382759094,-0.01491326279938221,0.020372580736875534
1696965898583752700,0.476752685546875,-0.13648298382759094,-0.009587096981704235,0.007589785382151604
1696965898593767000,0.486766845703125,-0.1407439112663269,-0.0106523297727108,0.012915950268507004
1696965898603780900,0.49678076171875,-0.1407439112663269,0.0010652330238372087,0.0001331541279796511
1696965898613795000,0.506795166015625,-0.1396786868572235,0,0.019307348877191544
1696965898623809000,0.51680908203125,-0.13754820823669434,-0.02556559257209301,0.008655018173158169
1696965898633823200,0.5268232421875,-0.14500483870506287,0.03728315606713295,-0.026497671380639076
1696965898643837200,0.536837158203125,-0.13861344754695892,-0.02982652559876442,0.029959678649902344
1696965898653851100,0.54685107421875,-0.13861344754695892,0.00852186419069767,-0.010519175790250301
1696965898663865300,0.556865234375,-0.14287437498569489,0.01171756349503994,-0.019041040912270546
1696965898673879300,0.56687939453125,-0.1418091505765915,-0.02023942768573761,0.018242115154862404
1696965898683893500,0.5768935546875,-0.1407439112663269,0.0319569893181324,-0.028628136962652206
1696965898693907500,0.586907470703125,-0.13861344754695892,-0.02769605815410614,0.017176883295178413
1696965898703921700,0.596921630859375,-0.14393961429595947,0.03621792420744896,-0.025432437658309937
1696965898713935600,0.606935546875,-0.14287437498569489,0.0106523297727108,-0.004127778112888336
1696965898723949600,0.616949462890625,-0.1396786868572235,-0.0159784946590662,0.03209014609456062
1696965898733963800,0.6269638671875,-0.14287437498569489,0.0426093190908432,-0.027562905102968216
1696965898743977700,0.636977783203125,-0.14607007801532745,0.00852186419069767,0.004394086077809334
1696965898753992000,0.646991943359375,-0.13861344754695892,0.004260932095348835,0.040612008422613144
1696965898764006000,0.657005859375,-0.13861344754695892,-0.0010652330238372087,-0.024367205798625946
1696965898774020000,0.66702001953125,-0.14607007801532745,0.012782796286046505,0.0033288532868027687
1696965898784034000,0.677033935546875,-0.1418091505765915,0.01704372838139534,0.015046416781842709
1696965898794048000,0.687048095703125,-0.13861344754695892,-0.04367455467581749,0.010785484686493874
1696965898804062200,0.697062255859375,-0.1407439112663269,0.02236989326775074,-0.001997311832383275
1696965898814076200,0.707076171875,-0.14500483870506287,-0.02343512699007988,-0.005193010903894901
1696965898824090400,0.71709033203125,-0.14287437498569489,0.0159784946590662,0.0001331541279796511
1696965898834104300,0.727104248046875,-0.1407439112663269,-0.02876129187643528,0.020372580736875534
1696965898844118500,0.737118408203125,-0.14393961429595947,0.01384802907705307,-0.026497671380639076
1696965898854132500,0.747132568359375,-0.14713531732559204,-0.0063913981430232525,0.004394086077809334
1696965898864146400,0.757146484375,-0.14393961429595947,0.01384802907705307,0.004394086077809334
1696965898874160600,0.76716064453125,-0.1407439112663269,-0.0319569893181324,0.007589785382151604
1696965898884174600,0.777174560546875,-0.15033100545406342,0.04047885537147522,-0.050998032093048096
1696965898894188800,0.787188720703125,-0.14287437498569489,-0.02876129187643528,0.04593817517161369
1696965898904202800,0.79720263671875,-0.14287437498569489,0.01384802907705307,-0.038215234875679016
1696965898914217000,0.807217041015625,-0.14393961429595947,-0.03408745676279068,0.018242115154862404
1696965898924231000,0.81723095703125,-0.14820054173469543,0.0319569893181324,-0.029693370684981346
1696965898934245000,0.8272451171875,-0.1407439112663269,-0.03941362351179123,0.024633513763546944
1696965898944259000,0.837259033203125,-0.13861344754695892,-0.02023942768573761,-0.007323476951569319
1696965898954273000,0.84727294921875,-0.14820054173469543,0.0106523297727108,-0.030758604407310486
1696965898964287200,0.857287353515625,-0.1418091505765915,-0.0426093190908432,0.03209014609456062
1696965898974301200,0.86730126953125,-0.14287437498569489,0.0031956990715116262,-0.024367205798625946
1696965898984315400,0.8773154296875,-0.14393961429595947,-0.02343512699007988,0.0033288532868027687
1696965898994329300,0.887329345703125,-0.14500483870506287,-0.0010652330238372087,0.0001331541279796511
1696965899004343600,0.897343505859375,-0.14393961429595947,-0.012782796286046505,-0.006258244160562754
1696965899014357500,0.907357421875,-0.1407439112663269,-0.0159784946590662,0.011850717477500439
1696965899024371500,0.917371337890625,-0.14607007801532745,0.0021304660476744175,-0.019041040912270546
1696965899034385700,0.9273857421875,-0.14713531732559204,-0.01491326279938221,0.005459319334477186
1696965899044399600,0.937399658203125,-0.1396786868572235,-0.01810896210372448,0.015046416781842709
1696965899054413800,0.947413818359375,-0.14287437498569489,-0.01171756349503994,-0.013714875094592571
1696965899064427800,0.957427734375,-0.14607007801532745,-0.0063913981430232525,-0.0030625448562204838
1696965899074442000,0.96744189453125,-0.1418091505765915,-0.007456631399691105,0.009720250964164734
1696965899084456000,0.9774560546875,-0.13648298382759094,-0.0319569893181324,-0.001997311832383275
1696965899094470000,0.987469970703125,-0.14393961429595947,0.0063913981430232525,-0.008388710208237171
1696965899104484000,0.997484130859375,-0.1396786868572235,-0.03834838792681694,0.015046416781842709
1696965899114498000,1.007498046875,-0.1407439112663269,0.0063913981430232525,-0.023301972076296806
1696965899124512300,1.01751220703125,-0.13754820823669434,-0.0426093190908432,0.020372580736875534
1696965899134526200,1.027526123046875,-0.1407439112663269,-0.01384802907705307,-0.017975807189941406
1696965899144540400,1.03754052734375,-0.1418091505765915,0.0021304660476744175,-0.015845341607928276
1696965899154554400,1.047554443359375,-0.13648298382759094,-0.04793548583984375,0.036351077258586884
1696965899164568300,1.057568359375,-0.13861344754695892,-0.0010652330238372087,-0.040345702320337296
1696965899174582500,1.06758251953125,-0.14500483870506287,-0.0053261648863554,0.0033288532868027687
1696965899184596500,1.077596435546875,-0.13861344754695892,-0.02236989326775074,0.021437814459204674
1696965899194610700,1.087610595703125,-0.1396786868572235,0.0010652330238372087,-0.035019535571336746
1696965899204624600,1.097624755859375,-0.14287437498569489,0.0010652330238372087,0.018242115154862404
1696965899214638800,1.107638916015625,-0.14393961429595947,0.004260932095348835,-0.015845341607928276
1696965899224653000,1.117653076171875,-0.13754820823669434,0.00852186419069767,0.004394086077809334
1696965899234667000,1.1276669921875,-0.1407439112663269,-0.012782796286046505,0.004394086077809334
1696965899244681200,1.13768115234375,-0.14500483870506287,0.03834838792681694,-0.022236740216612816
1696965899254695400,1.1476953125,-0.1418091505765915,0.0021304660476744175,0.016111649572849274
1696965899264709400,1.15770947265625,-0.13861344754695892,0.0031956990715116262,-0.001997311832383275
1696965899274723600,1.1677236328125,-0.1396786868572235,0.0021304660476744175,-0.005193010903894901
1696965899284737500,1.177737548828125,-0.1418091505765915,0.02450035884976387,-0.012649642303586006
1696965899294751700,1.187751708984375,-0.1396786868572235,-0.01704372838139534,0.009720250964164734
1696965899304766000,1.197765869140625,-0.13754820823669434,0.01171756349503994,-0.005193010903894901
1696965899314780000,1.20777978515625,-0.13861344754695892,-0.03621792420744896,0.015046416781842709
1696965899324794000,1.217794189453125,-0.14607007801532745,0.04367455467581749,-0.047802332788705826
1696965899334808300,1.227808349609375,-0.13541774451732635,-0.05432688444852829,0.051264338195323944
1696965899344822300,1.237822265625,-0.13861344754695892,0.01491326279938221,-0.027562905102968216
1696965899354836500,1.24783642578125,-0.1396786868572235,-0.04047885537147522,0.005459319334477186
1696965899364850700,1.2578505859375,-0.14607007801532745,0.0426093190908432,-0.027562905102968216
1696965899374864600,1.26786474609375,-0.13648298382759094,-0.05858781561255455,0.034220609813928604
1696965899384878800,1.27787890625,-0.1407439112663269,0.01491326279938221,-0.020106272771954536
1696965899394892800,1.287892822265625,-0.14393961429595947,-0.01491326279938221,-0.005193010903894901
1696965899404907000,1.297906982421875,-0.14287437498569489,0.02556559257209301,0.0001331541279796511
1696965899414921200,1.307921142578125,-0.1396786868572235,-0.02450035884976387,0.006524552125483751
1696965899424935200,1.31793505859375,-0.1407439112663269,0.01171756349503994,-0.016910573467612267
1696965899434949400,1.327949462890625,-0.14500483870506287,0.01704372838139534,-0.0009320789249613881
1696965899444963600,1.337963623046875,-0.1418091505765915,-0.009587096981704235,0.007589785382151604
1696965899454977500,1.3479775390625,-0.13861344754695892,0.0063913981430232525,-0.007323476951569319
1696965899464991700,1.35799169921875,-0.13754820823669434,-0.02450035884976387,0.011850717477500439
1696965899475006000,1.368005859375,-0.1418091505765915,0.02343512699007988,-0.020106272771954536
1696965899485020000,1.37802001953125,-0.13754820823669434,-0.04900071769952774,0.023568280041217804
1696965899495034000,1.3880341796875,-0.13541774451732635,-0.009587096981704235,0.0001331541279796511
1696965899505048000,1.398048095703125,-0.13754820823669434,-0.0319569893181324,-0.009453942999243736
1696965899515062300,1.408062255859375,-0.1396786868572235,-0.012782796286046505,-0.001997311832383275
1696965899525076500,1.418076416015625,-0.13541774451732635,-0.03728315606713295,0.022503048181533813
1696965899535090400,1.42809033203125,-0.13861344754695892,-0.0159784946590662,-0.009453942999243736
1696965899545104600,1.438104736328125,-0.1407439112663269,-0.0106523297727108,-0.0009320789249613881
1696965899555118800,1.448118896484375,-0.1418091505765915,-0.01384802907705307,0.015046416781842709
1696965899565132800,1.4581328125,-0.1396786868572235,-0.0031956990715116262,-0.010519175790250301
1696965899575147000,1.46814697265625,-0.13861344754695892,-0.02450035884976387,0.020372580736875534
1696965899585161200,1.4781611328125,-0.14287437498569489,0.009587096981704235,-0.022236740216612816
1696965899595175200,1.488175048828125,-0.14287437498569489,-0.00852186419069767,0.0033288532868027687
1696965899605189400,1.498189453125,-0.13754820823669434,-0.012782796286046505,0.007589785382151604
1696965899615203300,1.508203369140625,-0.1396786868572235,-0.0031956990715116262,-0.020106272771954536
1696965899625217500,1.518217529296875,-0.14287437498569489,-0.00852186419069767,-0.008388710208237171
1696965899635231700,1.528231689453125,-0.1407439112663269,-0.0021304660476744175,-0.008388710208237171
1696965899645245700,1.53824560546875,-0.13648298382759094,-0.02023942768573761,-0.001997311832383275
1696965899655260000,1.548260009765625,-0.13861344754695892,-0.012782796286046505,-0.020106272771954536
1696965899665274000,1.558274169921875,-0.14287437498569489,0.012782796286046505,-0.03608476743102074
1696965899675288000,1.5682880859375,-0.13328728079795837,-0.02769605815410614,0.022503048181533813
1696965899685302300,1.57830224609375,-0.13648298382759094,-0.02236989326775074,-0.033954303711652756
1696965899695316200,1.588316162109375,-0.13861344754695892,0.00852186419069767,-0.015845341607928276
1696965899705330400,1.598330322265625,-0.13754820823669434,-0.02769605815410614,0.0033288532868027687
1696965899715344600,1.6083447265625,-0.13541774451732635,0.0010652330238372087,-0.037150003015995026
1696965899725358600,1.618358642578125,-0.13328728079795837,-0.03834838792681694,0.021437814459204674
1696965899735372800,1.628372802734375,-0.1396786868572235,0.02343512699007988,-0.041410934180021286
1696965899745387000,1.638386962890625,-0.13648298382759094,-0.03834838792681694,0.016111649572849274
1696965899755401000,1.64840087890625,-0.13328728079795837,0.01171756349503994,-0.011584409512579441
1696965899765415200,1.658415283203125,-0.13435252010822296,-0.02982652559876442,0.012915950268507004
1696965899775429400,1.668429443359375,-0.1396786868572235,0.012782796286046505,-0.024367205798625946
1696965899785443300,1.678443359375,-0.13648298382759094,-0.0031956990715116262,0.025698747485876083
1696965899795457500,1.68845751953125,-0.13222205638885498,-0.02769605815410614,0.019307348877191544
1696965899805471500,1.698471435546875,-0.13754820823669434,0.01384802907705307,-0.014780107885599136
1696965899815485700,1.708485595703125,-0.1396786868572235,-0.01171756349503994,0.022503048181533813
1696965899825500000,1.7185,-0.13222205638885498,-0.012782796286046505,0.022503048181533813
1696965899835513900,1.728513916015625,-0.13328728079795837,-0.0106523297727108,0.013981183059513569
1696965899845528000,1.738528076171875,-0.13754820823669434,-0.01491326279938221,0.028894444927573204
1696965899855542300,1.748542236328125,-0.13861344754695892,-0.0010652330238372087,0.012915950268507004
1696965899865556200,1.75855615234375,-0.13541774451732635,-0.01384802907705307,0.027829213067889214
1696965899875570400,1.7685703125,-0.13222205638885498,-0.03408745676279068,0.034220609813928604
1696965899885584600,1.778584716796875,-0.1418091505765915,0.02343512699007988,-0.015845341607928276
1696965899895598600,1.7885986328125,-0.13648298382759094,-0.03515268862247467,0.05232957378029823
1696965899905612800,1.79861279296875,-0.13541774451732635,0.01171756349503994,-0.0009320789249613881
1696965899915626800,1.808626708984375,-0.13648298382759094,-0.02769605815410614,0.017176883295178413
1696965899925641000,1.818640869140625,-0.1418091505765915,0.012782796286046505,-0.006258244160562754
1696965899935655200,1.8286552734375,-0.13754820823669434,-0.01171756349503994,0.023568280041217804
1696965899945669000,1.838669189453125,-0.13648298382759094,-0.02023942768573761,-0.005193010903894901
1696965899955683300,1.848683349609375,-0.1396786868572235,0.0159784946590662,-0.016910573467612267
1696965899965697500,1.858697509765625,-0.13861344754695892,-0.03408745676279068,0.012915950268507004
1696965899975711500,1.86871142578125,-0.13648298382759094,0.00852186419069767,-0.027562905102968216
1696965899985725700,1.8787255859375,-0.13435252010822296,-0.04367455467581749,0.026763979345560074
1696965899995740000,1.888739990234375,-0.13861344754695892,0.0053261648863554,-0.030758604407310486
1696965900005753900,1.89875390625,-0.13648298382759094,-0.02556559257209301,-0.005193010903894901
1696965900015768000,1.90876806640625,-0.1300915777683258,-0.04154408723115921,0.024633513763546944
1696965900025782000,1.918781982421875,-0.13541774451732635,-0.009587096981704235,-0.029693370684981346
1696965900035796200,1.928796142578125,-0.13754820823669434,-0.02450035884976387,0.006524552125483751
1696965900045810400,1.938810546875,-0.13222205638885498,-0.01384802907705307,0.007589785382151604
1696965900055824400,1.948824462890625,-0.1311568170785904,-0.0426093190908432,0.013981183059513569
1696965900065838600,1.958838623046875,-0.13328728079795837,0.004260932095348835,-0.014780107885599136
1696965900075852800,1.968852783203125,-0.13648298382759094,-0.02876129187643528,0.011850717477500439
1696965900085866800,1.97886669921875,-0.1311568170785904,-0.007456631399691105,0.013981183059513569
1696965900095881000,1.988880859375,-0.1311568170785904,-0.03089175745844841,0.005459319334477186
1696965900105895200,1.998895263671875,-0.13435252010822296,-0.0063913981430232525,0.005459319334477186
1696965900115909000,2.0089091796875,-0.13541774451732635,-0.0053261648863554,0.006524552125483751
1696965900125923300,2.01892333984375,-0.12796111404895782,-0.0532616525888443,0.03209014609456062
1696965900135937300,2.028937255859375,-0.1300915777683258,-0.009587096981704235,-0.013714875094592571
1696965900145951500,2.038951416015625,-0.13541774451732635,-0.02450035884976387,0.013981183059513569
1696965900155965700,2.048965576171875,-0.13222205638885498,-0.0213046595454216,0.016111649572849274
1696965900165979600,2.058979736328125,-0.12796111404895782,-0.02556559257209301,0.0033288532868027687
1696965900175993900,2.068993896484375,-0.13541774451732635,-0.02556559257209301,0.006524552125483751
1696965900186008000,2.079008056640625,-0.13435252010822296,0.0021304660476744175,-0.0009320789249613881
1696965900196022000,2.08902197265625,-0.13328728079795837,-0.03728315606713295,0.008655018173158169
1696965900206036200,2.0990361328125,-0.13222205638885498,0.0021304660476744175,-0.0030625448562204838
1696965900216050400,2.109050537109375,-0.13435252010822296,-0.02769605815410614,0.0001331541279796511
1696965900226064400,2.119064453125,-0.13648298382759094,0.0053261648863554,-0.016910573467612267
1696965900236078600,2.12907861328125,-0.1311568170785904,-0.03302222490310669,0.023568280041217804
1696965900246092500,2.139092529296875,-0.13328728079795837,-0.01704372838139534,-0.023301972076296806
1696965900256106800,2.149106689453125,-0.13648298382759094,0.004260932095348835,-0.008388710208237171
1696965900266121000,2.159120849609375,-0.13435252010822296,-0.02769605815410614,-0.001997311832383275
1696965900276135000,2.169135009765625,-0.1300915777683258,-0.007456631399691105,-0.0009320789249613881
1696965900286149000,2.179149169921875,-0.13328728079795837,-0.01384802907705307,-0.012649642303586006
1696965900296163300,2.189163330078125,-0.13541774451732635,-0.0063913981430232525,-0.005193010903894901
1696965900306177300,2.19917724609375,-0.1290263533592224,-0.02023942768573761,0.012915950268507004
1696965900316191500,2.20919140625,-0.13222205638885498,-0.0053261648863554,-0.016910573467612267
1696965900326205700,2.219205810546875,-0.13328728079795837,-0.0159784946590662,0.015046416781842709
1696965900336219600,2.2292197265625,-0.13754820823669434,0.01704372838139534,-0.031823836266994476
1696965900346233900,2.23923388671875,-0.1300915777683258,-0.02982652559876442,0.04593817517161369
1696965900356247800,2.249247802734375,-0.13222205638885498,-0.0159784946590662,-0.016910573467612267
1696965900366262000,2.259261962890625,-0.13754820823669434,0.02450035884976387,-0.008388710208237171
1696965900376276200,2.269276123046875,-0.13222205638885498,-0.03408745676279068,0.044872939586639404
1696965900386290200,2.279290283203125,-0.1311568170785904,-0.0021304660476744175,-0.015845341607928276
1696965900396304400,2.289304443359375,-0.13222205638885498,-0.012782796286046505,0.025698747485876083
1696965900406318600,2.299318603515625,-0.13648298382759094,-0.0159784946590662,0.0033288532868027687
1696965900416332500,2.30933251953125,-0.1300915777683258,-0.0031956990715116262,0.027829213067889214
1696965900426346800,2.3193466796875,-0.1300915777683258,-0.04047885537147522,0.025698747485876083
1696965900436360700,2.329360595703125,-0.13541774451732635,0.012782796286046505,-0.007323476951569319
1696965900446375000,2.339375,-0.13222205638885498,-0.04154408723115921,0.043807707726955414
1696965900456389000,2.34938916015625,-0.1311568170785904,-0.00852186419069767,-0.0009320789249613881
1696965900466403000,2.359403076171875,-0.1300915777683258,-0.02556559257209301,0.025698747485876083
1696965900476417300,2.369417236328125,-0.13328728079795837,-0.012782796286046505,0.0033288532868027687
1696965900486431500,2.379431396484375,-0.1311568170785904,-0.009587096981704235,0.020372580736875534
1696965900496445400,2.389445556640625,-0.1300915777683258,-0.01704372838139534,0.006524552125483751
1696965900506459600,2.399459716796875,-0.13222205638885498,0.0063913981430232525,-0.0009320789249613881
1696965900516473900,2.409473876953125,-0.1311568170785904,-0.01171756349503994,0.017176883295178413
1696965900526487800,2.41948779296875,-0.1300915777683258,0.0031956990715116262,0.0033288532868027687
1696965900536502000,2.429501953125,-0.1311568170785904,-0.007456631399691105,0.0033288532868027687
1696965900546516700,2.439516845703125,-0.13435252010822296,0.01171756349503994,-0.010519175790250301
1696965900556530700,2.44953076171875,-0.1290263533592224,-0.02663082629442215,0.022503048181533813
1696965900566544600,2.459544677734375,-0.12796111404895782,-0.00852186419069767,-0.005193010903894901
1696965900576558600,2.46955859375,-0.13328728079795837,-0.012782796286046505,-0.007323476951569319
1696965900586572500,2.479572509765625,-0.1290263533592224,-0.02236989326775074,0.013981183059513569
1696965900596586500,2.48958642578125,-0.12689588963985443,-0.03621792420744896,0.005459319334477186
1696965900606600400,2.499600341796875,-0.13328728079795837,0.0031956990715116262,-0.008388710208237171
1696965900616614400,2.509614501953125,-0.1300915777683258,-0.04580501839518547,0.011850717477500439
1696965900626628400,2.51962841796875,-0.12796111404895782,-0.0021304660476744175,0.010785484686493874
1696965900636642300,2.529642333984375,-0.1311568170785904,-0.03834838792681694,0.012915950268507004
1696965900646656500,2.539656494140625,-0.13541774451732635,0.01171756349503994,-0.027562905102968216
1696965900656670500,2.54967041015625,-0.1300915777683258,-0.02876129187643528,0.043807707726955414
1696965900666684700,2.5596845703125,-0.1311568170785904,-0.01384802907705307,-0.009453942999243736
1696965900676699000,2.569698974609375,-0.13648298382759094,0.0031956990715116262,-0.008388710208237171
1696965900686713000,2.579713134765625,-0.13222205638885498,-0.01810896210372448,0.016111649572849274
1696965900696727300,2.589727294921875,-0.1300915777683258,-0.02876129187643528,0.009720250964164734
1696965900706741500,2.599741455078125,-0.13328728079795837,-0.007456631399691105,-0.022236740216612816
1696965900716755500,2.60975537109375,-0.13222205638885498,-0.02236989326775074,0.016111649572849274
1696965900726769700,2.619769775390625,-0.1290263533592224,-0.04367455467581749,0.006524552125483751
1696965900736784000,2.629783935546875,-0.13222205638885498,0.00852186419069767,-0.031823836266994476
1696965900746798000,2.639798095703125,-0.12796111404895782,-0.07669677585363388,0.027829213067889214
1696965900756812300,2.649812255859375,-0.1311568170785904,0.0106523297727108,-0.025432437658309937
1696965900766826500,2.659826416015625,-0.13328728079795837,-0.0426093190908432,0.007589785382151604
1696965900776840400,2.66984033203125,-0.1311568170785904,-0.01384802907705307,-0.016910573467612267
1696965900786854700,2.679854736328125,-0.1290263533592224,-0.03515268862247467,0.0033288532868027687
1696965900796868900,2.689868896484375,-0.1311568170785904,-0.01704372838139534,-0.004127778112888336
1696965900806883000,2.699883056640625,-0.13222205638885498,-0.00852186419069767,-0.024367205798625946
1696965900816897300,2.709897216796875,-0.1290263533592224,-0.02769605815410614,0.005459319334477186
1696965900826911500,2.719911376953125,-0.12796111404895782,-0.0213046595454216,0.011850717477500439
1696965900836925700,2.72992578125,-0.13222205638885498,-0.004260932095348835,-0.040345702320337296
1696965900846939600,2.739939697265625,-0.12796111404895782,-0.02023942768573761,0.015046416781842709
1696965900856953900,2.749953857421875,-0.12583065032958984,-0.02663082629442215,0.010785484686493874
1696965900866968000,2.759968017578125,-0.13328728079795837,0.01704372838139534,-0.048867564648389816
1696965900876982300,2.769982177734375,-0.12689588963985443,-0.02876129187643528,0.025698747485876083
1696965900886996500,2.77999658203125,-0.12370018661022186,-0.02663082629442215,0.008655018173158169
1696965900897010700,2.7900107421875,-0.13435252010822296,0.01704372838139534,-0.042476166039705276
1696965900907024600,2.800024658203125,-0.12796111404895782,-0.03408745676279068,0.022503048181533813
1696965900917038800,2.810038818359375,-0.12370018661022186,-0.01917419396340847,0.0033288532868027687
1696965900927053000,2.820052978515625,-0.1311568170785904,-0.0010652330238372087,-0.023301972076296806
1696965900937067300,2.8300673828125,-0.1290263533592224,-0.02982652559876442,0.0001331541279796511
1696965900947081500,2.84008154296875,-0.12156971544027328,-0.02236989326775074,0.025698747485876083
1696965900957095700,2.850095703125,-0.1300915777683258,-0.02343512699007988,-0.013714875094592571
1696965900967109600,2.860109619140625,-0.13222205638885498,-0.007456631399691105,-0.015845341607928276
1696965900977123800,2.870123779296875,-0.12476541846990585,-0.0426093190908432,0.047003407031297684
1696965900987137800,2.8801376953125,-0.13435252010822296,-0.0010652330238372087,-0.040345702320337296
1696965900997152000,2.890152099609375,-0.13328728079795837,-0.01810896210372448,0.00226362026296556
1696965901007166200,2.900166259765625,-0.12689588963985443,-0.02876129187643528,0.036351077258586884
1696965901017180200,2.91018017578125,-0.13648298382759094,-0.0063913981430232525,-0.038215234875679016
1696965901027194400,2.9201943359375,-0.13435252010822296,-0.012782796286046505,0.007589785382151604
1696965901037208600,2.93020849609375,-0.1290263533592224,-0.0426093190908432,0.023568280041217804
1696965901047222500,2.940222412109375,-0.13541774451732635,0.009587096981704235,-0.033954303711652756
1696965901057236700,2.95023681640625,-0.13541774451732635,-0.03515268862247467,0.00226362026296556
1696965901067251000,2.9602509765625,-0.1290263533592224,-0.0159784946590662,0.0011983871227130294
1696965901077265000,2.970264892578125,-0.13222205638885498,-0.02769605815410614,-0.006258244160562754
1696965901087279000,2.980279052734375,-0.13222205638885498,-0.007456631399691105,-0.025432437658309937
1696965901097293000,2.99029296875,-0.12689588963985443,-0.03515268862247467,0.022503048181533813
1696965901107307300,3.000307373046875,-0.13222205638885498,-0.0159784946590662,-0.023301972076296806
1696965901117321500,3.010321533203125,-0.13541774451732635,0.01917419396340847,-0.033954303711652756
1696965901127335400,3.02033544921875,-0.12263495475053787,-0.06924014538526535,0.03848154470324516
1696965901137349600,3.030349609375,-0.1311568170785904,0.03408745676279068,-0.044606633484363556
1696965901147363800,3.04036376953125,-0.13222205638885498,-0.04367455467581749,0.015046416781842709
1696965901157377800,3.050377685546875,-0.12263495475053787,-0.00852186419069767,-0.006258244160562754
1696965901167392000,3.06039208984375,-0.12689588963985443,-0.0213046595454216,0.004394086077809334
1696965901177406200,3.07040625,-0.13328728079795837,-0.004260932095348835,-0.024367205798625946
1696965901187420200,3.080420166015625,-0.1194392517209053,-0.03515268862247467,0.023568280041217804
1696965901197434400,3.090434326171875,-0.12263495475053787,-0.02450035884976387,0.0001331541279796511
1696965901207448300,3.1004482421875,-0.1311568170785904,-0.0031956990715116262,-0.022236740216612816
1696965901217462500,3.110462646484375,-0.11837401986122131,-0.0426093190908432,0.037416309118270874
1696965901227476700,3.120476806640625,-0.12370018661022186,-0.02769605815410614,-0.013714875094592571
1696965901237490700,3.13049072265625,-0.1300915777683258,0.0053261648863554,-0.014780107885599136
1696965901247505000,3.1405048828125,-0.12263495475053787,-0.02769605815410614,0.023568280041217804
1696965901257519000,3.15051904296875,-0.12583065032958984,-0.02236989326775074,0.0011983871227130294
1696965901267533000,3.160532958984375,-0.1311568170785904,0.02343512699007988,-0.029693370684981346
1696965901277547300,3.17054736328125,-0.12370018661022186,-0.04473978653550148,0.034220609813928604
1696965901287561500,3.1805615234375,-0.1290263533592224,0.01171756349503994,-0.030758604407310486
1696965901297575400,3.190575439453125,-0.13328728079795837,0.0053261648863554,-0.017975807189941406
1696965901307589600,3.200589599609375,-0.12689588963985443,-0.02236989326775074,0.013981183059513569
1696965901317603600,3.210603515625,-0.13222205638885498,0.0106523297727108,-0.031823836266994476
1696965901327617800,3.22061767578125,-0.1311568170785904,-0.0106523297727108,-0.007323476951569319
1696965901337632000,3.230632080078125,-0.1290263533592224,-0.01384802907705307,-0.008388710208237171
1696965901347646000,3.24064599609375,-0.13222205638885498,0,-0.017975807189941406
1696965901357660200,3.25066015625,-0.13328728079795837,-0.012782796286046505,-0.011584409512579441
1696965901367674400,3.26067431640625,-0.1300915777683258,-0.0063913981430232525,-0.019041040912270546
1696965901377688300,3.270688232421875,-0.13222205638885498,-0.02236989326775074,0.018242115154862404
1696965901387702500,3.28070263671875,-0.13754820823669434,0.01171756349503994,-0.045671865344047546
1696965901397716700,3.290716796875,-0.12476541846990585,-0.04793548583984375,0.037416309118270874
1696965901407730700,3.300730712890625,-0.13435252010822296,0.00852186419069767,-0.024367205798625946
1696965901417745000,3.310744873046875,-0.13541774451732635,-0.00852186419069767,-0.009453942999243736
1696965901427758800,3.3207587890625,-0.12583065032958984,-0.0319569893181324,0.029959678649902344
1696965901437773000,3.33077294921875,-0.13648298382759094,0.02343512699007988,-0.025432437658309937
1696965901447787300,3.340787353515625,-0.13222205638885498,-0.03089175745844841,0.011850717477500439
1696965901457801200,3.35080126953125,-0.12583065032958984,0.007456631399691105,0.015046416781842709
1696965901467815400,3.3608154296875,-0.13861344754695892,0.0021304660476744175,-0.013714875094592571
1696965901477829600,3.37082958984375,-0.12796111404895782,0.004260932095348835,0.0033288532868027687
1696965901487843600,3.380843505859375,-0.12583065032958984,-0.02769605815410614,0.03528584539890289
1696965901497857800,3.39085791015625,-0.13861344754695892,0.03728315606713295,-0.044606633484363556
1696965901507871700,3.400871826171875,-0.1205044835805893,-0.05539211630821228,0.06404713541269302
1696965901517886000,3.410885986328125,-0.1290263533592224,0.009587096981704235,-0.020106272771954536
1696965901527900200,3.420900146484375,-0.13222205638885498,0.0010652330238372087,-0.0030625448562204838
1696965901537914000,3.4309140625,-0.1194392517209053,-0.05965305119752884,0.061916667968034744
1696965901547928300,3.44092822265625,-0.13328728079795837,0.02343512699007988,-0.043541401624679565
1696965901557942500,3.450942626953125,-0.12583065032958984,-0.03941362351179123,0.048068638890981674
1696965901567956500,3.46095654296875,-0.12476541846990585,-0.02556559257209301,0.033155377954244614
1696965901577970700,3.470970703125,-0.13648298382759094,0.009587096981704235,-0.029693370684981346
1696965901587985000,3.48098486328125,-0.12796111404895782,-0.02343512699007988,0.050199106335639954
1696965901597998800,3.490998779296875,-0.13435252010822296,-0.012782796286046505,0.011850717477500439
1696965901608013000,3.501012939453125,-0.13435252010822296,0.01810896210372448,-0.008388710208237171
1696965901618027000,3.511027099609375,-0.1300915777683258,-0.0426093190908432,0.054460037499666214
1696965901628041200,3.521041259765625,-0.13861344754695892,0.03515268862247467,-0.037150003015995026
1696965901638055400,3.531055419921875,-0.1300915777683258,-0.04473978653550148,0.053394805639982224
1696965901648069400,3.5410693359375,-0.13754820823669434,0.0021304660476744175,-0.020106272771954536
1696965901658083600,3.55108349609375,-0.13435252010822296,-0.0063913981430232525,-0.004127778112888336
1696965901668097800,3.561097900390625,-0.1311568170785904,-0.05219641700387001,0.03528584539890289
1696965901678111700,3.57111181640625,-0.13861344754695892,0.02769605815410614,-0.047802332788705826
1696965901688126000,3.5811259765625,-0.1300915777683258,-0.06284874677658081,0.048068638890981674
1696965901698140200,3.59114013671875,-0.13754820823669434,0.02450035884976387,-0.04993279650807381
1696965901708154000,3.601154052734375,-0.13328728079795837,-0.05752258375287056,0.028894444927573204
1696965901718168300,3.611168212890625,-0.13435252010822296,0.007456631399691105,-0.017975807189941406
1696965901728182300,3.621182373046875,-0.13648298382759094,-0.02023942768573761,-0.004127778112888336
1696965901738196500,3.631196533203125,-0.1311568170785904,-0.03515268862247467,0.013981183059513569
1696965901748210700,3.641210693359375,-0.13861344754695892,0.01171756349503994,-0.026497671380639076
1696965901758224600,3.651224609375,-0.1300915777683258,-0.05113118514418602,0.03209014609456062
1696965901768238800,3.66123876953125,-0.13328728079795837,-0.01384802907705307,-0.004127778112888336
1696965901778253000,3.671253173828125,-0.13648298382759094,-0.0159784946590662,0.006524552125483751
1696965901788267000,3.68126708984375,-0.1300915777683258,-0.0426093190908432,0.020372580736875534
1696965901798281200,3.69128125,-0.13861344754695892,0.0010652330238372087,0.00226362026296556
1696965901808295400,3.70129541015625,-0.1311568170785904,-0.05539211630821228,0.036351077258586884
1696965901818309400,3.711309326171875,-0.13541774451732635,0.01491326279938221,0.008655018173158169
1696965901828323600,3.721323486328125,-0.13861344754695892,-0.04900071769952774,0.026763979345560074
1696965901838337500,3.731337646484375,-0.13222205638885498,0.0021304660476744175,0.026763979345560074
1696965901848351700,3.741351806640625,-0.13861344754695892,-0.03089175745844841,0.023568280041217804
1696965901858366000,3.751365966796875,-0.13648298382759094,-0.012782796286046505,0.020372580736875534
1696965901868380000,3.7613798828125,-0.1418091505765915,-0.009587096981704235,0.024633513763546944
1696965901878394000,3.77139404296875,-0.1418091505765915,-0.0106523297727108,0.026763979345560074
1696965901888408300,3.781408203125,-0.1418091505765915,-0.01171756349503994,0.025698747485876083
1696965901898422300,3.79142236328125,-0.14287437498569489,-0.01810896210372448,0.023568280041217804
1696965901908436500,3.8014365234375,-0.14393961429595947,-0.004260932095348835,0.021437814459204674
1696965901918450700,3.81145068359375,-0.14607007801532745,-0.02663082629442215,0.018242115154862404
1696965901928464600,3.821464599609375,-0.14607007801532745,-0.0010652330238372087,0.013981183059513569
1696965901938478800,3.831478759765625,-0.151396244764328,-0.02450035884976387,0.006524552125483751
1696965901948492800,3.841492919921875,-0.14607007801532745,-0.0213046595454216,0.016111649572849274
1696965901958507000,3.851507080078125,-0.151396244764328,-0.03621792420744896,0.005459319334477186
1696965901968521200,3.861521240234375,-0.151396244764328,-0.00852186419069767,-0.008388710208237171
1696965901978535200,3.87153515625,-0.14926578104496002,-0.05219641700387001,0.010785484686493874
1696965901988549400,3.88154931640625,-0.15565717220306396,-0.0053261648863554,-0.03608476743102074
1696965901998563600,3.8915634765625,-0.14926578104496002,-0.05752258375287056,0.027829213067889214
1696965902008577500,3.90157763671875,-0.15778763592243195,-0.0159784946590662,-0.050998032093048096
1696965902018591700,3.911591796875,-0.15352670848369598,-0.0213046595454216,0.010785484686493874
1696965902028606000,3.92160595703125,-0.15459194779396057,-0.03621792420744896,-0.017975807189941406
1696965902038620000,3.931619873046875,-0.15885287523269653,0.01704372838139534,-0.048867564648389816
1696965902048634000,3.941634033203125,-0.1524614691734314,-0.05752258375287056,0.037416309118270874
1696965902058648000,3.95164794921875,-0.1631138026714325,0.04473978653550148,-0.07017222791910172
1696965902068662300,3.961662353515625,-0.15459194779396057,-0.04473978653550148,0.033155377954244614
1696965902078676500,3.971676513671875,-0.15885287523269653,0.00852186419069767,-0.022236740216612816
1696965902088690400,3.9816904296875,-0.15778763592243195,-0.0021304660476744175,-0.022236740216612816
1696965902098704600,3.99170458984375,-0.15352670848369598,-0.0319569893181324,0.034220609813928604
1696965902108718800,4.00171875,-0.15991811454296112,0.012782796286046505,-0.029693370684981346
1696965902118732800,4.01173291015625,-0.1524614691734314,-0.03302222490310669,0.031024912372231483
1696965902128747000,4.0217470703125,-0.15672241151332855,-0.01384802907705307,-0.0030625448562204838
1696965902138761200,4.03176123046875,-0.1524614691734314,-0.01171756349503994,0.012915950268507004
1696965902148775200,4.041775146484375,-0.15672241151332855,-0.03408745676279068,0.024633513763546944
1696965902158789400,4.051789306640625,-0.15672241151332855,0.01810896210372448,-0.0030625448562204838
1696965902168803300,4.06180322265625,-0.1524614691734314,-0.05006595328450203,0.04274247586727142
1696965902178817500,4.071817626953125,-0.1620485782623291,0.02343512699007988,-0.015845341607928276
1696965902188831700,4.081831787109375,-0.151396244764328,-0.02876129187643528,0.050199106335639954
1696965902198845700,4.091845703125,-0.1620485782623291,-0.00852186419069767,-0.015845341607928276
1696965902208860000,4.10185986328125,-0.15778763592243195,0.0159784946590662,0.012915950268507004
1696965902218874000,4.1118740234375,-0.15778763592243195,-0.0426093190908432,0.028894444927573204
1696965902228888000,4.12188818359375,-0.16098333895206451,0.04047885537147522,-0.037150003015995026
1696965902238902300,4.13190234375,-0.15565717220306396,-0.05645735189318657,0.05232957378029823
1696965902248916200,4.141916259765625,-0.16417904198169708,0.02343512699007988,-0.04673709720373154
1696965902258930400,4.151930419921875,-0.15778763592243195,-0.02769605815410614,0.021437814459204674
1696965902268944600,4.161944580078125,-0.1620485782623291,-0.012782796286046505,-0.011584409512579441
1696965902278958600,4.17195849609375,-0.1620485782623291,0.01384802907705307,-0.022236740216612816
1696965902288972800,4.181972900390625,-0.15885287523269653,-0.05113118514418602,0.03528584539890289
1696965902298987000,4.191987060546875,-0.16737474501132965,0.04367455467581749,-0.06484606117010117
1696965902309001000,4.2020009765625,-0.15565717220306396,-0.0639139786362648,0.054460037499666214
1696965902319015200,4.21201513671875,-0.16630950570106506,0.01491326279938221,-0.054193731397390366
1696965902329029400,4.222029296875,-0.15885287523269653,-0.02556559257209301,0.020372580736875534
1696965902339043300,4.232043212890625,-0.1620485782623291,-0.03408745676279068,0.008655018173158169
1696965902349057500,4.2420576171875,-0.15885287523269653,-0.0106523297727108,-0.035019535571336746
1696965902359071500,4.252071533203125,-0.15885287523269653,-0.05219641700387001,0.03954677656292915
1696965902369085700,4.262085693359375,-0.15991811454296112,-0.01171756349503994,-0.03288906812667847
1696965902379100000,4.272099853515625,-0.151396244764328,-0.06817491352558136,0.03954677656292915
1696965902389113900,4.28211376953125,-0.1631138026714325,-0.007456631399691105,-0.030758604407310486
1696965902399128000,4.292128173828125,-0.15352670848369598,-0.04793548583984375,0.028894444927573204
1696965902409142300,4.302142333984375,-0.15672241151332855,-0.04047885537147522,-0.004127778112888336
1696965902419156200,4.31215625,-0.15885287523269653,-0.00852186419069767,-0.015845341607928276
1696965902429170400,4.32217041015625,-0.1524614691734314,-0.05752258375287056,0.040612008422613144
1696965902439184600,4.3321845703125,-0.1620485782623291,-0.0031956990715116262,-0.043541401624679565
1696965902449198600,4.342198486328125,-0.15352670848369598,-0.04367455467581749,0.036351077258586884
1696965902459212800,4.352212890625,-0.16098333895206451,-0.02343512699007988,-0.027562905102968216
1696965902469226800,4.362226806640625,-0.15672241151332855,-0.012782796286046505,-0.0030625448562204838
1696965902479241000,4.372240966796875,-0.15672241151332855,-0.0532616525888443,0.018242115154862404
1696965902489255200,4.382255126953125,-0.16417904198169708,0.0213046595454216,-0.04993279650807381
1696965902499269000,4.39226904296875,-0.15778763592243195,-0.0532616525888443,0.034220609813928604
1696965902509283300,4.402283447265625,-0.16524426639080048,0.02023942768573761,-0.06271559745073318
1696965902519297500,4.412297607421875,-0.16098333895206451,-0.03941362351179123,0.012915950268507004
1696965902529311500,4.4223115234375,-0.1631138026714325,-0.0031956990715116262,-0.03288906812667847
1696965902539325700,4.43232568359375,-0.16630950570106506,0.01384802907705307,-0.047802332788705826
1696965902549340000,4.44233984375,-0.15885287523269653,-0.04580501839518547,0.018242115154862404
1696965902559353900,4.452353759765625,-0.16737474501132965,0.05752258375287056,-0.08828118443489075
1696965902569368000,4.4623681640625,-0.15991811454296112,-0.05752258375287056,0.016111649572849274
1696965902579382000,4.472382080078125,-0.16098333895206451,0.03834838792681694,-0.055258963257074356
1696965902589396200,4.482396240234375,-0.16630950570106506,0.0010652330238372087,-0.028628136962652206
1696965902599410400,4.492410400390625,-0.15885287523269653,-0.0021304660476744175,-0.014780107885599136
1696965902609424400,4.50242431640625,-0.16417904198169708,0.02663082629442215,-0.033954303711652756
1696965902619438600,4.5124384765625,-0.1631138026714325,-0.004260932095348835,-0.031823836266994476
1696965902629452800,4.522452880859375,-0.15672241151332855,0.0031956990715116262,-0.001997311832383275
1696965902639466800,4.532466796875,-0.16417904198169708,0.0021304660476744175,-0.03288906812667847
1696965902649481000,4.54248095703125,-0.15991811454296112,0.012782796286046505,-0.015845341607928276
1696965902659495200,4.5524951171875,-0.15991811454296112,-0.02343512699007988,0.019307348877191544
1696965902669509000,4.562509033203125,-0.16630950570106506,0.01704372838139534,-0.061650361865758896
1696965902679523300,4.5725234375,-0.15352670848369598,-0.03621792420744896,0.053394805639982224
1696965902689537300,4.582537353515625,-0.16843996942043304,0.0031956990715116262,-0.043541401624679565
1696965902699551500,4.592551513671875,-0.15885287523269653,-0.01491326279938221,0.008655018173158169
1696965902709565700,4.602565673828125,-0.15885287523269653,-0.04367455467581749,0.037416309118270874
1696965902719579600,4.61257958984375,-0.16630950570106506,-0.01810896210372448,-0.042476166039705276
1696965902729593900,4.62259375,-0.15672241151332855,-0.04367455467581749,0.054460037499666214
1696965902739608000,4.632608154296875,-0.16417904198169708,-0.0532616525888443,0.0033288532868027687
1696965902749622000,4.6426220703125,-0.16630950570106506,-0.0063913981430232525,-0.027562905102968216
1696965902759636200,4.65263623046875,-0.15672241151332855,-0.0852186381816864,0.08535179495811462
1696965902769650400,4.662650390625,-0.1716356724500656,-0.01384802907705307,-0.044606633484363556
1696965902779664400,4.672664306640625,-0.1631138026714325,-0.03728315606713295,0.036351077258586884
1696965902789678600,4.6826787109375,-0.1631138026714325,-0.06178351491689682,0.041677240282297134
1696965902799692500,4.692692626953125,-0.1737661361694336,0.02556559257209301,-0.052063263952732086
1696965902809706800,4.702706787109375,-0.16417904198169708,-0.08095771074295044,0.07896039634943008
1696965902819721000,4.712720947265625,-0.17057043313980103,0.01704372838139534,-0.033954303711652756
1696965902829735000,4.72273486328125,-0.1716356724500656,-0.03621792420744896,0.015046416781842709
1696965902839749000,4.7327490234375,-0.1631138026714325,-0.0319569893181324,0.03528584539890289
1696965902849763300,4.742763427734375,-0.1737661361694336,0,-0.037150003015995026
1696965902859777300,4.75277734375,-0.16524426639080048,-0.02769605815410614,0.025698747485876083
1696965902869791500,4.76279150390625,-0.1620485782623291,-0.01917419396340847,0.016111649572849274
1696965902879805700,4.7728056640625,-0.16843996942043304,-0.0053261648863554,-0.023301972076296806
1696965902889819600,4.782819580078125,-0.1620485782623291,-0.02982652559876442,0.034220609813928604
1696965902899833900,4.792833740234375,-0.15778763592243195,-0.02982652559876442,-0.004127778112888336
1696965902909847800,4.802847900390625,-0.16737474501132965,0.01491326279938221,-0.025432437658309937
1696965902919862000,4.812862060546875,-0.1631138026714325,-0.05539211630821228,0.013981183059513569
1696965902929876200,4.822876220703125,-0.15991811454296112,0.00852186419069767,-0.016910573467612267
1696965902939890200,4.83289013671875,-0.16524426639080048,-0.05219641700387001,0.016111649572849274
1696965902949904400,4.842904296875,-0.16417904198169708,0.0021304660476744175,-0.028628136962652206
1696965902959918600,4.852918701171875,-0.15672241151332855,-0.06284874677658081,0.04593817517161369
1696965902969932500,4.8629326171875,-0.1620485782623291,-0.0031956990715116262,-0.035019535571336746
1696965902979946800,4.87294677734375,-0.1631138026714325,-0.05113118514418602,0.005459319334477186
1696965902989960700,4.882960693359375,-0.15991811454296112,-0.02556559257209301,0.005459319334477186
1696965902999975000,4.892974853515625,-0.16098333895206451,-0.03621792420744896,-0.015845341607928276
1696965903009989000,4.902989013671875,-0.1631138026714325,-0.03515268862247467,0.006524552125483751
1696965903020003000,4.913003173828125,-0.16417904198169708,-0.02769605815410614,-0.009453942999243736
1696965903030017300,4.923017333984375,-0.15991811454296112,-0.03728315606713295,0.016111649572849274
1696965903040031500,4.933031494140625,-0.16630950570106506,-0.02556559257209301,-0.021171506494283676
1696965903050045400,4.94304541015625,-0.16737474501132965,-0.02023942768573761,0.0001331541279796511
1696965903060059600,4.9530595703125,-0.16417904198169708,-0.02023942768573761,0.010785484686493874
1696965903070073900,4.963073974609375,-0.16630950570106506,-0.02769605815410614,-0.005193010903894901
1696965903080087800,4.973087890625,-0.16950520873069763,-0.0010652330238372087,-0.004127778112888336
1696965903090102000,4.98310205078125,-0.16950520873069763,0.009587096981704235,-0.005193010903894901
1696965903100116000,4.993115966796875,-0.16524426639080048,-0.02023942768573761,0.021437814459204674
1696965903110130200,5.003130126953125,-0.16950520873069763,0.02876129187643528,-0.012649642303586006
1696965903120144100,5.01314404296875,-0.172700896859169,0.01384802907705307,0.010785484686493874
1696965903130158300,5.023158447265625,-0.16950520873069763,0.01810896210372448,-0.007323476951569319
1696965903140172300,5.03317236328125,-0.16630950570106506,-0.0021304660476744175,0.012915950268507004
1696965903150186200,5.043186279296875,-0.16524426639080048,-0.01491326279938221,0.00226362026296556
1696965903160200400,5.053200439453125,-0.17057043313980103,0.0063913981430232525,-0.028628136962652206
1696965903170214400,5.06321435546875,-0.16098333895206451,-0.04900071769952774,0.034220609813928604
1696965903180228600,5.073228515625,-0.15991811454296112,-0.04473978653550148,-0.013714875094592571
1696965903190242600,5.08324267578125,-0.16630950570106506,-0.02982652559876442,-0.016910573467612267
1696965903200256800,5.0932568359375,-0.16737474501132965,-0.03941362351179123,0.0001331541279796511
1696965903210270700,5.103270751953125,-0.16098333895206451,-0.05645735189318657,-0.0009320789249613881
1696965903220284700,5.11328466796875,-0.16737474501132965,-0.02236989326775074,-0.019041040912270546
1696965903230299000,5.123298828125,-0.16630950570106506,-0.05752258375287056,0.018242115154862404
1696965903240312800,5.133312744140625,-0.1716356724500656,0.01384802907705307,-0.031823836266994476
1696965903250327000,5.1433271484375,-0.16843996942043304,-0.03408745676279068,0.024633513763546944
1696965903260341000,5.153341064453125,-0.1716356724500656,-0.0031956990715116262,-0.005193010903894901
1696965903270355200,5.163355224609375,-0.17696183919906616,0.02876129187643528,-0.017975807189941406
1696965903280369200,5.173369140625,-0.17483137547969818,-0.00852186419069767,0.031024912372231483
1696965903290383000,5.183383056640625,-0.1716356724500656,0.02023942768573761,0.004394086077809334
1696965903300397300,5.193397216796875,-0.1716356724500656,-0.004260932095348835,0.017176883295178413
1696965903310411300,5.203411376953125,-0.17589659988880157,0.02663082629442215,0.00226362026296556
1696965903320425500,5.213425537109375,-0.16843996942043304,-0.01704372838139534,0.036351077258586884
1696965903330439400,5.223439453125,-0.16843996942043304,-0.009587096981704235,0.004394086077809334
1696965903340453600,5.23345361328125,-0.16737474501132965,-0.01810896210372448,0.022503048181533813
1696965903350467600,5.243467529296875,-0.16950520873069763,-0.03408745676279068,0.006524552125483751
1696965903360481800,5.253481689453125,-0.16737474501132965,-0.0053261648863554,0.008655018173158169
1696965903370495700,5.263495849609375,-0.16098333895206451,-0.08202294260263443,0.051264338195323944
1696965903380509700,5.273509765625,-0.16417904198169708,-0.01491326279938221,-0.024367205798625946
1696965903390524000,5.28352392578125,-0.16737474501132965,-0.03621792420744896,0.022503048181533813
1696965903400538000,5.2935380859375,-0.16098333895206451,-0.05006595328450203,0.025698747485876083
1696965903410552000,5.303552001953125,-0.1620485782623291,-0.0159784946590662,-0.001997311832383275
1696965903420566300,5.313566162109375,-0.1631138026714325,-0.05539211630821228,0.03209014609456062
1696965903430580500,5.32358056640625,-0.16950520873069763,0.01384802907705307,-0.023301972076296806
1696965903440594400,5.333594482421875,-0.16737474501132965,-0.0106523297727108,0.03528584539890289
1696965903450608600,5.343608642578125,-0.1620485782623291,-0.04047885537147522,0.025698747485876083
1696965903460622600,5.35362255859375,-0.16843996942043304,0.0106523297727108,-0.033954303711652756
1696965903470636800,5.36363671875,-0.17057043313980103,0.0053261648863554,0.036351077258586884
1696965903480651000,5.373651123046875,-0.16737474501132965,-0.04580501839518547,0.019307348877191544
1696965903490665000,5.3836650390625,-0.16417904198169708,0.007456631399691105,-0.012649642303586006
1696965903500679200,5.39367919921875,-0.16630950570106506,-0.05006595328450203,0.025698747485876083
1696965903510693400,5.403693359375,-0.16950520873069763,-0.0010652330238372087,-0.012649642303586006
1696965903520707300,5.413707275390625,-0.1631138026714325,-0.06497921794652939,0.029959678649902344
1696965903530721500,5.423721435546875,-0.16524426639080048,-0.03621792420744896,-0.005193010903894901
1696965903540735700,5.43373583984375,-0.16630950570106506,-0.02769605815410614,-0.0009320789249613881
1696965903550749700,5.443749755859375,-0.17057043313980103,-0.03941362351179123,0.005459319334477186
1696965903560764000,5.453763916015625,-0.16843996942043304,-0.0106523297727108,-0.010519175790250301
1696965903570777900,5.46377783203125,-0.16950520873069763,-0.0426093190908432,0.0033288532868027687
1696965903580792000,5.4737919921875,-0.1716356724500656,0.0063913981430232525,-0.020106272771954536
1696965903590806300,5.48380615234375,-0.1737661361694336,-0.02450035884976387,-0.004127778112888336
1696965903600820200,5.4938203125,-0.16950520873069763,-0.0031956990715116262,0.0011983871227130294
1696965903610834400,5.50383447265625,-0.1716356724500656,-0.0106523297727108,-0.016910573467612267
1696965903620848600,5.5138486328125,-0.17483137547969818,0.00852186419069767,-0.015845341607928276
1696965903630862600,5.523862548828125,-0.1716356724500656,-0.01704372838139534,0.007589785382151604
1696965903640876800,5.533876708984375,-0.16630950570106506,-0.0063913981430232525,-0.006258244160562754
1696965903650891000,5.54389111328125,-0.17057043313980103,0,0.0001331541279796511
1696965903660905000,5.553905029296875,-0.1737661361694336,-0.007456631399691105,-0.010519175790250301
1696965903670919200,5.563919189453125,-0.1631138026714325,-0.0106523297727108,0.028894444927573204
1696965903680933000,5.57393310546875,-0.16737474501132965,-0.03302222490310669,0.006524552125483751
1696965903690947300,5.583947265625,-0.1716356724500656,0.009587096981704235,-0.001997311832383275
1696965903700961500,5.59396142578125,-0.17057043313980103,-0.0319569893181324,0.016111649572849274
1696965903710975500,5.6039755859375,-0.1631138026714325,-0.04047885537147522,0.036351077258586884
1696965903720989700,5.61398974609375,-0.16737474501132965,-0.009587096981704235,-0.011584409512579441
1696965903731004000,5.62400390625,-0.16950520873069763,-0.05858781561255455,0.03528584539890289
1696965903741017900,5.634017822265625,-0.16843996942043304,-0.004260932095348835,-0.0009320789249613881
1696965903751032000,5.644031982421875,-0.16524426639080048,-0.06924014538526535,0.037416309118270874
1696965903761046000,5.6540458984375,-0.1737661361694336,0.0053261648863554,-0.027562905102968216
1696965903771060200,5.664060302734375,-0.1716356724500656,-0.04047885537147522,0.025698747485876083
1696965903781074400,5.674074462890625,-0.17057043313980103,-0.007456631399691105,0.010785484686493874
1696965903791088400,5.68408837890625,-0.17589659988880157,-0.00852186419069767,-0.023301972076296806
1696965903801102600,5.6941025390625,-0.172700896859169,-0.0063913981430232525,-0.0009320789249613881
1696965903811116800,5.70411669921875,-0.17589659988880157,0.0031956990715116262,-0.020106272771954536
1696965903821130800,5.714130859375,-0.172700896859169,-0.02236989326775074,0.0033288532868027687
1696965903831145000,5.72414501953125,-0.17483137547969818,0.02236989326775074,-0.048867564648389816
1696965903841159200,5.7341591796875,-0.172700896859169,-0.02023942768573761,-0.0030625448562204838
1696965903851173000,5.744173095703125,-0.1716356724500656,-0.0031956990715116262,-0.021171506494283676
1696965903861187300,5.754187255859375,-0.1716356724500656,-0.00852186419069767,-0.026497671380639076
1696965903871201300,5.764201171875,-0.1716356724500656,-0.01810896210372448,-0.0030625448562204838
1696965903881215500,5.774215576171875,-0.1716356724500656,-0.00852186419069767,-0.026497671380639076
1696965903891229700,5.784229736328125,-0.16843996942043304,-0.0319569893181324,0.004394086077809334
1696965903901243600,5.79424365234375,-0.16843996942043304,-0.04367455467581749,0.0033288532868027687
1696965903911257900,5.8042578125,-0.172700896859169,-0.0010652330238372087,-0.03288906812667847
1696965903921272000,5.81427197265625,-0.16098333895206451,-0.08628387749195099,0.06511236727237701
1696965903931286000,5.8242861328125,-0.16737474501132965,-0.02236989326775074,-0.037150003015995026
1696965903941300200,5.83430029296875,-0.1716356724500656,-0.01917419396340847,0.009720250964164734
1696965903951314400,5.844314453125,-0.16950520873069763,-0.03621792420744896,0.026763979345560074
1696965903961328400,5.854328369140625,-0.1631138026714325,-0.0426093190908432,0.008655018173158169
1696965903971342600,5.864342529296875,-0.1737661361694336,0.01491326279938221,-0.017975807189941406
1696965903981356500,5.8743564453125,-0.16950520873069763,-0.02982652559876442,0.04593817517161369
1696965903991370800,5.884370849609375,-0.17057043313980103,0.00852186419069767,-0.025432437658309937
1696965904001385000,5.894385009765625,-0.16630950570106506,-0.004260932095348835,0.021437814459204674
1696965904011399000,5.90439892578125,-0.16950520873069763,-0.009587096981704235,0.00226362026296556
1696965904021413000,5.9144130859375,-0.17057043313980103,0.03621792420744896,-0.028628136962652206
1696965904031427300,5.92442724609375,-0.1620485782623291,-0.05113118514418602,0.061916667968034744
1696965904041441300,5.934441162109375,-0.16950520873069763,0.04154408723115921,-0.058454662561416626
1696965904051455500,5.94445556640625,-0.16737474501132965,-0.0159784946590662,0.017176883295178413
1696965904061469700,5.9544697265625,-0.1620485782623291,-0.0021304660476744175,0.008655018173158169
1696965904071483600,5.964483642578125,-0.16417904198169708,0.0010652330238372087,-0.023301972076296806
1696965904081497900,5.974497802734375,-0.16417904198169708,0,0.007589785382151604
1696965904091511800,5.98451171875,-0.16417904198169708,0.012782796286046505,-0.022236740216612816
1696965904101526000,5.994526123046875,-0.15991811454296112,-0.0053261648863554,0.020372580736875534
1696965904111540200,6.004540283203125,-0.1620485782623291,0.004260932095348835,-0.021171506494283676
1696965904121554200,6.01455419921875,-0.16417904198169708,0.012782796286046505,-0.009453942999243736
1696965904131568400,6.024568359375,-0.15885287523269653,-0.00852186419069767,0.018242115154862404
1696965904141582600,6.03458251953125,-0.15778763592243195,-0.0063913981430232525,-0.019041040912270546
1696965904151596500,6.044596435546875,-0.1620485782623291,0.02023942768573761,-0.015845341607928276
1696965904161610800,6.05461083984375,-0.15885287523269653,-0.02982652559876442,0.012915950268507004
1696965904171625000,6.064625,-0.151396244764328,-0.0063913981430232525,-0.007323476951569319
1696965904181639000,6.074638916015625,-0.15565717220306396,-0.02450035884976387,-0.012649642303586006
1696965904191653000,6.084653076171875,-0.15565717220306396,-0.007456631399691105,0.00226362026296556
1696965904201667000,6.0946669921875,-0.14926578104496002,-0.03302222490310669,0.010785484686493874
1696965904211681300,6.104681396484375,-0.151396244764328,-0.01704372838139534,-0.023301972076296806
1696965904221695500,6.114695556640625,-0.1524614691734314,-0.02876129187643528,0.020372580736875534
1696965904231710000,6.1247099609375,-0.14926578104496002,-0.01171756349503994,-0.015845341607928276
1696965904241723600,6.1347236328125,-0.14607007801532745,-0.03941362351179123,0.016111649572849274
1696965904251737300,6.1447373046875,-0.14393961429595947,-0.03089175745844841,0.006524552125483751
1696965904261751000,6.1547509765625,-0.14820054173469543,-0.0159784946590662,-0.020106272771954536
1696965904271764700,6.1647646484375,-0.13861344754695892,-0.04580501839518547,0.036351077258586884
1696965904281778400,6.1747783203125,-0.13754820823669434,-0.0426093190908432,-0.001997311832383275
1696965904291792100,6.184792236328125,-0.14393961429595947,-0.00852186419069767,-0.010519175790250301
1696965904301806000,6.19480615234375,-0.13754820823669434,-0.04900071769952774,0.026763979345560074
1696965904311820000,6.204820068359375,-0.13222205638885498,-0.03302222490310669,0.006524552125483751
1696965904321834000,6.214833984375,-0.13754820823669434,-0.02450035884976387,0.0001331541279796511
1696965904331848000,6.224847900390625,-0.13435252010822296,-0.03408745676279068,0.005459319334477186
1696965904341862100,6.234862060546875,-0.12796111404895782,-0.02450035884976387,0.007589785382151604
1696965904351876400,6.24487646484375,-0.1300915777683258,-0.05645735189318657,0.008655018173158169
1696965904361890600,6.254890625,-0.13222205638885498,0.004260932095348835,-0.026497671380639076
1696965904371904800,6.26490478515625,-0.12796111404895782,-0.07030537724494934,0.022503048181533813
1696965904381919200,6.274919189453125,-0.12370018661022186,-0.01810896210372448,0.006524552125483751
1696965904391933400,6.284933349609375,-0.12689588963985443,-0.05219641700387001,-0.016910573467612267
1696965904401948000,6.294947998046875,-0.12796111404895782,-0.02450035884976387,-0.006258244160562754
1696965904411962400,6.30496240234375,-0.1194392517209053,-0.07030537724494934,0.03954677656292915
1696965904421976800,6.314976806640625,-0.12583065032958984,-0.02663082629442215,-0.044606633484363556
1696965904431991300,6.3249912109375,-0.12476541846990585,-0.04687025398015976,0.016111649572849274
1696965904442005500,6.335005615234375,-0.12476541846990585,-0.04580501839518547,0.004394086077809334
1696965904452019700,6.345019775390625,-0.12263495475053787,-0.03302222490310669,-0.006258244160562754
1696965904462034000,6.355033935546875,-0.12583065032958984,-0.05645735189318657,0.015046416781842709
1696965904472047900,6.3650478515625,-0.12796111404895782,-0.02450035884976387,-0.020106272771954536
1696965904482062000,6.37506201171875,-0.12476541846990585,-0.05006595328450203,0.029959678649902344
1696965904492076000,6.385075927734375,-0.12689588963985443,-0.03621792420744896,-0.017975807189941406
1696965904502090000,6.395090087890625,-0.13222205638885498,-0.02769605815410614,0.0001331541279796511
1696965904512104200,6.405104248046875,-0.1300915777683258,-0.04793548583984375,0.008655018173158169
1696965904522118100,6.4151181640625,-0.1300915777683258,-0.01491326279938221,0.0011983871227130294
1696965904532132400,6.42513232421875,-0.13222205638885498,-0.03728315606713295,0.0001331541279796511
1696965904542146300,6.435146240234375,-0.13435252010822296,-0.012782796286046505,0.00226362026296556
1696965904552160500,6.445160400390625,-0.13328728079795837,-0.02236989326775074,0.008655018173158169
1696965904562174500,6.455174560546875,-0.13328728079795837,0,-0.010519175790250301
1696965904572188400,6.4651884765625,-0.13541774451732635,-0.02982652559876442,0.009720250964164734
1696965904582202600,6.47520263671875,-0.1407439112663269,0.0426093190908432,-0.027562905102968216
1696965904592216600,6.485216552734375,-0.1300915777683258,-0.04367455467581749,0.044872939586639404
1696965904602230800,6.495230712890625,-0.1396786868572235,0.03728315606713295,-0.038215234875679016
1696965904612244700,6.50524462890625,-0.1396786868572235,0.0021304660476744175,0.010785484686493874
1696965904622259000,6.515259033203125,-0.1311568170785904,-0.01491326279938221,0.023568280041217804
1696965904632273000,6.52527294921875,-0.13328728079795837,0.01704372838139534,-0.027562905102968216
1696965904642287000,6.535287109375,-0.13754820823669434,-0.0053261648863554,0.016111649572849274
1696965904652301000,6.545301025390625,-0.13222205638885498,0.0021304660476744175,-0.001997311832383275
1696965904662315000,6.55531494140625,-0.12796111404895782,-0.02663082629442215,0.016111649572849274
1696965904672329200,6.5653291015625,-0.13328728079795837,-0.00852186419069767,-0.012649642303586006
1696965904682343200,6.57534326171875,-0.13328728079795837,-0.007456631399691105,0.011850717477500439
1696965904692357400,6.585357421875,-0.1300915777683258,-0.01810896210372448,0.0011983871227130294
1696965904702371300,6.595371337890625,-0.12796111404895782,-0.0010652330238372087,0.005459319334477186
1696965904712385500,6.605385498046875,-0.1311568170785904,-0.03408745676279068,0.012915950268507004
1696965904722399500,6.6153994140625,-0.13435252010822296,0.03408745676279068,-0.022236740216612816
1696965904732414000,6.6254140625,-0.12583065032958984,-0.05219641700387001,0.03848154470324516
1696965904742428400,6.635428466796875,-0.1311568170785904,0.02023942768573761,-0.025432437658309937
1696965904752442600,6.645442626953125,-0.13435252010822296,-0.0053261648863554,0.0011983871227130294
1696965904762456800,6.655456787109375,-0.12476541846990585,-0.0159784946590662,0.012915950268507004
1696965904772470800,6.665470703125,-0.1290263533592224,0.0063913981430232525,-0.020106272771954536
1696965904782485000,6.675485107421875,-0.1300915777683258,-0.0031956990715116262,0.004394086077809334
1696965904792499000,6.6854990234375,-0.13328728079795837,0.01810896210372448,-0.024367205798625946
1696965904802513200,6.69551318359375,-0.12370018661022186,-0.0319569893181324,0.025698747485876083
1696965904812527000,6.705527099609375,-0.1300915777683258,0.02343512699007988,-0.037150003015995026
1696965904822541300,6.715541259765625,-0.1311568170785904,-0.007456631399691105,0.0001331541279796511
1696965904832555300,6.72555517578125,-0.12583065032958984,-0.012782796286046505,0.00226362026296556
1696965904842569200,6.7355693359375,-0.12689588963985443,-0.009587096981704235,-0.016910573467612267
1696965904852583400,6.74558349609375,-0.1290263533592224,-0.0213046595454216,0.0011983871227130294
1696965904862597400,6.755597412109375,-0.12796111404895782,-0.01810896210372448,-0.006258244160562754
1696965904872611600,6.765611572265625,-0.12476541846990585,-0.02876129187643528,0.004394086077809334
1696965904882625500,6.77562548828125,-0.12583065032958984,-0.04687025398015976,0.0001331541279796511
1696965904892639700,6.7856396484375,-0.1300915777683258,-0.00852186419069767,-0.016910573467612267
1696965904902653700,6.79565380859375,-0.12476541846990585,-0.07350108027458191,0.022503048181533813
1696965904912667600,6.805667724609375,-0.12583065032958984,-0.02769605815410614,-0.012649642303586006
1696965904922681900,6.815681884765625,-0.13222205638885498,-0.03408745676279068,-0.006258244160562754
1696965904932695800,6.82569580078125,-0.1300915777683258,-0.04047885537147522,-0.005193010903894901
1696965904942710000,6.8357099609375,-0.12796111404895782,-0.03089175745844841,0.021437814459204674
1696965904952724000,6.845723876953125,-0.13541774451732635,-0.01491326279938221,-0.037150003015995026
1696965904962738200,6.85573828125,-0.13222205638885498,-0.02663082629442215,0.021437814459204674
1696965904972752100,6.865752197265625,-0.13328728079795837,-0.0010652330238372087,-0.013714875094592571
1696965904982766000,6.87576611328125,-0.1300915777683258,-0.03302222490310669,0.0011983871227130294
1696965904992780300,6.8857802734375,-0.13435252010822296,0.0031956990715116262,-0.011584409512579441
1696965905002794200,6.895794189453125,-0.13648298382759094,-0.01171756349503994,-0.008388710208237171
1696965905012808400,6.905808349609375,-0.1311568170785904,-0.01171756349503994,0.0011983871227130294
1696965905022822400,6.915822509765625,-0.1311568170785904,-0.03728315606713295,-0.001997311832383275
1696965905032836600,6.925836669921875,-0.13435252010822296,0.01810896210372448,-0.020106272771954536
1696965905042850600,6.9358505859375,-0.13222205638885498,-0.0426093190908432,0.013981183059513569
1696965905052864500,6.945864501953125,-0.12689588963985443,-0.012782796286046505,-0.008388710208237171
1696965905062878700,6.955878662109375,-0.13435252010822296,-0.01917419396340847,-0.014780107885599136
1696965905072892700,6.965892578125,-0.13328728079795837,-0.02236989326775074,-0.001997311832383275
1696965905082907000,6.975906982421875,-0.1290263533592224,-0.01917419396340847,-0.010519175790250301
1696965905092920800,6.9859208984375,-0.1300915777683258,-0.03834838792681694,-0.010519175790250301
1696965905102935000,6.99593505859375,-0.13328728079795837,-0.02450035884976387,-0.015845341607928276
1696965905112949200,7.00594921875,-0.13328728079795837,0,-0.020106272771954536
1696965905122963200,7.015963134765625,-0.12583065032958984,-0.05645735189318657,0.005459319334477186
1696965905132977400,7.025977294921875,-0.1311568170785904,-0.007456631399691105,-0.05312849581241608
1696965905142991600,7.03599169921875,-0.1311568170785904,-0.012782796286046505,0.009720250964164734
1696965905153005600,7.046005615234375,-0.12476541846990585,-0.02450035884976387,-0.014780107885599136
1696965905163019800,7.056019775390625,-0.12476541846990585,-0.00852186419069767,-0.023301972076296806
1696965905173033700,7.06603369140625,-0.1290263533592224,0.004260932095348835,-0.006258244160562754
1696965905183048000,7.0760478515625,-0.12689588963985443,0.0106523297727108,-0.027562905102968216
1696965905193062100,7.086062255859375,-0.1205044835805893,0.0021304660476744175,0.005459319334477186
1696965905203076000,7.096076171875,-0.12370018661022186,0.01491326279938221,-0.029693370684981346
1696965905213090300,7.10609033203125,-0.12476541846990585,0.03089175745844841,-0.016910573467612267
1696965905223104500,7.1161044921875,-0.11624355614185333,0.009587096981704235,0.0011983871227130294
1696965905233118500,7.126118408203125,-0.11730878800153732,0.00852186419069767,-0.025432437658309937
1696965905243132700,7.136132568359375,-0.11837401986122131,0.0213046595454216,-0.027562905102968216
1696965905253147000,7.14614697265625,-0.11517832428216934,0.0319569893181324,-0.010519175790250301
1696965905263160800,7.156160888671875,-0.10665645450353622,-0.02876129187643528,-0.005193010903894901
1696965905273175000,7.166175048828125,-0.10772168636322021,0.04154408723115921,-0.040345702320337296
1696965905283189000,7.17618896484375,-0.10665645450353622,-0.03089175745844841,0.019307348877191544
1696965905293203200,7.186203125,-0.10452599078416824,0.03515268862247467,-0.057389430701732635
1696965905303217400,7.196217529296875,-0.0981345921754837,-0.02343512699007988,0.026763979345560074
1696965905313231400,7.2062314453125,-0.10452599078416824,0.0106523297727108,-0.058454662561416626
1696965905323245600,7.21624560546875,-0.10133028775453568,0.02343512699007988,-0.0030625448562204838
1696965905333259800,7.226259765625,-0.09387365728616714,-0.02236989326775074,0.020372580736875534
1696965905343273700,7.236273681640625,-0.09493889659643173,0.02556559257209301,-0.055258963257074356
1696965905353288000,7.246287841796875,-0.0981345921754837,0.004260932095348835,0.012915950268507004
1696965905363302100,7.25630224609375,-0.09280842542648315,0.012782796286046505,-0.001997311832383275
1696965905373316000,7.266316162109375,-0.08961272984743118,-0.0021304660476744175,-0.007323476951569319
1696965905383330300,7.276330322265625,-0.09387365728616714,0.02023942768573761,-0.007323476951569319
1696965905393344300,7.28634423828125,-0.09280842542648315,-0.00852186419069767,-0.007323476951569319
1696965905403358500,7.2963583984375,-0.08322133123874664,-0.0053261648863554,0.016111649572849274
1696965905413372700,7.30637255859375,-0.0874822586774826,-0.01491326279938221,-0.015845341607928276
1696965905423386600,7.31638671875,-0.08961272984743118,-0.0031956990715116262,-0.006258244160562754
1696965905433400800,7.32640087890625,-0.08428656309843063,-0.02450035884976387,0.019307348877191544
1696965905443415000,7.3364150390625,-0.08322133123874664,-0.02876129187643528,-0.011584409512579441
1696965905453429000,7.346428955078125,-0.08428656309843063,-0.02023942768573761,-0.004127778112888336
1696965905463443200,7.356443115234375,-0.08854749798774719,-0.03089175745844841,-0.0030625448562204838
1696965905473457400,7.36645751953125,-0.08322133123874664,-0.02556559257209301,0.013981183059513569
1696965905483471400,7.376471435546875,-0.08322133123874664,-0.05858781561255455,0.00226362026296556
1696965905493485600,7.386485595703125,-0.08854749798774719,0.004260932095348835,-0.014780107885599136
1696965905503499500,7.39649951171875,-0.0874822586774826,-0.03728315606713295,0.022503048181533813
1696965905513513700,7.406513671875,-0.08641702681779861,-0.0159784946590662,-0.001997311832383275
1696965905523528000,7.41652783203125,-0.08961272984743118,-0.0053261648863554,-0.005193010903894901
1696965905533542000,7.4265419921875,-0.09174319356679916,-0.009587096981704235,0.007589785382151604
1696965905543556000,7.43655615234375,-0.09067796170711517,0.004260932095348835,0.00226362026296556
1696965905553570300,7.4465703125,-0.0874822586774826,-0.02663082629442215,0.019307348877191544
1696965905563584300,7.456584228515625,-0.09174319356679916,0.02023942768573761,-0.004127778112888336
1696965905573598500,7.466598388671875,-0.09387365728616714,-0.0106523297727108,-0.006258244160562754
1696965905583612700,7.47661279296875,-0.0874822586774826,0.0010652330238372087,0.025698747485876083
1696965905593626600,7.486626708984375,-0.08854749798774719,-0.01171756349503994,0.0011983871227130294
1696965905603640800,7.496640869140625,-0.09067796170711517,-0.007456631399691105,0.0001331541279796511
1696965905613654800,7.50665478515625,-0.08641702681779861,0.0010652330238372087,0.016111649572849274
1696965905623669000,7.5166689453125,-0.08109086751937866,-0.0319569893181324,0.013981183059513569
1696965905633683200,7.52668310546875,-0.08428656309843063,-0.02663082629442215,0.0033288532868027687
1696965905643697200,7.536697265625,-0.08641702681779861,0.007456631399691105,-0.0030625448562204838
1696965905653711400,7.54671142578125,-0.08109086751937866,-0.03621792420744896,0.043807707726955414
1696965905663725600,7.5567255859375,-0.0778951644897461,-0.0053261648863554,-0.007323476951569319
1696965905673739500,7.566739501953125,-0.08215609937906265,-0.01491326279938221,0.018242115154862404
1696965905683753700,7.576753662109375,-0.08322133123874664,0.01810896210372448,0.013981183059513569
1696965905693768000,7.586767822265625,-0.07576470077037811,-0.02769605815410614,0.03528584539890289
1696965905703782000,7.596781982421875,-0.0778951644897461,0.01704372838139534,-0.001997311832383275
1696965905713796000,7.606796142578125,-0.07896039634943008,0.01810896210372448,0.031024912372231483
1696965905723810000,7.61681005859375,-0.07576470077037811,-0.02023942768573761,0.019307348877191544
1696965905733824300,7.62682421875,-0.07363422960042953,0.04687025398015976,-0.001997311832383275
1696965905743838500,7.63683837890625,-0.06830807030200958,-0.04687025398015976,0.067242830991745
1696965905753852400,7.646852294921875,-0.08002562820911407,0.07030537724494934,-0.057389430701732635
1696965905763866600,7.65686669921875,-0.06404713541269302,-0.03408745676279068,0.07896039634943008
1696965905773880800,7.666880859375,-0.06404713541269302,-0.01171756349503994,0.006524552125483751
1696965905783894800,7.676894775390625,-0.06830807030200958,0.04473978653550148,-0.026497671380639076
1696965905793909000,7.686908935546875,-0.06298190355300903,-0.05432688444852829,0.07043853402137756
1696965905803923000,7.6969228515625,-0.060851436108350754,0.03621792420744896,-0.033954303711652756
1696965905813937200,7.706937255859375,-0.05978620424866676,-0.05965305119752884,0.05659050494432449
1696965905823951400,7.716951416015625,-0.06511236727237701,0.02876129187643528,-0.028628136962652206
1696965905833965300,7.72696533203125,-0.05978620424866676,-0.04473978653550148,0.047003407031297684
1696965905843979500,7.7369794921875,-0.058720968663692474,0.009587096981704235,-0.007323476951569319
1696965905853993700,7.74699365234375,-0.060851436108350754,-0.0319569893181324,0.009720250964164734
1696965905864007700,7.757007568359375,-0.06298190355300903,0.01171756349503994,0.007589785382151604
1696965905874022000,7.76702197265625,-0.061916667968034744,0.0063913981430232525,-0.004127778112888336
1696965905884036000,7.7770361328125,-0.05659050494432449,-0.03089175745844841,0.027829213067889214
1696965905894050000,7.787050048828125,-0.061916667968034744,0.01491326279938221,-0.025432437658309937
1696965905904064300,7.797064208984375,-0.060851436108350754,0.0021304660476744175,-0.005193010903894901
1696965905914078200,7.807078125,-0.054460037499666214,-0.02982652559876442,0.018242115154862404
1696965905924092400,7.817092529296875,-0.05659050494432449,-0.0021304660476744175,-0.022236740216612816
1696965905934106600,7.827106689453125,-0.058720968663692474,-0.01917419396340847,-0.012649642303586006
1696965905944120600,7.83712060546875,-0.05659050494432449,-0.0010652330238372087,-0.009453942999243736
1696965905954134800,7.847134765625,-0.050199106335639954,-0.04473978653550148,0.018242115154862404
1696965905964149000,7.85714892578125,-0.0555252730846405,0.0031956990715116262,-0.040345702320337296
1696965905974163000,7.867162841796875,-0.0555252730846405,-0.01917419396340847,0.013981183059513569
1696965905984177200,7.87717724609375,-0.050199106335639954,-0.02023942768573761,0.004394086077809334
1696965905994191400,7.88719140625,-0.053394805639982224,-0.009587096981704235,-0.010519175790250301
1696965906004205300,7.897205322265625,-0.05659050494432449,-0.0021304660476744175,0.00226362026296556
1696965906014219500,7.907219482421875,-0.05659050494432449,-0.004260932095348835,-0.001997311832383275
1696965906024233500,7.9172333984375,-0.050199106335639954,-0.01491326279938221,0.027829213067889214
1696965906034247700,7.92724755859375,-0.053394805639982224,-0.0106523297727108,-0.0030625448562204838
1696965906044262000,7.937261962890625,-0.05978620424866676,0.009587096981704235,0.0033288532868027687
1696965906054275800,7.94727587890625,-0.053394805639982224,-0.007456631399691105,0.03528584539890289
1696965906064290000,7.9572900390625,-0.051264338195323944,-0.02236989326775074,0.0033288532868027687
1696965906074304300,7.96730419921875,-0.057655736804008484,0.012782796286046505,0.005459319334477186
1696965906084318200,7.977318115234375,-0.061916667968034744,0.0010652330238372087,0.021437814459204674
1696965906094332400,7.98733251953125,-0.05232957378029823,-0.0063913981430232525,0.017176883295178413
1696965906104346600,7.9973466796875,-0.05659050494432449,-0.0031956990715116262,0.019307348877191544
1696965906114360600,8.007360595703124,-0.060851436108350754,0.004260932095348835,0.007589785382151604
1696965906124374800,8.017374755859375,-0.06298190355300903,0.01704372838139534,-0.001997311832383275
1696965906134388700,8.027388671875,-0.053394805639982224,-0.02876129187643528,0.050199106335639954
1696965906144403000,8.03740283203125,-0.060851436108350754,0.02769605815410614,-0.027562905102968216
1696965906154417200,8.047417236328124,-0.06298190355300903,-0.009587096981704235,0.024633513763546944
1696965906164431000,8.05743115234375,-0.058720968663692474,0.01171756349503994,0.015046416781842709
1696965906174445300,8.0674453125,-0.057655736804008484,-0.009587096981704235,0.0001331541279796511
1696965906184459500,8.07745947265625,-0.06298190355300903,0.01917419396340847,-0.001997311832383275
1696965906194473500,8.087473388671874,-0.058720968663692474,-0.01917419396340847,0.021437814459204674
1696965906204487700,8.09748779296875,-0.060851436108350754,0.01491326279938221,-0.010519175790250301
1696965906214502000,8.107501953125,-0.057655736804008484,-0.01704372838139534,0.017176883295178413
1696965906224515800,8.117515869140625,-0.060851436108350754,0.00852186419069767,-0.007323476951569319
1696965906234530000,8.127530029296874,-0.060851436108350754,0.007456631399691105,-0.012649642303586006
1696965906244544000,8.1375439453125,-0.053394805639982224,-0.01491326279938221,0.03528584539890289
1696965906254558200,8.14755810546875,-0.058720968663692474,-0.01171756349503994,-0.020106272771954536
1696965906264572400,8.157572509765625,-0.05978620424866676,0.02236989326775074,0.0001331541279796511
1696965906274586400,8.16758642578125,-0.053394805639982224,-0.03941362351179123,0.034220609813928604
1696965906284600600,8.1776005859375,-0.054460037499666214,0.01917419396340847,-0.025432437658309937
1696965906294614800,8.18761474609375,-0.054460037499666214,-0.03515268862247467,0.041677240282297134
1696965906304628700,8.197628662109375,-0.057655736804008484,0.02343512699007988,-0.03608476743102074
1696965906314643000,8.207642822265624,-0.04913387447595596,-0.02769605815410614,0.05659050494432449
1696965906324657000,8.217656982421875,-0.05232957378029823,-0.03302222490310669,0.007589785382151604
1696965906334671000,8.227671142578124,-0.058720968663692474,0.05113118514418602,-0.03608476743102074
1696965906344685000,8.23768505859375,-0.050199106335639954,-0.07350108027458191,0.08322133123874664
1696965906354699000,8.247698974609374,-0.053394805639982224,0.03941362351179123,-0.042476166039705276
1696965906364713200,8.257713134765625,-0.05232957378029823,-0.04473978653550148,0.043807707726955414
1696965906374727200,8.26772705078125,-0.05659050494432449,0.01491326279938221,-0.004127778112888336
1696965906384741400,8.277741455078125,-0.050199106335639954,-0.01384802907705307,0.021437814459204674
1696965906394755300,8.28775537109375,-0.04913387447595596,-0.04047885537147522,0.033155377954244614
1696965906404769500,8.29776953125,-0.05659050494432449,0.02769605815410614,-0.030758604407310486
1696965906414783500,8.307783447265624,-0.05232957378029823,-0.03408745676279068,0.044872939586639404
1696965906424797400,8.31779736328125,-0.051264338195323944,-0.0031956990715116262,0.0001331541279796511
1696965906434811600,8.327811767578124,-0.054460037499666214,0.007456631399691105,-0.008388710208237171
1696965906444825600,8.33782568359375,-0.053394805639982224,-0.01810896210372448,0.036351077258586884
1696965906454839800,8.34783984375,-0.054460037499666214,0.02343512699007988,-0.021171506494283676
1696965906464853800,8.357853759765625,-0.054460037499666214,-0.0010652330238372087,0.012915950268507004
1696965906474868000,8.367867919921874,-0.05659050494432449,0.0213046595454216,-0.008388710208237171
1696965906484882000,8.3778818359375,-0.0555252730846405,0.01810896210372448,-0.011584409512579441
1696965906494895900,8.387895751953126,-0.053394805639982224,-0.007456631399691105,0.017176883295178413
1696965906504910000,8.39791015625,-0.05659050494432449,0.03621792420744896,-0.038215234875679016
1696965906514924000,8.407924072265626,-0.054460037499666214,-0.012782796286046505,0.009720250964164734
1696965906524938200,8.417938232421875,-0.051264338195323944,0.0159784946590662,-0.021171506494283676
1696965906534952200,8.4279521484375,-0.050199106335639954,-0.0319569893181324,0.0011983871227130294
1696965906544966400,8.43796630859375,-0.05659050494432449,0.01704372838139534,-0.030758604407310486
1696965906554980400,8.44798046875,-0.051264338195323944,-0.03302222490310669,0.006524552125483751
1696965906564994300,8.457994384765625,-0.04593817517161369,-0.02769605815410614,0.008655018173158169
1696965906575008500,8.468008544921876,-0.054460037499666214,-0.0159784946590662,-0.027562905102968216
1696965906585022500,8.4780224609375,-0.05659050494432449,-0.0031956990715116262,0.004394086077809334
1696965906595036700,8.48803662109375,-0.047003407031297684,-0.05752258375287056,0.03528584539890289
1696965906605050600,8.498050537109375,-0.0555252730846405,0.00852186419069767,-0.029693370684981346
1696965906615064800,8.50806494140625,-0.058720968663692474,-0.0532616525888443,0.033155377954244614
1696965906625078800,8.518078857421875,-0.050199106335639954,0.0031956990715116262,0.013981183059513569
1696965906635092700,8.5280927734375,-0.05232957378029823,-0.0639139786362648,0.022503048181533813
1696965906645107000,8.53810693359375,-0.060851436108350754,0.0106523297727108,-0.008388710208237171
1696965906655121200,8.54812109375,-0.051264338195323944,-0.05113118514418602,0.06937330216169357
1696965906665135000,8.558135009765625,-0.05232957378029823,-0.03728315606713295,0.015046416781842709
1696965906675149300,8.5681494140625,-0.05978620424866676,-0.0031956990715116262,0.0033288532868027687
1696965906685163300,8.578163330078125,-0.053394805639982224,-0.04687025398015976,0.07896039634943008
1696965906695177500,8.588177490234376,-0.054460037499666214,-0.01491326279938221,0.007589785382151604
1696965906705191700,8.598191650390625,-0.05659050494432449,-0.009587096981704235,0.03954677656292915
1696965906715205600,8.60820556640625,-0.0555252730846405,-0.02663082629442215,0.041677240282297134
1696965906725219800,8.6182197265625,-0.05232957378029823,-0.01704372838139534,0.041677240282297134
1696965906735234000,8.628234130859376,-0.057655736804008484,-0.0021304660476744175,0.019307348877191544
1696965906745248000,8.638248046875,-0.054460037499666214,-0.02663082629442215,0.026763979345560074
1696965906755262200,8.64826220703125,-0.051264338195323944,-0.012782796286046505,0.047003407031297684
1696965906765276400,8.6582763671875,-0.057655736804008484,0.0010652330238372087,-0.016910573467612267
1696965906775290400,8.668290283203126,-0.054460037499666214,-0.0213046595454216,0.036351077258586884
1696965906785304600,8.6783046875,-0.051264338195323944,-0.012782796286046505,0.023568280041217804
1696965906795318500,8.688318603515626,-0.054460037499666214,0.0063913981430232525,-0.019041040912270546
1696965906805332700,8.698332763671875,-0.05232957378029823,-0.01384802907705307,0.03209014609456062
1696965906815347000,8.708346923828126,-0.051264338195323944,-0.0159784946590662,0.0033288532868027687
1696965906825361000,8.71836083984375,-0.0555252730846405,0.02343512699007988,-0.016910573467612267
1696965906835375000,8.728375,-0.05232957378029823,-0.01704372838139534,0.028894444927573204
1696965906845389300,8.738389404296875,-0.051264338195323944,-0.0063913981430232525,-0.007323476951569319
1696965906855403300,8.7484033203125,-0.051264338195323944,0.0213046595454216,0.012915950268507004
1696965906865417500,8.75841748046875,-0.054460037499666214,-0.0159784946590662,-0.0030625448562204838
1696965906875431700,8.768431640625,-0.047003407031297684,0.0106523297727108,0.021437814459204674
1696965906885445600,8.778445556640625,-0.04913387447595596,-0.0213046595454216,0.024633513763546944
1696965906895459800,8.7884599609375,-0.057655736804008484,0.04367455467581749,-0.031823836266994476
1696965906905473800,8.798473876953125,-0.043807707726955414,-0.04154408723115921,0.07576470077037811
1696965906915488000,8.808488037109376,-0.04913387447595596,0.009587096981704235,-0.014780107885599136
1696965906925502200,8.818502197265625,-0.054460037499666214,0.01171756349503994,0.011850717477500439
1696965906935516200,8.82851611328125,-0.04274247586727142,-0.03515268862247467,0.06298190355300903
1696965906945530400,8.8385302734375,-0.048068638890981674,0.009587096981704235,-0.007323476951569319
1696965906955544600,8.848544677734376,-0.054460037499666214,-0.007456631399691105,0.024633513763546944
1696965906965558500,8.85855859375,-0.043807707726955414,-0.007456631399691105,0.034220609813928604
1696965906975572700,8.86857275390625,-0.047003407031297684,-0.012782796286046505,0.021437814459204674
1696965906985587000,8.8785869140625,-0.050199106335639954,0.0031956990715116262,0.013981183059513569
1696965906995601000,8.888600830078126,-0.041677240282297134,-0.02343512699007988,0.04274247586727142
1696965907005615000,8.898614990234375,-0.04274247586727142,-0.007456631399691105,0.019307348877191544
1696965907015629000,8.908629150390626,-0.04593817517161369,0.0021304660476744175,0.010785484686493874
1696965907025643300,8.918643310546875,-0.03848154470324516,-0.01810896210372448,0.041677240282297134
1696965907035657500,8.928657470703126,-0.04274247586727142,0.01917419396340847,0.016111649572849274
1696965907045671400,8.93867138671875,-0.043807707726955414,-0.0053261648863554,0.027829213067889214
1696965907055685600,8.948685546875,-0.036351077258586884,0.01704372838139534,0.021437814459204674
1696965907065699800,8.958699951171875,-0.036351077258586884,-0.01491326279938221,0.047003407031297684
1696965907075713800,8.9687138671875,-0.041677240282297134,0.04367455467581749,-0.012649642303586006
1696965907085728000,8.97872802734375,-0.03209014609456062,-0.02556559257209301,0.048068638890981674
1696965907095742000,8.988741943359376,-0.033155377954244614,0.012782796286046505,0.006524552125483751
1696965907105756200,8.998756103515625,-0.03528584539890289,-0.0031956990715116262,0.012915950268507004
1696965907115770400,9.008770263671876,-0.023568280041217804,-0.0319569893181324,0.044872939586639404
1696965907125784300,9.018784423828125,-0.027829213067889214,-0.01171756349503994,-0.001997311832383275
1696965907135798500,9.028798583984376,-0.031024912372231483,-0.0159784946590662,0.00226362026296556
1696965907145812700,9.038812744140625,-0.019307348877191544,-0.04793548583984375,0.03954677656292915
1696965907155826700,9.04882666015625,-0.025698747485876083,-0.02236989326775074,-0.010519175790250301
1696965907165841000,9.0588408203125,-0.029959678649902344,-0.01491326279938221,0.00226362026296556
1696965907175855000,9.068855224609376,-0.017176883295178413,-0.06178351491689682,0.057655736804008484
1696965907185869000,9.078869140625,-0.026763979345560074,-0.0021304660476744175,-0.042476166039705276
1696965907195883300,9.08888330078125,-0.026763979345560074,-0.03941362351179123,0.03954677656292915
1696965907205897200,9.098897216796875,-0.021437814459204674,-0.0159784946590662,0.00226362026296556
1696965907215911400,9.108911376953126,-0.025698747485876083,-0.0053261648863554,-0.0009320789249613881
1696965907225925600,9.118925537109375,-0.024633513763546944,-0.02769605815410614,0.028894444927573204
1696965907235939600,9.128939697265626,-0.023568280041217804,0.012782796286046505,0.00226362026296556
1696965907245953800,9.138953857421875,-0.025698747485876083,-0.0053261648863554,0.020372580736875534
1696965907255968000,9.148968017578126,-0.028894444927573204,0.0319569893181324,-0.008388710208237171
1696965907265982000,9.15898193359375,-0.022503048181533813,-0.0021304660476744175,0.04274247586727142
1696965907275996200,9.16899609375,-0.027829213067889214,0.04473978653550148,-0.011584409512579441
1696965907286010400,9.17901025390625,-0.026763979345560074,0.009587096981704235,0.034220609813928604
1696965907296024300,9.1890244140625,-0.021437814459204674,0.0213046595454216,0.015046416781842709
1696965907306038500,9.19903857421875,-0.022503048181533813,0.01704372838139534,0.029959678649902344
1696965907316052500,9.209052490234376,-0.025698747485876083,0.0063913981430232525,0.006524552125483751
1696965907326066700,9.219066650390625,-0.016111649572849274,0.01810896210372448,0.026763979345560074
1696965907336081000,9.229080810546876,-0.019307348877191544,-0.04154408723115921,0.04274247586727142
1696965907346094800,9.2390947265625,-0.021437814459204674,0.03621792420744896,-0.016910573467612267
1696965907356109000,9.249109130859376,-0.009720250964164734,-0.0639139786362648,0.08215609937906265
1696965907366123300,9.259123291015625,-0.015046416781842709,0.007456631399691105,-0.005193010903894901
1696965907376137200,9.26913720703125,-0.020372580736875534,-0.01810896210372448,0.024633513763546944
1696965907386151400,9.2791513671875,-0.009720250964164734,-0.01491326279938221,0.050199106335639954
1696965907396165600,9.28916552734375,-0.016111649572849274,-0.0063913981430232525,0.005459319334477186
1696965907406179600,9.2991796875,-0.020372580736875534,0.02023942768573761,0.023568280041217804
1696965907416193800,9.30919384765625,-0.012915950268507004,0.004260932095348835,0.051264338195323944
1696965907426207700,9.319207763671875,-0.017176883295178413,0.0010652330238372087,0.010785484686493874
1696965907436222000,9.329221923828126,-0.022503048181533813,0.08415340632200241,-0.005193010903894901
1696965907446236200,9.339236083984375,-0.010785484686493874,-0.03408745676279068,0.07043853402137756
1696965907456250000,9.34925,-0.019307348877191544,0.07882724702358246,-0.03928046673536301
1696965907466264300,9.359264404296875,-0.018242115154862404,0.02663082629442215,0.037416309118270874
1696965907476278500,9.369278564453126,-0.009720250964164734,-0.0106523297727108,0.03209014609456062
1696965907486292500,9.37929248046875,-0.015046416781842709,0.06924014538526535,-0.035019535571336746
1696965907496306700,9.389306640625,-0.015046416781842709,-0.02450035884976387,0.041677240282297134
1696965907506321000,9.39932080078125,-0.009720250964164734,0.02236989326775074,-0.020106272771954536
1696965907516334800,9.4093349609375,-0.007589785382151604,-0.02236989326775074,0.018242115154862404
1696965907526349000,9.41934912109375,-0.012915950268507004,-0.01917419396340847,-0.009453942999243736
1696965907536363000,9.429363037109376,-0.004394086077809334,-0.01491326279938221,0.0011983871227130294
1696965907546377200,9.439377197265625,-0.0033288532868027687,-0.07030537724494934,0.03954677656292915
1696965907556391200,9.44939111328125,-0.011850717477500439,0.0031956990715116262,-0.052063263952732086
1696965907566405400,9.4594052734375,-0.00226362026296556,-0.05432688444852829,0.05232957378029823
1696965907576419300,9.46941943359375,-0.0033288532868027687,-0.05539211630821228,0.017176883295178413
1696965907586433500,9.47943359375,-0.015046416781842709,0.02982652559876442,-0.044606633484363556
1696965907596447500,9.489447509765625,-0.0011983871227130294,-0.08095771074295044,0.10133028775453568
1696965907606461400,9.49946142578125,-0.007589785382151604,0.01171756349503994,-0.033954303711652756
1696965907616475600,9.5094755859375,-0.015046416781842709,0.0053261648863554,0.019307348877191544
1696965907626489600,9.519489501953124,-0.004394086077809334,-0.0319569893181324,0.053394805639982224
1696965907636503800,9.52950390625,-0.005459319334477186,0.01704372838139534,-0.001997311832383275
1696965907646517800,9.539517822265625,-0.009720250964164734,-0.00852186419069767,0.03209014609456062
1696965907656532000,9.549531982421875,-0.0001331541279796511,-0.02023942768573761,0.036351077258586884
1696965907666546000,9.5595458984375,-0.00226362026296556,-0.0063913981430232525,0.012915950268507004
1696965907676560000,9.569559814453125,-0.006524552125483751,-0.004260932095348835,0.009720250964164734
1696965907686574000,9.579573974609374,0.001997311832383275,-0.02023942768573761,0.029959678649902344
1696965907696588000,9.589588134765625,0.004127778112888336,-0.02343512699007988,0.018242115154862404
1696965907706602200,9.599602294921874,-0.00226362026296556,-0.01810896210372448,-0.0009320789249613881
1696965907716616200,9.6096162109375,0.006258244160562754,-0.009587096981704235,0.020372580736875534
1696965907726630400,9.61963037109375,0.008388710208237171,-0.06284874677658081,0.033155377954244614
1696965907736644400,9.629644287109375,-0.0011983871227130294,0.02663082629442215,-0.035019535571336746
1696965907746658600,9.639658447265624,0.005193010903894901,-0.05113118514418602,0.037416309118270874
1696965907756672500,9.649672607421875,0.008388710208237171,-0.009587096981704235,0.011850717477500439
1696965907766686500,9.6596865234375,-0.0011983871227130294,-0.0106523297727108,-0.015845341607928276
1696965907776700700,9.66970068359375,0.006258244160562754,-0.02769605815410614,0.03954677656292915
1696965907786714600,9.679714599609374,0.008388710208237171,-0.02876129187643528,0.015046416781842709
1696965907796728800,9.689728759765625,-0.00226362026296556,0.0159784946590662,-0.019041040912270546
1696965907806742800,9.69974267578125,0.001997311832383275,-0.03515268862247467,0.043807707726955414
1696965907816757000,9.709757080078125,0.005193010903894901,-0.004260932095348835,0.009720250964164734
1696965907826771000,9.71977099609375,-0.0033288532868027687,0.0010652330238372087,0.006524552125483751
1696965907836785000,9.729784912109375,-0.0011983871227130294,-0.0213046595454216,0.026763979345560074
1696965907846799000,9.739799072265624,0.0030625448562204838,-0.01491326279938221,0.040612008422613144
1696965907856813000,9.74981298828125,-0.006524552125483751,0.0063913981430232525,-0.0030625448562204838
1696965907866827300,9.7598271484375,-0.006524552125483751,-0.00852186419069767,0.026763979345560074
1696965907876841200,9.76984130859375,0.0009320789249613881,-0.03834838792681694,0.061916667968034744
1696965907886855400,9.77985546875,-0.011850717477500439,0.01917419396340847,-0.014780107885599136
1696965907896869600,9.78986962890625,-0.008655018173158169,-0.03089175745844841,0.051264338195323944
1696965907906883600,9.799883544921874,-0.0001331541279796511,-0.012782796286046505,0.040612008422613144
1696965907916897800,9.809897705078125,-0.010785484686493874,-0.01810896210372448,0.012915950268507004
1696965907926912000,9.819912109375,-0.010785484686493874,0.02343512699007988,0.021437814459204674
1696965907936926000,9.829926025390625,-0.004394086077809334,-0.02343512699007988,0.054460037499666214
1696965907946940200,9.839940185546874,-0.011850717477500439,0.01917419396340847,0.00226362026296556
1696965907956954000,9.8499541015625,-0.015046416781842709,0.02556559257209301,0.024633513763546944
1696965907966968300,9.85996826171875,-0.005459319334477186,-0.012782796286046505,0.05659050494432449
1696965907976982500,9.869982421875,-0.010785484686493874,0.03515268862247467,-0.009453942999243736
1696965907986996500,9.87999658203125,-0.012915950268507004,0.02343512699007988,0.022503048181533813
1696965907997010700,9.8900107421875,-0.005459319334477186,-0.0106523297727108,0.04274247586727142
1696965908007025000,9.90002490234375,-0.007589785382151604,0.0159784946590662,-0.0030625448562204838
1696965908017038800,9.910038818359375,-0.008655018173158169,-0.0031956990715116262,0.023568280041217804
1696965908027053000,9.920052978515624,-0.004394086077809334,-0.0159784946590662,0.021437814459204674
1696965908037067000,9.93006689453125,-0.0033288532868027687,-0.0031956990715116262,0.012915950268507004
1696965908047081200,9.940081298828124,-0.004394086077809334,-0.01491326279938221,0.006524552125483751
1696965908057095400,9.950095458984375,-0.0033288532868027687,-0.01171756349503994,0.011850717477500439
1696965908067109400,9.960109375,-0.00226362026296556,-0.01704372838139534,0.025698747485876083
1696965908077123600,9.97012353515625,-0.006524552125483751,0.0053261648863554,-0.006258244160562754
1696965908087137800,9.9801376953125,-0.0033288532868027687,-0.01384802907705307,0.025698747485876083
1696965908097151700,9.99015185546875,-0.0033288532868027687,0.01384802907705307,0.015046416781842709
1696965908107166000,10.000166015625,-0.007589785382151604,0.02450035884976387,-0.0030625448562204838
1696965908117180200,10.01018017578125,-0.008655018173158169,0.03515268862247467,0.012915950268507004
1696965908127194000,10.020194091796874,-0.005459319334477186,0.02556559257209301,0.031024912372231483
1696965908137208300,10.030208251953125,-0.008655018173158169,0.05752258375287056,-0.012649642303586006
1696965908147222300,10.04022216796875,-0.009720250964164734,0.05432688444852829,0.009720250964164734
1696965908157236500,10.050236572265625,-0.005459319334477186,0.04793548583984375,0.028894444927573204
1696965908167250700,10.060250732421874,-0.009720250964164734,0.07776200771331787,-0.020106272771954536
1696965908177264600,10.0702646484375,-0.010785484686493874,0.03408745676279068,0.012915950268507004
1696965908187278800,10.08027880859375,0.001997311832383275,0.02450035884976387,0.03209014609456062
1696965908197293000,10.09029296875,-0.007589785382151604,-0.009587096981704235,0.008655018173158169
1696965908207307000,10.10030712890625,-0.013981183059513569,0.01384802907705307,0.0033288532868027687
1696965908217321200,10.1103212890625,-0.0011983871227130294,-0.0213046595454216,0.023568280041217804
1696965908227335400,10.12033544921875,-0.0011983871227130294,-0.07882724702358246,0.04913387447595596
1696965908237349400,10.130349365234375,-0.009720250964164734,0.02236989326775074,-0.027562905102968216
1696965908247363600,10.140363525390624,-0.00226362026296556,-0.11504516750574112,0.08002562820911407
1696965908257377500,10.15037744140625,-0.0001331541279796511,-0.01810896210372448,-0.005193010903894901
1696965908267391700,10.160391845703124,-0.0033288532868027687,-0.08734910935163498,0.03209014609456062
1696965908277406000,10.170406005859375,-0.005459319334477186,-0.012782796286046505,0.017176883295178413
1696965908287420000,10.180419921875,-0.009720250964164734,0.01171756349503994,-0.029693370684981346
1696965908297434000,10.19043408203125,-0.006524552125483751,-0.04900071769952774,0.034220609813928604
1696965908307448300,10.2004482421875,-0.006524552125483751,0.0063913981430232525,-0.015845341607928276
1696965908317462300,10.210462158203125,-0.009720250964164734,-0.07350108027458191,0.03954677656292915
1696965908327476500,10.2204765625,-0.018242115154862404,0.10545806586742401,-0.05632419511675835
1696965908337490700,10.23049072265625,-0.009720250964164734,-0.05858781561255455,0.061916667968034744
1696965908347504600,10.240504638671876,-0.007589785382151604,0.06178351491689682,-0.047802332788705826
1696965908357518800,10.250518798828125,-0.00226362026296556,0.06178351491689682,0.010785484686493874
1696965908367532800,10.26053271484375,-0.0011983871227130294,0.02450035884976387,0.05978620424866676
1696965908377547000,10.270547119140625,-0.0011983871227130294,0.11504516750574112,-0.0712374597787857
1696965908387561200,10.280561279296874,0.019041040912270546,0.0319569893181324,0.10665645450353622
1696965908397575200,10.2905751953125,0.020106272771954536,0.09374050796031952,-0.041410934180021286
1696965908407589400,10.30058935546875,-0.005459319334477186,0.11930610239505768,0.031024912372231483
1696965908417603600,10.310603515625,-0.006524552125483751,0.02343512699007988,0.008655018173158169
1696965908427617500,10.320617431640626,-0.00226362026296556,0.10332760214805603,-0.019041040912270546
1696965908437631700,10.3306318359375,-0.005459319334477186,-0.05645735189318657,0.05978620424866676
1696965908447646000,10.34064599609375,-0.009720250964164734,0.07882724702358246,-0.025432437658309937
1696965908457660000,10.350659912109375,0.009453942999243736,-0.10865376889705658,0.034220609813928604
1696965908467674000,10.360674072265626,0.007323476951569319,-0.00852186419069767,0.017176883295178413
1696965908477688000,10.37068798828125,-0.004394086077809334,-0.04900071769952774,0.020372580736875534
1696965908487702300,10.380702392578126,0.017975807189941406,-0.09906667470932007,0.04913387447595596
1696965908497716500,10.390716552734375,-0.005459319334477186,0.09800143539905548,-0.08082455396652222
1696965908507730400,10.40073046875,-0.017176883295178413,-0.0852186381816864,0.12796111404895782
1696965908517744600,10.41074462890625,-0.008655018173158169,0.0532616525888443,-0.017975807189941406
1696965908527758800,10.4207587890625,-0.008655018173158169,-0.04367455467581749,0.061916667968034744
1696965908537772800,10.430772705078125,-0.029959678649902344,0.09267527610063553,-0.009453942999243736
1696965908547787000,10.440787109375,-0.022503048181533813,-0.02343512699007988,0.061916667968034744
1696965908557801200,10.45080126953125,-0.020372580736875534,0.04793548583984375,-0.006258244160562754
1696965908567815200,10.460815185546876,-0.022503048181533813,-0.00852186419069767,0.016111649572849274
1696965908577829400,10.470829345703125,-0.020372580736875534,0.02982652559876442,0.017176883295178413
1696965908587843300,10.48084326171875,-0.018242115154862404,0.02982652559876442,0.007589785382151604
1696965908597857500,10.490857421875,-0.009720250964164734,-0.0159784946590662,0.04593817517161369
1696965908607871700,10.500871826171876,-0.013981183059513569,0.05752258375287056,-0.014780107885599136
1696965908617885700,10.5108857421875,-0.011850717477500439,0.02023942768573761,0.027829213067889214
1696965908627900000,10.52089990234375,-0.005459319334477186,0.012782796286046505,0.023568280041217804
1696965908637914000,10.5309140625,-0.011850717477500439,0.07669677585363388,-0.024367205798625946
1696965908647928000,10.540927978515626,-0.011850717477500439,0.01171756349503994,0.029959678649902344
1696965908657942300,10.5509423828125,-0.004394086077809334,0.03515268862247467,0.010785484686493874
1696965908667956200,10.560956298828126,-0.0033288532868027687,0.007456631399691105,-0.0030625448562204838
1696965908677970400,10.570970458984375,-0.005459319334477186,0.01810896210372448,0.0011983871227130294
1696965908687984600,10.580984619140626,0.0030625448562204838,-0.02450035884976387,0.025698747485876083
1696965908697998600,10.59099853515625,-0.0001331541279796511,0,-0.028628136962652206
1696965908708012500,10.601012451171876,-0.0011983871227130294,-0.02343512699007988,-0.008388710208237171
1696965908718026800,10.61102685546875,0.001997311832383275,-0.03621792420744896,0.0011983871227130294
1696965908728040700,10.621040771484376,0.004127778112888336,-0.03834838792681694,-0.016910573467612267
1696965908738055000,10.631054931640625,0.004127778112888336,-0.04793548583984375,-0.011584409512579441
1696965908748068900,10.64106884765625,0.0009320789249613881,-0.03728315606713295,-0.007323476951569319
1696965908758083000,10.6510830078125,0.0030625448562204838,-0.03302222490310669,-0.021171506494283676
1696965908768097000,10.661096923828126,0.0009320789249613881,-0.03834838792681694,-0.014780107885599136
1696965908778111000,10.671111083984375,-0.010785484686493874,0.0063913981430232525,-0.044606633484363556
1696965908788125200,10.681125244140626,-0.006524552125483751,-0.004260932095348835,-0.016910573467612267
1696965908798139100,10.69113916015625,-0.00226362026296556,-0.02876129187643528,-0.0030625448562204838
1696965908808153300,10.7011533203125,-0.011850717477500439,0.04047885537147522,-0.06804175674915314
1696965908818167300,10.711167236328125,-0.008655018173158169,-0.012782796286046505,0.010785484686493874
1696965908828181500,10.721181396484376,-0.008655018173158169,0.01384802907705307,-0.045671865344047546
1696965908838195500,10.731195556640625,-0.010785484686493874,0.01491326279938221,-0.04993279650807381
1696965908848209400,10.74120947265625,-0.011850717477500439,-0.02663082629442215,-0.008388710208237171
1696965908858223600,10.7512236328125,-0.008655018173158169,0.02236989326775074,-0.048867564648389816
1696965908868237600,10.761237548828126,-0.006524552125483751,-0.04580501839518547,-0.013714875094592571
1696965908878251800,10.771251708984375,-0.008655018173158169,-0.007456631399691105,-0.04993279650807381
1696965908888265700,10.781265625,-0.0033288532868027687,-0.0426093190908432,-0.011584409512579441
1696965908898280000,10.791280029296875,-0.0033288532868027687,-0.03941362351179123,-0.031823836266994476
1696965908908294000,10.8012939453125,-0.007589785382151604,-0.02023942768573761,-0.054193731397390366
1696965908918307800,10.811307861328125,-0.00226362026296556,-0.04793548583984375,-0.005193010903894901
1696965908928322000,10.821322021484375,0.0009320789249613881,-0.03621792420744896,-0.031823836266994476
1696965908938336000,10.8313359375,-0.00226362026296556,-0.03089175745844841,-0.035019535571336746
1696965908948350200,10.84135009765625,-0.0033288532868027687,-0.02556559257209301,-0.026497671380639076
1696965908958364200,10.8513642578125,0.0030625448562204838,-0.03515268862247467,-0.006258244160562754
1696965908968378400,10.86137841796875,0.001997311832383275,-0.02769605815410614,-0.041410934180021286
1696965908978392300,10.871392333984375,-0.00226362026296556,-0.04793548583984375,-0.029693370684981346
1696965908988406500,10.881406494140625,0.004127778112888336,-0.0159784946590662,-0.017975807189941406
1696965908998420500,10.89142041015625,0.005193010903894901,-0.05752258375287056,-0.023301972076296806
1696965909008434400,10.901434326171875,-0.0001331541279796511,-0.02450035884976387,-0.040345702320337296
1696965909018448600,10.91144873046875,0.004127778112888336,-0.02769605815410614,-0.012649642303586006
1696965909028462600,10.921462646484375,0.006258244160562754,-0.06071828305721283,-0.024367205798625946
1696965909038476800,10.931476806640624,0.005193010903894901,0.0106523297727108,-0.060585130006074905
1696965909048490800,10.94149072265625,0.006258244160562754,-0.04900071769952774,-0.008388710208237171
1696965909058505000,10.9515048828125,0.004127778112888336,0.03408745676279068,-0.06484606117010117
1696965909068519000,10.961518798828125,0.006258244160562754,-0.01917419396340847,-0.04673709720373154
1696965909078533000,10.971533203125,0.006258244160562754,0.0159784946590662,-0.0712374597787857
1696965909088547300,10.98154736328125,0.015845341607928276,-0.0319569893181324,-0.043541401624679565
1696965909098561300,10.991561279296874,0.017975807189941406,-0.04473978653550148,-0.035019535571336746
1696965909108575500,11.001575439453125,0.0030625448562204838,0.04687025398015976,-0.11171631515026093
1696965909118589700,11.011589599609374,0.014780107885599136,-0.12356702983379364,0.016111649572849274
1696965909128603600,11.021603759765625,-0.004394086077809334,0.03728315606713295,-0.10745538026094437
1696965909138617900,11.031617919921874,-0.004394086077809334,0.01384802907705307,-0.03608476743102074
1696965909148631800,11.0416318359375,0.011584409512579441,-0.07882724702358246,-0.006258244160562754
1696965909158646000,11.05164599609375,0.011584409512579441,0.06497921794652939,-0.03608476743102074
1696965909168660200,11.06166015625,0.012649642303586006,-0.01491326279938221,0.008655018173158169
1696965909178674200,11.071674072265624,0.016910573467612267,0.08841434121131897,-0.11917294561862946
1696965909188688400,11.0816884765625,0.048867564648389816,0.07882724702358246,0.018242115154862404
1696965909198702600,11.09170263671875,0.08615072071552277,0.12037133425474167,-0.047802332788705826
1696965909208716500,11.101716552734375,-0.004394086077809334,0.10545806586742401,0.021437814459204674
1696965909218730800,11.111730712890624,-0.0011983871227130294,0.05858781561255455,-0.024367205798625946
1696965909228745000,11.121744873046875,-0.012915950268507004,0.17895914614200592,-0.06378082931041718
1696965909238759000,11.131759033203124,-0.008655018173158169,0.05858781561255455,0.033155377954244614
1696965909248773000,11.141773193359375,-0.004394086077809334,0.03515268862247467,-0.04993279650807381
1696965909258787000,11.151787109375,-0.010785484686493874,0.09480573982000351,-0.027562905102968216
1696965909268801300,11.16180126953125,-0.00226362026296556,-0.05219641700387001,0.08322133123874664
1696965909278815500,11.1718154296875,-0.017176883295178413,0.09800143539905548,-0.11810771375894547
1696965909288829400,11.181829345703125,-0.029959678649902344,-0.0319569893181324,0.044872939586639404
1696965909298843600,11.19184375,-0.009720250964164734,0.03408745676279068,0.0033288532868027687
1696965909308857900,11.20185791015625,-0.011850717477500439,-0.007456631399691105,-0.05632419511675835
1696965909318871800,11.211871826171874,-0.025698747485876083,0.0639139786362648,0.033155377954244614
1696965909328886000,11.221885986328125,-0.018242115154862404,-0.02236989326775074,0.004394086077809334
1696965909338900200,11.231900146484374,-0.016111649572849274,-0.03302222490310669,-0.008388710208237171
1696965909348914200,11.2419140625,-0.034220609813928604,0.05113118514418602,-0.06591129302978516
1696965909358928400,11.251928466796874,-0.034220609813928604,-0.03302222490310669,0.06830807030200958
1696965909368942300,11.2619423828125,-0.051264338195323944,-0.0063913981430232525,-0.038215234875679016
1696965909378956500,11.27195654296875,-0.050199106335639954,-0.0053261648863554,-0.040345702320337296
1696965909388970800,11.281970703125,-0.017176883295178413,-0.11078423261642456,0.054460037499666214
1696965909398984700,11.291984619140624,-0.03209014609456062,0.03728315606713295,-0.0712374597787857
1696965909408999000,11.3019990234375,-0.019307348877191544,-0.10758853703737259,-0.022236740216612816
1696965909419013000,11.31201318359375,-0.009720250964164734,-0.06284874677658081,-0.059519894421100616
1696965909429027000,11.322027099609375,-0.010785484686493874,0.02343512699007988,-0.06378082931041718
1696965909439041300,11.332041259765624,0.004127778112888336,-0.08202294260263443,0.009720250964164734
1696965909449055500,11.342055419921875,0.010519175790250301,-0.02556559257209301,-0.1362166702747345
1696965909459069400,11.3520693359375,0.021171506494283676,-0.0053261648863554,-0.05312849581241608
1696965909469083600,11.362083740234375,0.016910573467612267,0.01810896210372448,-0.0936073511838913
1696965909479097600,11.37209765625,0.019041040912270546,0.02343512699007988,-0.0723026916384697
1696965909489111800,11.38211181640625,0.033954303711652756,0.07776200771331787,-0.11597724258899689
1696965909499126000,11.3921259765625,0.03608476743102074,0.07669677585363388,-0.055258963257074356
1696965909509140000,11.402139892578125,0.041410934180021286,0.06817491352558136,-0.048867564648389816
1696965909519154200,11.412154296875,0.038215234875679016,0.06497921794652939,-0.07443315535783768
1696965909529168400,11.42216845703125,0.024367205798625946,0.06284874677658081,-0.10639014840126038
1696965909539182300,11.432182373046874,0.031823836266994476,0.04047885537147522,-0.029693370684981346
1696965909549196500,11.442196533203125,0.048867564648389816,-0.08202294260263443,-0.03608476743102074
1696965909559210500,11.45221044921875,0.028628136962652206,0.0159784946590662,-0.12449911236763
1696965909569224700,11.462224609375,0.027562905102968216,-0.06604444980621338,-0.022236740216612816
1696965909579239000,11.472239013671874,0.025432437658309937,-0.06071828305721283,-0.0723026916384697
1696965909589252900,11.4822529296875,0.026497671380639076,-0.03728315606713295,-0.07549838721752167
1696965909599267000,11.49226708984375,0.008388710208237171,-0.02769605815410614,-0.044606633484363556
1696965909609281300,11.50228125,0.001997311832383275,-0.03941362351179123,-0.06484606117010117
1696965909619295200,11.512295166015624,-0.0033288532868027687,0.012782796286046505,-0.09999874979257584
1696965909629309400,11.522309326171875,-0.011850717477500439,0.0159784946590662,-0.04993279650807381
1696965909639323600,11.53232373046875,-0.019307348877191544,-0.004260932095348835,-0.03928046673536301
1696965909649337600,11.542337646484375,-0.026763979345560074,0.05645735189318657,-0.08402025699615479
1696965909659351800,11.552351806640624,-0.025698747485876083,-0.01384802907705307,-0.057389430701732635
1696965909669365800,11.56236572265625,-0.033155377954244614,0.09693620353937149,-0.058454662561416626
1696965909679380000,11.5723798828125,-0.029959678649902344,-0.01917419396340847,-0.026497671380639076
1696965909689394200,11.582394287109375,-0.033155377954244614,0.04900071769952774,-0.07975932210683823
1696965909699408100,11.592408203125,-0.029959678649902344,0.01810896210372448,-0.055258963257074356
1696965909709422300,11.60242236328125,-0.028894444927573204,0.08308817446231842,-0.044606633484363556
1696965909719436500,11.6124365234375,-0.023568280041217804,-0.012782796286046505,-0.005193010903894901
1696965909729450500,11.622450439453125,-0.025698747485876083,0.07030537724494934,-0.11171631515026093
1696965909739464700,11.632464599609374,-0.019307348877191544,0.04473978653550148,-0.024367205798625946
1696965909749479000,11.64247900390625,-0.010785484686493874,0.05432688444852829,-0.05312849581241608
1696965909759492900,11.652492919921874,-0.00226362026296556,-0.0106523297727108,-0.038215234875679016
1696965909769507000,11.662507080078125,-0.009720250964164734,0.05645735189318657,-0.07443315535783768
1696965909779521000,11.67252099609375,0.001997311832383275,0.009587096981704235,-0.012649642303586006
1696965909789535200,11.68253515625,0.012649642303586006,0.0063913981430232525,-0.037150003015995026
1696965909799549400,11.692549560546874,0.010519175790250301,0.01704372838139534,-0.059519894421100616
1696965909809563400,11.7025634765625,0.008388710208237171,0,-0.026497671380639076
1696965909819577600,11.71257763671875,0.017975807189941406,0.01491326279938221,-0.025432437658309937
1696965909829591600,11.722591552734375,0.016910573467612267,-0.01384802907705307,-0.033954303711652756
1696965909839605800,11.732605712890624,0.011584409512579441,0.01384802907705307,-0.044606633484363556
1696965909849619700,11.74261962890625,0.019041040912270546,-0.01704372838139534,0.0011983871227130294
1696965909859634000,11.752634033203124,0.016910573467612267,0.007456631399691105,-0.050998032093048096
1696965909869648000,11.76264794921875,0.011584409512579441,-0.0063913981430232525,-0.021171506494283676
1696965909879662000,11.772662109375,0.009453942999243736,0.007456631399691105,-0.041410934180021286
1696965909889676000,11.782676025390625,0.015845341607928276,-0.01704372838139534,0.004394086077809334
1696965909899690000,11.79268994140625,0.010519175790250301,-0.0031956990715116262,-0.043541401624679565
1696965909909704200,11.8027041015625,0.007323476951569319,0.0106523297727108,-0.027562905102968216
1696965909919718100,11.81271826171875,0.011584409512579441,-0.02769605815410614,0.006524552125483751
1696965909929732400,11.822732421875,0.008388710208237171,0.04580501839518547,-0.07017222791910172
1696965909939746300,11.832746337890624,0.006258244160562754,-0.0319569893181324,0.008655018173158169
1696965909949760500,11.842760498046875,0.005193010903894901,0.03089175745844841,-0.031823836266994476
1696965909959774500,11.8527744140625,0.008388710208237171,-0.01917419396340847,-0.008388710208237171
1696965909969788400,11.862788330078125,0.006258244160562754,0.0063913981430232525,-0.03608476743102074
1696965909979802600,11.872802734375,0.005193010903894901,-0.01704372838139534,-0.017975807189941406
1696965909989816600,11.882816650390625,0.009453942999243736,0.0053261648863554,-0.020106272771954536
1696965909999830800,11.892830810546876,0.008388710208237171,-0.04473978653550148,-0.008388710208237171
1696965910009844700,11.9028447265625,-0.0001331541279796511,0.02236989326775074,-0.058454662561416626
1696965910019859000,11.91285888671875,0.008388710208237171,-0.02450035884976387,0.028894444927573204
1696965910029873000,11.922872802734375,0.009453942999243736,-0.03621792420744896,-0.033954303711652756
1696965910039886800,11.932886962890626,0.0009320789249613881,0.01704372838139534,-0.06271559745073318
1696965910049901000,11.942901123046875,0.006258244160562754,-0.03515268862247467,0.025698747485876083
1696965910059915000,11.9529150390625,0.008388710208237171,0.004260932095348835,-0.041410934180021286
1696965910069929200,11.96292919921875,0.005193010903894901,-0.01704372838139534,-0.019041040912270546
1696965910079943200,11.972943115234376,0.006258244160562754,-0.02556559257209301,-0.009453942999243736
1696965910089957400,11.982957275390625,0.009453942999243736,-0.0106523297727108,-0.016910573467612267
1696965910099971300,11.992971435546876,0.008388710208237171,-0.03834838792681694,-0.019041040912270546
1696965910109985500,12.002985595703125,0.005193010903894901,-0.0319569893181324,-0.03288906812667847
1696965910119999500,12.01299951171875,0.011584409512579441,-0.03621792420744896,0.0033288532868027687
1696965910130013400,12.023013427734375,0.012649642303586006,-0.06497921794652939,-0.008388710208237171
1696965910140027600,12.033027587890626,0.010519175790250301,-0.05006595328450203,-0.03288906812667847
1696965910150041600,12.04304150390625,0.012649642303586006,-0.02982652559876442,-0.011584409512579441
1696965910160055800,12.053055908203126,0.022236740216612816,-0.0852186381816864,0.036351077258586884
1696965910170069800,12.06306982421875,0.019041040912270546,-0.01704372838139534,-0.048867564648389816
1696965910180084000,12.073083984375,0.019041040912270546,-0.0213046595454216,0.029959678649902344
1696965910190098000,12.083097900390625,0.027562905102968216,-0.012782796286046505,0.04274247586727142
1696965910200112000,12.093112060546876,0.029693370684981346,0.02236989326775074,0.0033288532868027687
1696965910210126000,12.1031259765625,0.019041040912270546,-0.0031956990715116262,0.025698747485876083
