time,seconds_elapsed,z,y,x
1696961451080206300,0.163206298828125,-0.0011983871227130294,-0.05539211630821228,0.043807707726955414
1696961451090104300,0.173104248046875,-0.005459319334477186,0.0053261648863554,0.022503048181533813
1696961451100036000,0.1830361328125,0.004127778112888336,0.12356702983379364,-0.029693370684981346
1696961451110004000,0.19300390625,0.005193010903894901,0.15232832729816437,-0.044606633484363556
1696961451120007700,0.203007568359375,0.005193010903894901,0.1384802907705307,-0.029693370684981346
1696961451130047000,0.213046875,0.0009320789249613881,0.07776200771331787,-0.033954303711652756
1696961451140118500,0.223118408203125,-0.004394086077809334,0.06710968166589737,-0.024367205798625946
1696961451150219500,0.233219482421875,0.001997311832383275,0.10865376889705658,-0.035019535571336746
1696961451160344800,0.2433447265625,0.006258244160562754,0.12463226169347763,-0.033954303711652756
1696961451170488800,0.25348876953125,-0.005459319334477186,0.10758853703737259,-0.031823836266994476
1696961451180646100,0.263646240234375,-0.0011983871227130294,0.2130466103553772,-0.06910699605941772
1696961451190810000,0.27381005859375,0.016910573467612267,0.23648172616958618,-0.0829550251364708
1696961451200974300,0.283974365234375,0.010519175790250301,0.1501978635787964,-0.05632419511675835
1696961451210998800,0.293998779296875,-0.0033288532868027687,0.07882724702358246,-0.010519175790250301
1696961451221012200,0.30401220703125,0.004127778112888336,0.04687025398015976,-0.024367205798625946
1696961451231025700,0.314025634765625,0.010519175790250301,0.0426093190908432,-0.013714875094592571
1696961451241039000,0.3240390625,0.009453942999243736,0.01171756349503994,-0.011584409512579441
1696961451251052500,0.334052490234375,0.005193010903894901,0.00852186419069767,-0.009453942999243736
1696961451261066000,0.34406591796875,0.015845341607928276,-0.04473978653550148,0.029959678649902344
1696961451271079400,0.354079345703125,-0.0001331541279796511,-0.1278279572725296,0.048068638890981674
1696961451281092900,0.3640927734375,-0.0033288532868027687,-0.20985090732574463,0.09280842542648315
1696961451291106300,0.374106201171875,0.0030625448562204838,-0.2354165017604828,0.09067796170711517
1696961451301119700,0.38411962890625,0.004127778112888336,-0.2354165017604828,0.10026505589485168
1696961451311133200,0.39413330078125,0.001997311832383275,-0.21837277710437775,0.07896039634943008
1696961451321146600,0.404146728515625,0.0009320789249613881,-0.22689463198184967,0.08109086751937866
1696961451331160000,0.41416015625,0.007323476951569319,-0.1715025156736374,0.07469946891069412
1696961451341173500,0.424173583984375,0.0009320789249613881,-0.08415340632200241,0.03528584539890289
1696961451351187000,0.43418701171875,0.010519175790250301,-0.04154408723115921,0.031024912372231483
1696961451361200400,0.444200439453125,0.0030625448562204838,-0.02876129187643528,0.021437814459204674
1696961451371213800,0.4542138671875,0.0030625448562204838,-0.03515268862247467,0.03209014609456062
1696961451381227300,0.464227294921875,-0.0011983871227130294,-0.03728315606713295,0.020372580736875534
1696961451391240700,0.47424072265625,0.006258244160562754,-0.05113118514418602,0.033155377954244614
1696961451401254100,0.484254150390625,-0.0011983871227130294,0.004260932095348835,0.0001331541279796511
1696961451411267600,0.494267578125,0.005193010903894901,0.0852186381816864,-0.028628136962652206
1696961451421281000,0.504281005859375,0.008388710208237171,0.17469821870326996,-0.055258963257074356
1696961451431294500,0.51429443359375,0.013714875094592571,0.18535055220127106,-0.07017222791910172
1696961451441308000,0.524307861328125,0.008388710208237171,0.12995843589305878,-0.03288906812667847
1696961451451321300,0.5343212890625,0.008388710208237171,0.1288931965827942,-0.045671865344047546
1696961451461334800,0.544334716796875,0.006258244160562754,0.13102366030216217,-0.055258963257074356
1696961451471348200,0.55434814453125,0.011584409512579441,0.11184946447610855,-0.038215234875679016
1696961451481361700,0.564361572265625,0.012649642303586006,0.15339355170726776,-0.054193731397390366
1696961451491375000,0.574375,0.017975807189941406,0.11291470378637314,-0.045671865344047546
1696961451501388500,0.584388427734375,0.001997311832383275,0.04687025398015976,-0.022236740216612816
1696961451511402000,0.594402099609375,0.005193010903894901,-0.02556559257209301,0.005459319334477186
1696961451521415400,0.60441552734375,0.005193010903894901,-0.14380645751953125,0.026763979345560074
1696961451531428900,0.614428955078125,0.001997311832383275,-0.17576344311237335,0.04274247586727142
1696961451541442300,0.6244423828125,0.004127778112888336,-0.1704372763633728,0.03848154470324516
1696961451551455700,0.634455810546875,-0.0011983871227130294,-0.1597849577665329,0.026763979345560074
1696961451561469200,0.64446923828125,0.005193010903894901,-0.08095771074295044,0.005459319334477186
1696961451571482600,0.654482666015625,0.013714875094592571,-0.02236989326775074,-0.011584409512579441
1696961451581496000,0.66449609375,0.010519175790250301,0.0053261648863554,-0.004127778112888336
1696961451591509500,0.674509521484375,0.005193010903894901,0.01917419396340847,-0.040345702320337296
1696961451601523000,0.68452294921875,0.015845341607928276,0.05219641700387001,-0.03928046673536301
1696961451611536400,0.694536376953125,0.017975807189941406,0.04154408723115921,-0.030758604407310486
1696961451621550000,0.704550048828125,0.008388710208237171,0.08415340632200241,-0.050998032093048096
1696961451631563500,0.7145634765625,0.013714875094592571,0.06178351491689682,-0.033954303711652756
1696961451641577000,0.724576904296875,0.011584409512579441,0.07563154399394989,-0.045671865344047546
1696961451651590400,0.73459033203125,0.013714875094592571,0.11930610239505768,-0.05312849581241608
1696961451661603800,0.744603759765625,0.016910573467612267,0.04580501839518547,-0.024367205798625946
1696961451671617500,0.754617431640625,0.013714875094592571,0.02450035884976387,-0.024367205798625946
1696961451681631000,0.764630859375,0.009453942999243736,-0.01810896210372448,-0.008388710208237171
1696961451691644400,0.77464453125,0.015845341607928276,-0.009587096981704235,0.0033288532868027687
1696961451701657900,0.784657958984375,0.021171506494283676,-0.03728315606713295,0.009720250964164734
1696961451711671300,0.79467138671875,0.012649642303586006,-0.0106523297727108,-0.005193010903894901
1696961451721685000,0.80468505859375,0.024367205798625946,0.04793548583984375,-0.011584409512579441
1696961451731698400,0.814698486328125,0.026497671380639076,0.03515268862247467,-0.029693370684981346
1696961451741712000,0.8247119140625,0.020106272771954536,-0.0031956990715116262,0.005459319334477186
1696961451751725300,0.834725341796875,0.022236740216612816,-0.05858781561255455,0.034220609813928604
1696961451761738800,0.84473876953125,0.017975807189941406,-0.11184946447610855,0.03209014609456062
1696961451771752400,0.85475244140625,0.026497671380639076,-0.15339355170726776,0.066177599132061
1696961451781766000,0.864765869140625,0.015845341607928276,-0.18535055220127106,0.054460037499666214
1696961451791779300,0.874779296875,0.019041040912270546,-0.12356702983379364,0.06404713541269302
1696961451801792800,0.884792724609375,0.024367205798625946,-0.11824086308479309,0.04913387447595596
1696961451811806200,0.89480615234375,0.024367205798625946,-0.10971900075674057,0.053394805639982224
1696961451821820000,0.90481982421875,0.011584409512579441,-0.1384802907705307,0.044872939586639404
1696961451831833300,0.914833251953125,0.015845341607928276,-0.10226237028837204,0.058720968663692474
1696961451841846800,0.9248466796875,0.020106272771954536,-0.0639139786362648,0.043807707726955414
1696961451851860200,0.934860107421875,0.017975807189941406,-0.0053261648863554,0.006524552125483751
1696961451861873700,0.944873779296875,0.024367205798625946,0.04047885537147522,0.007589785382151604
1696961451871887000,0.95488720703125,0.017975807189941406,0.191741943359375,-0.055258963257074356
1696961451881900800,0.96490087890625,0.033954303711652756,0.2034595012664795,-0.06591129302978516
1696961451891914200,0.974914306640625,0.026497671380639076,0.1928071826696396,-0.06271559745073318
1696961451901927700,0.984927734375,0.020106272771954536,0.2226337045431137,-0.08508548885583878
1696961451911941000,0.994941162109375,0.03288906812667847,0.24180789291858673,-0.08721595257520676
1696961451921954600,1.00495458984375,0.041410934180021286,0.2897433936595917,-0.11171631515026093
1696961451931968300,1.01496826171875,0.027562905102968216,0.1608501821756363,-0.055258963257074356
1696961451941981700,1.024981689453125,0.030758604407310486,0.2119813710451126,-0.07656362652778625
1696961451951995100,1.0349951171875,0.035019535571336746,0.07882724702358246,-0.044606633484363556
1696961451962008600,1.045008544921875,0.030758604407310486,0.05006595328450203,-0.016910573467612267
1696961451972022000,1.05502197265625,0.020106272771954536,-0.09054480493068695,0.029959678649902344
1696961451982035700,1.06503564453125,0.03288906812667847,-0.14380645751953125,0.06404713541269302
1696961451992049200,1.075049072265625,0.026497671380639076,-0.16298064589500427,0.037416309118270874
1696961452002062600,1.0850625,0.027562905102968216,-0.24180789291858673,0.10239552706480026
1696961452012076000,1.095075927734375,0.024367205798625946,-0.20878566801548004,0.058720968663692474
1696961452022089500,1.10508935546875,0.026497671380639076,-0.18854624032974243,0.07469946891069412
1696961452032103200,1.115103271484375,0.024367205798625946,-0.12463226169347763,0.033155377954244614
1696961452042116600,1.12511669921875,0.029693370684981346,-0.14061075448989868,0.048068638890981674
1696961452052130000,1.135130126953125,0.023301972076296806,-0.06178351491689682,0.017176883295178413
1696961452062143500,1.1451435546875,0.020106272771954536,-0.05113118514418602,0.022503048181533813
1696961452072157000,1.155156982421875,0.033954303711652756,0.12250179797410965,-0.019041040912270546
1696961452082170600,1.165170654296875,0.029693370684981346,0.07882724702358246,-0.058454662561416626
1696961452092184000,1.17518408203125,0.029693370684981346,0.16724158823490143,-0.043541401624679565
1696961452102197500,1.185197509765625,0.027562905102968216,0.17789392173290253,-0.07336792349815369
1696961452112211000,1.1952109375,0.028628136962652206,0.14700216054916382,-0.030758604407310486
1696961452122224400,1.205224365234375,0.027562905102968216,0.18641577661037445,-0.043541401624679565
1696961452132238000,1.215238037109375,0.027562905102968216,0.10332760214805603,-0.019041040912270546
1696961452142251500,1.22525146484375,0.029693370684981346,0.1267627328634262,-0.009453942999243736
1696961452152265000,1.235264892578125,0.035019535571336746,-0.012782796286046505,0.018242115154862404
1696961452162278400,1.2452783203125,0.024367205798625946,-0.04580501839518547,0.058720968663692474
1696961452172291800,1.255291748046875,0.026497671380639076,-0.13634982705116272,0.047003407031297684
1696961452182305300,1.26530517578125,0.028628136962652206,-0.10013190656900406,0.08215609937906265
1696961452192319000,1.275319091796875,0.025432437658309937,-0.14487169682979584,0.06298190355300903
1696961452202332400,1.28533251953125,0.028628136962652206,-0.05965305119752884,0.050199106335639954
1696961452212345900,1.295345947265625,0.029693370684981346,-0.12143656611442566,0.06830807030200958
1696961452222359300,1.305359375,0.024367205798625946,-0.09800143539905548,0.05232957378029823
1696961452232372700,1.315372802734375,0.035019535571336746,-0.05645735189318657,0.05659050494432449
1696961452242386400,1.325386474609375,0.022236740216612816,0.02236989326775074,-0.009453942999243736
1696961452252399900,1.33539990234375,0.029693370684981346,0,0.024633513763546944
1696961452262413300,1.345413330078125,0.040345702320337296,0.13102366030216217,-0.025432437658309937
1696961452272426800,1.3554267578125,0.041410934180021286,0.01491326279938221,-0.0030625448562204838
1696961452282440200,1.365440185546875,0.013714875094592571,0.1704372763633728,-0.030758604407310486
1696961452292454000,1.375453857421875,0.03608476743102074,0.01491326279938221,-0.017975807189941406
1696961452302467300,1.38546728515625,0.035019535571336746,0.17789392173290253,-0.047802332788705826
1696961452312480800,1.395480712890625,0.027562905102968216,0.1704372763633728,-0.08188978582620621
1696961452322494200,1.405494140625,0.027562905102968216,0.10758853703737259,-0.044606633484363556
1696961452332507600,1.415507568359375,0.03928046673536301,0.09161003679037094,-0.025432437658309937
1696961452342521300,1.425521240234375,0.025432437658309937,0.0213046595454216,-0.027562905102968216
1696961452352534800,1.43553466796875,0.025432437658309937,-0.0213046595454216,0.043807707726955414
1696961452362548200,1.44554833984375,0.028628136962652206,0.0213046595454216,-0.057389430701732635
1696961452372561700,1.455561767578125,0.045671865344047546,0.0106523297727108,-0.005193010903894901
1696961452382575000,1.4655751953125,0.028628136962652206,-0.0426093190908432,-0.0030625448562204838
1696961452392588800,1.4755888671875,0.023301972076296806,-0.03941362351179123,0.006524552125483751
1696961452402602200,1.485602294921875,0.028628136962652206,-0.04367455467581749,0.013981183059513569
1696961452412615700,1.49561572265625,0.026497671380639076,-0.06284874677658081,0.007589785382151604
1696961452422629000,1.505629150390625,0.026497671380639076,-0.07350108027458191,0.020372580736875534
1696961452432642600,1.515642578125,0.026497671380639076,-0.09800143539905548,0.033155377954244614
1696961452442656300,1.52565625,0.016910573467612267,-0.11824086308479309,0.03528584539890289
1696961452452669700,1.535669677734375,0.025432437658309937,-0.10865376889705658,0.04913387447595596
1696961452462683100,1.54568310546875,0.016910573467612267,-0.13208889961242676,0.043807707726955414
1696961452472696600,1.555696533203125,0.014780107885599136,-0.11078423261642456,0.036351077258586884
1696961452482710000,1.5657099609375,0.020106272771954536,-0.10332760214805603,0.04593817517161369
1696961452492723500,1.575723388671875,0.013714875094592571,-0.04473978653550148,0.024633513763546944
1696961452502737200,1.585737060546875,0.009453942999243736,-0.04367455467581749,0.036351077258586884
1696961452512750600,1.59575048828125,0.019041040912270546,0.0021304660476744175,0.004394086077809334
1696961452522764000,1.605763916015625,0.023301972076296806,0.02876129187643528,0.010785484686493874
1696961452532777500,1.615777587890625,0.001997311832383275,0.07882724702358246,-0.017975807189941406
1696961452542791000,1.625791015625,0.006258244160562754,0.02876129187643528,0.0033288532868027687
1696961452552804600,1.6358046875,0.011584409512579441,0.0010652330238372087,0.005459319334477186
1696961452562818000,1.645818115234375,0.006258244160562754,0.04047885537147522,-0.022236740216612816
1696961452572831500,1.65583154296875,0.005193010903894901,0.08628387749195099,-0.029693370684981346
1696961452582845000,1.665844970703125,0.008388710208237171,0.12037133425474167,-0.03288906812667847
1696961452592858400,1.6758583984375,0.010519175790250301,0.1693720519542694,-0.060585130006074905
1696961452602872000,1.6858720703125,0.010519175790250301,0.13102366030216217,-0.0712374597787857
1696961452612885500,1.695885498046875,0.008388710208237171,0.07030537724494934,-0.019041040912270546
1696961452622899000,1.70589892578125,-0.0011983871227130294,0.02663082629442215,-0.019041040912270546
1696961452632912400,1.715912353515625,0.008388710208237171,0.0031956990715116262,0.0011983871227130294
1696961452642925800,1.72592578125,-0.00226362026296556,-0.0532616525888443,0.012915950268507004
1696961452652939500,1.735939453125,-0.006524552125483751,-0.02769605815410614,0.023568280041217804
1696961452662953000,1.745952880859375,0.004127778112888336,-0.04473978653550148,0.016111649572849274
1696961452672966400,1.75596630859375,0.006258244160562754,-0.04687025398015976,0.018242115154862404
1696961452682979800,1.765979736328125,-0.007589785382151604,-0.14167599380016327,0.057655736804008484
1696961452692993300,1.7759931640625,-0.011850717477500439,-0.15765449404716492,0.04913387447595596
1696961452703007000,1.786007080078125,-0.005459319334477186,-0.17789392173290253,0.08109086751937866
1696961452713020400,1.7960205078125,-0.005459319334477186,-0.16298064589500427,0.03954677656292915
1696961452723033900,1.806033935546875,-0.016111649572849274,-0.0532616525888443,0.010785484686493874
1696961452733047300,1.81604736328125,-0.007589785382151604,-0.01917419396340847,0.016111649572849274
1696961452743060700,1.826060791015625,-0.012915950268507004,0.05965305119752884,-0.035019535571336746
1696961452753074400,1.836074462890625,-0.016111649572849274,0.0532616525888443,-0.025432437658309937
1696961452763088000,1.846087890625,-0.011850717477500439,0.05432688444852829,-0.035019535571336746
1696961452773101300,1.856101318359375,-0.015046416781842709,0.0532616525888443,-0.043541401624679565
1696961452783114800,1.86611474609375,-0.017176883295178413,0.04900071769952774,-0.019041040912270546
1696961452793128200,1.876128173828125,-0.004394086077809334,0.12995843589305878,-0.0723026916384697
1696961452803141600,1.8861416015625,-0.009720250964164734,0.0745663121342659,-0.04673709720373154
1696961452813155300,1.8961552734375,-0.020372580736875534,-0.0063913981430232525,0.009720250964164734
1696961452823168800,1.906168701171875,-0.023568280041217804,-0.10971900075674057,0.03954677656292915
1696961452833182200,1.91618212890625,-0.025698747485876083,-0.11291470378637314,0.053394805639982224
1696961452843195600,1.926195556640625,-0.031024912372231483,-0.2236989289522171,0.07576470077037811
1696961452853209000,1.936208984375,-0.029959678649902344,-0.13102366030216217,0.08428656309843063
1696961452863222800,1.946222900390625,-0.025698747485876083,-0.0958709716796875,0.050199106335639954
1696961452873236200,1.956236328125,-0.024633513763546944,0.0031956990715116262,0.00226362026296556
1696961452883249700,1.966249755859375,-0.026763979345560074,0.0053261648863554,0.017176883295178413
1696961452893263000,1.97626318359375,-0.034220609813928604,-0.0063913981430232525,0.016111649572849274
1696961452903276500,1.986276611328125,-0.022503048181533813,0.0031956990715116262,0.037416309118270874
1696961452913290200,1.996290283203125,-0.034220609813928604,-0.03621792420744896,-0.001997311832383275
1696961452923303700,2.0063037109375,-0.037416309118270874,0.009587096981704235,0.005459319334477186
1696961452933317000,2.016317138671875,-0.020372580736875534,-0.03941362351179123,-0.007323476951569319
1696961452943330600,2.02633056640625,-0.03209014609456062,0.04154408723115921,0.0011983871227130294
1696961452953344000,2.036343994140625,-0.029959678649902344,0.02236989326775074,-0.0030625448562204838
1696961452963357700,2.046357666015625,-0.040612008422613144,0,-0.009453942999243736
1696961452973371100,2.05637109375,-0.03528584539890289,-0.0053261648863554,0.018242115154862404
1696961452983384600,2.066384521484375,-0.04274247586727142,-0.02343512699007988,0.008655018173158169
1696961452993398000,2.07639794921875,-0.034220609813928604,-0.0106523297727108,0.0011983871227130294
1696961453003411500,2.086411376953125,-0.043807707726955414,-0.04047885537147522,0.011850717477500439
1696961453013425200,2.096425048828125,-0.029959678649902344,0.14593692123889923,-0.03928046673536301
1696961453023438600,2.1064384765625,-0.026763979345560074,0.1171756312251091,-0.06910699605941772
1696961453033452000,2.1164521484375,-0.037416309118270874,0.0745663121342659,-0.007323476951569319
1696961453043465500,2.126465576171875,-0.036351077258586884,-0.02663082629442215,0.006524552125483751
1696961453053479000,2.13647900390625,-0.03209014609456062,-0.03728315606713295,0.005459319334477186
1696961453063492600,2.14649267578125,-0.043807707726955414,-0.07989247888326645,0.036351077258586884
1696961453073506000,2.156506103515625,-0.044872939586639404,-0.1480673849582672,0.061916667968034744
1696961453083519500,2.16651953125,-0.03209014609456062,-0.08947957307100296,0.037416309118270874
1696961453093533000,2.176532958984375,-0.040612008422613144,-0.09906667470932007,0.044872939586639404
1696961453103546400,2.18654638671875,-0.04593817517161369,-0.13315412402153015,0.05659050494432449
1696961453113560000,2.19656005859375,-0.043807707726955414,-0.16511112451553345,0.06830807030200958
1696961453123573500,2.206573486328125,-0.044872939586639404,-0.17789392173290253,0.07576470077037811
1696961453133587200,2.216587158203125,-0.053394805639982224,-0.05645735189318657,0.019307348877191544
1696961453143600600,2.2266005859375,-0.03209014609456062,-0.02769605815410614,0.008655018173158169
1696961453153614000,2.236614013671875,-0.036351077258586884,0.1693720519542694,-0.061650361865758896
1696961453163627800,2.246627685546875,-0.031024912372231483,0.16617634892463684,-0.057389430701732635
1696961453173641200,2.25664111328125,-0.034220609813928604,0.3099828064441681,-0.12236864119768143
1696961453183655000,2.266655029296875,-0.021437814459204674,0.1693720519542694,-0.10212921351194382
1696961453193668400,2.27666845703125,-0.033155377954244614,0.16404588520526886,-0.060585130006074905
1696961453203681800,2.286681884765625,-0.036351077258586884,0.01491326279938221,-0.035019535571336746
1696961453213695500,2.296695556640625,-0.04274247586727142,0.09693620353937149,-0.043541401624679565
1696961453223709000,2.306708984375,-0.021437814459204674,0.05219641700387001,-0.040345702320337296
1696961453233722600,2.31672265625,-0.027829213067889214,-0.04687025398015976,0.016111649572849274
1696961453243736000,2.326736083984375,-0.04274247586727142,-0.12995843589305878,0.041677240282297134
1696961453253749500,2.33674951171875,-0.04913387447595596,-0.21837277710437775,0.07150376588106155
1696961453263763200,2.34676318359375,-0.037416309118270874,-0.20878566801548004,0.08641702681779861
1696961453273776600,2.356776611328125,-0.041677240282297134,-0.21943800151348114,0.07150376588106155
1696961453283790300,2.366790283203125,-0.037416309118270874,-0.1171756312251091,0.067242830991745
1696961453293803800,2.3768037109375,-0.027829213067889214,-0.02343512699007988,-0.024367205798625946
1696961453303817200,2.386817138671875,-0.025698747485876083,0.03941362351179123,-0.014780107885599136
1696961453313831000,2.396830810546875,-0.033155377954244614,0.0031956990715116262,-0.014780107885599136
1696961453323844400,2.40684423828125,-0.03528584539890289,-0.0021304660476744175,0.008655018173158169
1696961453333858000,2.416858154296875,-0.024633513763546944,-0.03941362351179123,-0.008388710208237171
1696961453343871500,2.42687158203125,-0.041677240282297134,-0.01917419396340847,0.015046416781842709
1696961453353885000,2.436885009765625,-0.03528584539890289,-0.02769605815410614,0.023568280041217804
1696961453363898600,2.446898681640625,-0.03209014609456062,0.06497921794652939,-0.015845341607928276
1696961453373912000,2.456912109375,-0.033155377954244614,0.09480573982000351,-0.029693370684981346
1696961453383925800,2.46692578125,-0.033155377954244614,0.07669677585363388,-0.013714875094592571
1696961453393939200,2.476939208984375,-0.03209014609456062,-0.0159784946590662,0.015046416781842709
1696961453403952600,2.48695263671875,-0.043807707726955414,0.02343512699007988,0.004394086077809334
1696961453413966300,2.49696630859375,-0.029959678649902344,0.05539211630821228,-0.008388710208237171
1696961453423979800,2.506979736328125,-0.029959678649902344,0.11397993564605713,-0.031823836266994476
1696961453433993500,2.516993408203125,-0.026763979345560074,0.1384802907705307,-0.03928046673536301
1696961453444007000,2.5270068359375,-0.018242115154862404,0.16617634892463684,-0.059519894421100616
1696961453454020400,2.537020263671875,-0.020372580736875534,0.08095771074295044,-0.029693370684981346
1696961453464034000,2.547033935546875,-0.021437814459204674,0.0159784946590662,0.010785484686493874
1696961453474047500,2.557047607421875,-0.022503048181533813,-0.10332760214805603,0.047003407031297684
1696961453484061000,2.56706103515625,-0.016111649572849274,-0.1597849577665329,0.054460037499666214
1696961453494074600,2.57707470703125,-0.021437814459204674,-0.21943800151348114,0.09706936031579971
1696961453504088000,2.587088134765625,-0.018242115154862404,-0.18641577661037445,0.07896039634943008
1696961453514101500,2.5971015625,-0.023568280041217804,-0.24287313222885132,0.11091738939285278
1696961453524115000,2.607114990234375,-0.029959678649902344,-0.2748301327228546,0.12689588963985443
1696961453534128400,2.61712841796875,-0.03528584539890289,-0.2450035959482193,0.10665645450353622
1696961453544142000,2.62714208984375,-0.029959678649902344,-0.15339355170726776,0.08854749798774719
1696961453554155500,2.637155517578125,-0.025698747485876083,0.0106523297727108,0.015046416781842709
1696961453564169000,2.6471689453125,-0.025698747485876083,0.15765449404716492,-0.041410934180021286
1696961453574182400,2.657182373046875,-0.015046416781842709,0.27163442969322205,-0.0723026916384697
1696961453584195800,2.66719580078125,-0.013981183059513569,0.29400432109832764,-0.10106398165225983
1696961453594209500,2.67720947265625,-0.019307348877191544,0.2865476906299591,-0.08188978582620621
1696961453604223000,2.687222900390625,-0.016111649572849274,0.2545906901359558,-0.07869409024715424
1696961453614236400,2.697236328125,-0.018242115154862404,0.19919857382774353,-0.06910699605941772
1696961453624249900,2.707249755859375,-0.011850717477500439,0.19919857382774353,-0.06271559745073318
1696961453634263300,2.71726318359375,-0.004394086077809334,0.11291470378637314,-0.047802332788705826
1696961453644276700,2.72727685546875,-0.007589785382151604,0.02343512699007988,-0.0009320789249613881
1696961453654290400,2.73729052734375,-0.005459319334477186,-0.06284874677658081,0.010785484686493874
1696961453664303900,2.747303955078125,-0.006524552125483751,-0.1693720519542694,0.08215609937906265
1696961453674317300,2.7573173828125,-0.006524552125483751,-0.2343512624502182,0.061916667968034744
1696961453684330800,2.767330810546875,-0.012915950268507004,-0.22582940757274628,0.07896039634943008
1696961453694344200,2.77734423828125,-0.007589785382151604,-0.11184946447610855,0.04593817517161369
1696961453704358000,2.78735791015625,-0.0011983871227130294,-0.05539211630821228,0.013981183059513569
1696961453714371300,2.797371337890625,-0.0011983871227130294,-0.01384802907705307,0.009720250964164734
1696961453724384800,2.807384765625,-0.007589785382151604,0.04580501839518547,-0.023301972076296806
1696961453734398200,2.817398193359375,-0.0011983871227130294,0.01810896210372448,-0.017975807189941406
1696961453744411600,2.82741162109375,-0.0001331541279796511,0.04793548583984375,-0.025432437658309937
1696961453754425300,2.83742529296875,-0.004394086077809334,0.03834838792681694,-0.024367205798625946
1696961453764438800,2.847438720703125,0.0009320789249613881,0.12356702983379364,-0.059519894421100616
1696961453774452200,2.8574521484375,0.005193010903894901,0.12569749355316162,-0.059519894421100616
1696961453784465700,2.867465576171875,0.007323476951569319,0.07776200771331787,-0.029693370684981346
1696961453794479000,2.87747900390625,-0.0001331541279796511,0.01917419396340847,-0.025432437658309937
1696961453804492800,2.887492919921875,-0.0001331541279796511,-0.0426093190908432,0.0011983871227130294
1696961453814506200,2.89750634765625,-0.0033288532868027687,-0.09054480493068695,0.013981183059513569
1696961453824519700,2.907519775390625,-0.004394086077809334,-0.07563154399394989,0.010785484686493874
1696961453834533000,2.917533203125,0.004127778112888336,0.0053261648863554,-0.020106272771954536
1696961453844546600,2.927546630859375,0.012649642303586006,0.11397993564605713,-0.06378082931041718
1696961453854560300,2.937560302734375,0.011584409512579441,0.20026381313800812,-0.0936073511838913
1696961453864573700,2.94757373046875,0.020106272771954536,0.09800143539905548,-0.06271559745073318
1696961453874587100,2.957587158203125,0.009453942999243736,0.09161003679037094,-0.043541401624679565
1696961453884600600,2.9676005859375,0.004127778112888336,0.04047885537147522,-0.033954303711652756
1696961453894614000,2.977614013671875,0.016910573467612267,0.004260932095348835,-0.004127778112888336
1696961453904627700,2.987627685546875,0.019041040912270546,-0.08628387749195099,0.00226362026296556
1696961453914641200,2.99764111328125,0.008388710208237171,-0.13634982705116272,0.053394805639982224
1696961453924654600,3.007654541015625,0.007323476951569319,-0.1810896098613739,0.051264338195323944
1696961453934668000,3.01766796875,0.004127778112888336,-0.17256775498390198,0.05659050494432449
1696961453944681500,3.027681396484375,0.006258244160562754,-0.17256775498390198,0.06511236727237701
1696961453954695000,3.03769482421875,0.0009320789249613881,-0.04154408723115921,0.018242115154862404
1696961453964708600,3.04770849609375,0.009453942999243736,0.04047885537147522,-0.040345702320337296
1696961453974722000,3.05772216796875,0.011584409512579441,0.10971900075674057,-0.038215234875679016
1696961453984735500,3.067735595703125,0.011584409512579441,0.1278279572725296,-0.052063263952732086
1696961453994749000,3.0777490234375,0.005193010903894901,0.1491326242685318,-0.06484606117010117
1696961454004762400,3.087762451171875,0.004127778112888336,0.15765449404716492,-0.07869409024715424
1696961454014776000,3.097776123046875,0.008388710208237171,0.1693720519542694,-0.07549838721752167
1696961454024789500,3.10778955078125,0.012649642303586006,0.13528458774089813,-0.06271559745073318
1696961454034803000,3.117802978515625,0.007323476951569319,0.0958709716796875,-0.047802332788705826
1696961454044816400,3.12781640625,0.012649642303586006,0.06710968166589737,-0.050998032093048096
1696961454054829800,3.137829833984375,0.016910573467612267,-0.05752258375287056,0.0001331541279796511
1696961454064843500,3.147843505859375,0.014780107885599136,-0.17682868242263794,0.06298190355300903
1696961454074857000,3.15785693359375,0.007323476951569319,-0.22902509570121765,0.07363422960042953
1696961454084870400,3.167870361328125,0.005193010903894901,-0.20026381313800812,0.0768299326300621
1696961454094883800,3.1778837890625,0.007323476951569319,-0.17469821870326996,0.067242830991745
1696961454104897300,3.187897216796875,0.0030625448562204838,-0.08947957307100296,0.036351077258586884
1696961454114911000,3.197910888671875,0.011584409512579441,0.0031956990715116262,0.016111649572849274
1696961454124924400,3.20792431640625,0.0009320789249613881,0.05432688444852829,-0.028628136962652206
1696961454134937900,3.217937744140625,0.008388710208237171,0.11184946447610855,-0.020106272771954536
1696961454144951300,3.227951416015625,0.0030625448562204838,0.21517707407474518,-0.07656362652778625
1696961454154964700,3.23796484375,0.008388710208237171,0.23754696547985077,-0.08082455396652222
1696961454164978400,3.247978515625,0.012649642303586006,0.19706811010837555,-0.08615072071552277
1696961454174992000,3.257991943359375,0.012649642303586006,0.0532616525888443,-0.031823836266994476
1696961454185005600,3.268005615234375,0.001997311832383275,-0.07989247888326645,0.015046416781842709
1696961454195019000,3.27801904296875,0.005193010903894901,-0.13102366030216217,0.050199106335639954
1696961454205032400,3.288032470703125,0.007323476951569319,-0.1480673849582672,0.041677240282297134
1696961454215046100,3.298046142578125,0.004127778112888336,-0.04580501839518547,0.016111649572849274
1696961454225059600,3.3080595703125,0.005193010903894901,-0.07137060910463333,0.008655018173158169
1696961454235073300,3.3180732421875,0.007323476951569319,-0.01917419396340847,0.013981183059513569
1696961454245086700,3.328086669921875,0.001997311832383275,0.04154408723115921,-0.022236740216612816
1696961454255100200,3.33810009765625,0.005193010903894901,0.12250179797410965,-0.061650361865758896
1696961454265113900,3.34811376953125,0.016910573467612267,0.09267527610063553,-0.022236740216612816
1696961454275127300,3.358127197265625,0.008388710208237171,0.14700216054916382,-0.04673709720373154
1696961454285141000,3.36814111328125,0.008388710208237171,0.09800143539905548,-0.03608476743102074
1696961454295154400,3.378154541015625,0.011584409512579441,-0.10013190656900406,0.036351077258586884
1696961454305168000,3.38816796875,0.012649642303586006,-0.1704372763633728,0.06937330216169357
1696961454315181600,3.398181640625,0.0009320789249613881,-0.17256775498390198,0.08002562820911407
1696961454325195000,3.408195068359375,0.004127778112888336,-0.1693720519542694,0.06830807030200958
1696961454335208700,3.418208740234375,0.006258244160562754,-0.05432688444852829,0.019307348877191544
1696961454345222100,3.42822216796875,0.014780107885599136,0.07243584841489792,-0.012649642303586006
1696961454355235600,3.438235595703125,0.014780107885599136,0.14061075448989868,-0.04993279650807381
1696961454365249300,3.448249267578125,0.014780107885599136,-0.03621792420744896,0.0001331541279796511
1696961454375262700,3.4582626953125,0.004127778112888336,-0.0031956990715116262,0.016111649572849274
1696961454385276200,3.468276123046875,0.008388710208237171,-0.01704372838139534,0.005459319334477186
1696961454395289900,3.478289794921875,0.0030625448562204838,0.03515268862247467,-0.013714875094592571
1696961454405303300,3.48830322265625,0.012649642303586006,0.08734910935163498,-0.030758604407310486
1696961454415317000,3.49831689453125,0.011584409512579441,0.08734910935163498,-0.03928046673536301
1696961454425330400,3.508330322265625,0.007323476951569319,-0.05006595328450203,0.024633513763546944
1696961454435344000,3.51834375,-0.004394086077809334,-0.0852186381816864,0.024633513763546944
1696961454445357600,3.528357666015625,0.009453942999243736,-0.012782796286046505,-0.004127778112888336
1696961454455371000,3.53837109375,0.011584409512579441,0.07989247888326645,-0.033954303711652756
1696961454465384700,3.548384765625,0.010519175790250301,0.14274121820926666,-0.06378082931041718
1696961454475398100,3.558398193359375,0.019041040912270546,0.15552401542663574,-0.042476166039705276
1696961454485411600,3.56841162109375,0.015845341607928276,-0.05113118514418602,-0.006258244160562754
1696961454495425300,3.57842529296875,0.012649642303586006,-0.1715025156736374,0.066177599132061
1696961454505438700,3.588438720703125,0.004127778112888336,-0.2119813710451126,0.07469946891069412
1696961454515452400,3.598452392578125,0.001997311832383275,-0.12463226169347763,0.048068638890981674
1696961454525465900,3.6084658203125,0.013714875094592571,-0.01810896210372448,-0.0009320789249613881
1696961454535479300,3.618479248046875,0.012649642303586006,0.10758853703737259,-0.047802332788705826
1696961454545493000,3.628492919921875,0.016910573467612267,0.12995843589305878,-0.04993279650807381
1696961454555506400,3.63850634765625,0.015845341607928276,0.03834838792681694,-0.03608476743102074
1696961454565520000,3.648519775390625,0.012649642303586006,-0.01810896210372448,0.005459319334477186
1696961454575533300,3.658533203125,-0.0011983871227130294,-0.05219641700387001,0.019307348877191544
1696961454585546800,3.668546630859375,0.0009320789249613881,0.0159784946590662,-0.012649642303586006
1696961454595560400,3.678560546875,0.026497671380639076,0.11184946447610855,-0.055258963257074356
1696961454605574000,3.688573974609375,0.021171506494283676,0.11930610239505768,-0.05632419511675835
1696961454615587300,3.69858740234375,0.007323476951569319,-0.08947957307100296,0.020372580736875534
1696961454625600800,3.708600830078125,0.006258244160562754,-0.13102366030216217,0.034220609813928604
1696961454635614200,3.7186142578125,0.013714875094592571,-0.08841434121131897,0.012915950268507004
1696961454645628000,3.7286279296875,0.010519175790250301,0.00852186419069767,-0.010519175790250301
1696961454655641300,3.738641357421875,0.021171506494283676,0.06604444980621338,-0.027562905102968216
1696961454665654800,3.74865478515625,0.011584409512579441,0.06604444980621338,-0.028628136962652206
1696961454675668200,3.758668212890625,0.017975807189941406,0.0213046595454216,0.007589785382151604
1696961454685681700,3.768681640625,0.013714875094592571,-0.12250179797410965,0.034220609813928604
1696961454695695400,3.7786953125,0.001997311832383275,-0.13208889961242676,0.05978620424866676
1696961454705708800,3.788708740234375,0.0009320789249613881,-0.02876129187643528,0.034220609813928604
1696961454715722200,3.79872216796875,0.015845341607928276,0.08308817446231842,-0.025432437658309937
1696961454725735700,3.808735595703125,0.014780107885599136,0.19813334941864014,-0.06378082931041718
1696961454735749000,3.8187490234375,0.024367205798625946,0.14700216054916382,-0.059519894421100616
1696961454745762800,3.8287626953125,0.013714875094592571,0.0159784946590662,0.013981183059513569
1696961454755776300,3.8387763671875,0.008388710208237171,-0.11824086308479309,0.04274247586727142
1696961454765789700,3.848789794921875,0.011584409512579441,-0.07243584841489792,0.060851436108350754
1696961454775803100,3.85880322265625,0.011584409512579441,-0.09374050796031952,0.029959678649902344
1696961454785816600,3.868816650390625,0.001997311832383275,0.07563154399394989,0.004394086077809334
1696961454795830000,3.878830078125,0.024367205798625946,0.13634982705116272,-0.03928046673536301
1696961454805843700,3.88884375,0.023301972076296806,0.12143656611442566,-0.042476166039705276
1696961454815857200,3.898857177734375,0.010519175790250301,0.05539211630821228,-0.0009320789249613881
1696961454825870600,3.90887060546875,0.009453942999243736,-0.0106523297727108,0.010785484686493874
1696961454835884000,3.918884033203125,0.022236740216612816,0,0.004394086077809334
1696961454845897500,3.9288974609375,0.020106272771954536,0.02982652559876442,-0.019041040912270546
1696961454855911200,3.9389111328125,0.026497671380639076,0.02450035884976387,-0.0030625448562204838
1696961454865924600,3.948924560546875,0.03928046673536301,-0.12569749355316162,0.036351077258586884
1696961454875938000,3.95893798828125,0.012649642303586006,-0.2535254657268524,0.08854749798774719
1696961454885951500,3.968951416015625,0.015845341607928276,-0.18322007358074188,0.06511236727237701
1696961454895965000,3.97896484375,0.025432437658309937,-0.09693620353937149,0.043807707726955414
1696961454905978600,3.988978515625,0.017975807189941406,-0.0031956990715116262,-0.006258244160562754
1696961454915992000,3.998991943359375,0.027562905102968216,0.14274121820926666,-0.035019535571336746
1696961454926005500,4.009005615234375,0.023301972076296806,0.05113118514418602,-0.029693370684981346
1696961454936019000,4.01901904296875,0.023301972076296806,0.02982652559876442,0.011850717477500439
1696961454946032400,4.029032470703125,0.021171506494283676,-0.10971900075674057,0.041677240282297134
1696961454956046000,4.039046142578125,0.013714875094592571,-0.04473978653550148,0.024633513763546944
1696961454966059500,4.0490595703125,0.007323476951569319,-0.01171756349503994,0.006524552125483751
1696961454976073000,4.059072998046875,0.021171506494283676,0.0745663121342659,-0.009453942999243736
1696961454986086400,4.06908642578125,0.030758604407310486,0.1288931965827942,-0.06910699605941772
1696961454996099800,4.079099853515625,0.015845341607928276,0.0958709716796875,-0.031823836266994476
1696961455006113500,4.089113525390625,0.021171506494283676,-0.02556559257209301,0.0001331541279796511
1696961455016127000,4.099126953125,0.026497671380639076,-0.03089175745844841,0.021437814459204674
1696961455026140400,4.109140380859375,0.021171506494283676,-0.009587096981704235,-0.020106272771954536
1696961455036153900,4.11915380859375,0.022236740216612816,0.06178351491689682,-0.017975807189941406
1696961455046167300,4.129167236328125,0.03928046673536301,0.02663082629442215,-0.023301972076296806
1696961455056181000,4.139180908203125,0.037150003015995026,-0.04154408723115921,0.006524552125483751
1696961455066194400,4.1491943359375,0.024367205798625946,-0.10971900075674057,0.044872939586639404
1696961455076207900,4.159207763671875,0.026497671380639076,-0.11504516750574112,0.029959678649902344
1696961455086221300,4.16922119140625,0.027562905102968216,-0.03941362351179123,0.015046416781842709
1696961455096234800,4.17923486328125,0.033954303711652756,0.01810896210372448,-0.0009320789249613881
1696961455106248200,4.189248291015625,0.031823836266994476,0.08415340632200241,-0.033954303711652756
1696961455116262000,4.199261962890625,0.031823836266994476,0.004260932095348835,0.008655018173158169
1696961455126275300,4.209275390625,0.024367205798625946,-0.02982652559876442,0.024633513763546944
1696961455136288800,4.219288818359375,0.028628136962652206,-0.07243584841489792,0.036351077258586884
1696961455146302200,4.22930224609375,0.025432437658309937,-0.0639139786362648,0.031024912372231483
1696961455156315600,4.239315673828125,0.022236740216612816,-0.0031956990715116262,0.021437814459204674
1696961455166329300,4.249329345703125,0.025432437658309937,0.03728315606713295,-0.009453942999243736
1696961455176342800,4.2593427734375,0.024367205798625946,0.08095771074295044,-0.010519175790250301
1696961455186356200,4.269356201171875,0.030758604407310486,0.05965305119752884,-0.009453942999243736
1696961455196369700,4.27936962890625,0.025432437658309937,0.04047885537147522,-0.004127778112888336
1696961455206383000,4.289383056640625,0.024367205798625946,-0.0063913981430232525,0.007589785382151604
1696961455216396800,4.299396728515625,0.020106272771954536,0.012782796286046505,0.015046416781842709
1696961455226410200,4.30941015625,0.033954303711652756,0.02769605815410614,0.0001331541279796511
1696961455236423700,4.319423583984375,0.026497671380639076,0.06817491352558136,-0.014780107885599136
1696961455246437000,4.32943701171875,0.03608476743102074,0.0426093190908432,-0.027562905102968216
1696961455256450600,4.339450439453125,0.03608476743102074,-0.08415340632200241,0.044872939586639404
1696961455266464300,4.34946435546875,0.033954303711652756,-0.13528458774089813,0.057655736804008484
1696961455276477700,4.359477783203125,0.029693370684981346,-0.09054480493068695,0.031024912372231483
1696961455286491100,4.3694912109375,0.035019535571336746,-0.06710968166589737,0.010785484686493874
1696961455296504600,4.379504638671875,0.03608476743102074,-0.02023942768573761,0.006524552125483751
1696961455306518000,4.38951806640625,0.037150003015995026,-0.0532616525888443,0.015046416781842709
1696961455316531700,4.39953173828125,0.033954303711652756,-0.03089175745844841,0.009720250964164734
1696961455326545200,4.409545166015625,0.024367205798625946,-0.1395455300807953,0.043807707726955414
1696961455336558600,4.41955859375,0.014780107885599136,-0.03515268862247467,0.025698747485876083
1696961455346572000,4.429572021484375,0.030758604407310486,-0.02236989326775074,-0.005193010903894901
1696961455356585500,4.43958544921875,0.026497671380639076,0.0639139786362648,-0.022236740216612816
1696961455366599200,4.44959912109375,0.010519175790250301,0.11184946447610855,-0.05312849581241608
1696961455376612600,4.459612548828125,0.026497671380639076,0.1374150663614273,-0.04993279650807381
1696961455386626000,4.4696259765625,0.033954303711652756,0.15552401542663574,-0.06271559745073318
1696961455396639500,4.479639404296875,0.024367205798625946,0.07563154399394989,-0.054193731397390366
1696961455406653000,4.48965283203125,0.033954303711652756,-0.0106523297727108,-0.015845341607928276
1696961455416666400,4.499666259765625,0.045671865344047546,-0.13421936333179474,0.033155377954244614
1696961455426680000,4.50968017578125,0.029693370684981346,-0.08947957307100296,0.025698747485876083
1696961455436693500,4.519693603515625,0.03608476743102074,-0.14274121820926666,0.033155377954244614
1696961455446707000,4.52970703125,0.03288906812667847,-0.11611039936542511,0.03954677656292915
1696961455456720600,4.539720703125,0.03928046673536301,-0.07989247888326645,0.006524552125483751
1696961455466734000,4.549734130859375,0.03608476743102074,-0.0063913981430232525,0.006524552125483751
1696961455476747500,4.55974755859375,0.030758604407310486,-0.01171756349503994,-0.020106272771954536
1696961455486761200,4.56976123046875,0.029693370684981346,0.04900071769952774,0.012915950268507004
1696961455496774700,4.579774658203125,0.031823836266994476,-0.004260932095348835,-0.020106272771954536
1696961455506788400,4.589788330078125,0.027562905102968216,0.07137060910463333,-0.017975807189941406
1696961455516801800,4.5998017578125,0.031823836266994476,-0.0021304660476744175,-0.026497671380639076
1696961455526815200,4.609815185546875,0.023301972076296806,0.03515268862247467,-0.011584409512579441
1696961455536829000,4.619828857421875,0.031823836266994476,0.01810896210372448,-0.041410934180021286
1696961455546842400,4.62984228515625,0.038215234875679016,0.0958709716796875,-0.048867564648389816
1696961455556856000,4.63985595703125,0.035019535571336746,0.06924014538526535,-0.059519894421100616
1696961455566869500,4.649869384765625,0.035019535571336746,-0.01384802907705307,-0.015845341607928276
1696961455576883000,4.659883056640625,0.037150003015995026,0.01917419396340847,-0.020106272771954536
1696961455586896600,4.669896728515625,0.042476166039705276,-0.06604444980621338,0.0033288532868027687
1696961455596910000,4.67991015625,0.03608476743102074,-0.11824086308479309,0.016111649572849274
1696961455606923800,4.689923828125,0.03928046673536301,-0.03621792420744896,0.021437814459204674
1696961455616937200,4.699937255859375,0.038215234875679016,-0.05539211630821228,0.0001331541279796511
1696961455626950700,4.70995068359375,0.03608476743102074,0.07350108027458191,-0.0009320789249613881
1696961455636964400,4.71996435546875,0.037150003015995026,0.06924014538526535,-0.047802332788705826
1696961455646977800,4.729977783203125,0.047802332788705826,0.09267527610063553,-0.024367205798625946
1696961455656991500,4.739991455078125,0.038215234875679016,0.0426093190908432,-0.035019535571336746
1696961455667005000,4.7500048828125,0.041410934180021286,-0.01491326279938221,0.0011983871227130294
1696961455677018400,4.760018310546875,0.052063263952732086,-0.02556559257209301,0.015046416781842709
1696961455687032000,4.770031982421875,0.043541401624679565,-0.05006595328450203,-0.011584409512579441
1696961455697045500,4.78004541015625,0.045671865344047546,-0.05645735189318657,0.031024912372231483
1696961455707059200,4.79005908203125,0.054193731397390366,-0.1267627328634262,0.012915950268507004
1696961455717072600,4.80007275390625,0.03928046673536301,-0.11078423261642456,0.034220609813928604
1696961455727086000,4.810086181640625,0.042476166039705276,-0.07030537724494934,0.011850717477500439
1696961455737099800,4.820099853515625,0.04993279650807381,-0.02663082629442215,0.018242115154862404
1696961455747113200,4.83011328125,0.041410934180021286,0.04580501839518547,-0.03288906812667847
1696961455757127000,4.840126953125,0.047802332788705826,0.08202294260263443,-0.008388710208237171
1696961455767140400,4.850140380859375,0.040345702320337296,-0.01810896210372448,0.005459319334477186
1696961455777153800,4.86015380859375,0.04673709720373154,-0.07882724702358246,0.03848154470324516
1696961455787167500,4.87016748046875,0.040345702320337296,-0.05539211630821228,0.033155377954244614
1696961455797181000,4.880180908203125,0.037150003015995026,0.004260932095348835,0.026763979345560074
1696961455807194600,4.890194580078125,0.035019535571336746,0.0426093190908432,0.005459319334477186
1696961455817208000,4.9002080078125,0.047802332788705826,0.07882724702358246,-0.022236740216612816
1696961455827221500,4.910221435546875,0.054193731397390366,0.08734910935163498,-0.008388710208237171
1696961455837235200,4.920235107421875,0.033954303711652756,-0.03728315606713295,0.005459319334477186
1696961455847248600,4.93024853515625,0.03288906812667847,-0.05645735189318657,0.06404713541269302
1696961455857262300,4.940262451171875,0.04993279650807381,-0.05219641700387001,0.006524552125483751
1696961455867275800,4.95027587890625,0.043541401624679565,0.0021304660476744175,-0.008388710208237171
1696961455877289200,4.960289306640625,0.041410934180021286,0.05113118514418602,-0.027562905102968216
1696961455887302700,4.970302734375,0.047802332788705826,0.04687025398015976,-0.016910573467612267
1696961455897316400,4.98031640625,0.037150003015995026,-0.02236989326775074,0.011850717477500439
1696961455907329800,4.990329833984375,0.03928046673536301,0.0213046595454216,-0.020106272771954536
1696961455917343200,5.00034326171875,0.042476166039705276,-0.007456631399691105,-0.017975807189941406
1696961455927356700,5.010356689453125,0.044606633484363556,0.04047885537147522,-0.019041040912270546
1696961455937370000,5.0203701171875,0.045671865344047546,0.05432688444852829,-0.028628136962652206
1696961455947383800,5.0303837890625,0.04993279650807381,0.004260932095348835,-0.03288906812667847
1696961455957397200,5.040397216796875,0.040345702320337296,-0.07882724702358246,0.029959678649902344
1696961455967410700,5.05041064453125,0.043541401624679565,-0.09693620353937149,0.022503048181533813
1696961455977424100,5.060424072265625,0.042476166039705276,-0.0852186381816864,0.008655018173158169
1696961455987437600,5.0704375,0.038215234875679016,0.01917419396340847,-0.010519175790250301
1696961455997451000,5.080450927734375,0.048867564648389816,0.07030537724494934,-0.050998032093048096
1696961456007464700,5.090464599609375,0.054193731397390366,0.01491326279938221,-0.021171506494283676
1696961456017478100,5.10047802734375,0.042476166039705276,-0.16191542148590088,0.028894444927573204
1696961456027491600,5.11049169921875,0.027562905102968216,-0.1587197184562683,0.06404713541269302
1696961456037505000,5.120505126953125,0.029693370684981346,-0.11611039936542511,0.020372580736875534
1696961456047518500,5.1305185546875,0.05312849581241608,0.04900071769952774,-0.008388710208237171
1696961456057532200,5.1405322265625,0.033954303711652756,0.06497921794652939,-0.052063263952732086
1696961456067545600,5.150545654296875,0.026497671380639076,0.0319569893181324,0.0011983871227130294
1696961456077559000,5.16055908203125,0.030758604407310486,-0.07989247888326645,0.034220609813928604
1696961456087572500,5.170572509765625,0.024367205798625946,-0.03834838792681694,0.029959678649902344
1696961456097586000,5.1805859375,0.013714875094592571,-0.02343512699007988,0.0001331541279796511
1696961456107599600,5.190599609375,0.016910573467612267,0.1374150663614273,-0.031823836266994476
1696961456117613000,5.200613037109375,0.035019535571336746,0.13634982705116272,-0.06271559745073318
1696961456127626500,5.21062646484375,0.033954303711652756,0.09374050796031952,-0.040345702320337296
1696961456137640000,5.220639892578125,0.024367205798625946,-0.1395455300807953,0.029959678649902344
1696961456147653400,5.2306533203125,0.013714875094592571,-0.20026381313800812,0.07576470077037811
1696961456157667000,5.2406669921875,0.026497671380639076,-0.17576344311237335,0.05978620424866676
1696961456167680500,5.250680419921875,0.024367205798625946,-0.05006595328450203,0.0011983871227130294
1696961456177694000,5.26069384765625,0.021171506494283676,-0.00852186419069767,-0.008388710208237171
1696961456187707400,5.270707275390625,0.027562905102968216,-0.0010652330238372087,-0.001997311832383275
1696961456197720800,5.280720947265625,0.010519175790250301,-0.08947957307100296,0.017176883295178413
1696961456207734500,5.290734619140625,0.0030625448562204838,-0.09800143539905548,0.05232957378029823
1696961456217748000,5.300748046875,-0.0033288532868027687,-0.0010652330238372087,-0.004127778112888336
1696961456227761400,5.310761474609375,0.005193010903894901,0.18854624032974243,-0.06271559745073318
1696961456237774800,5.32077490234375,0.012649642303586006,0.16298064589500427,-0.0723026916384697
1696961456247788300,5.330788330078125,0.013714875094592571,0.08947957307100296,-0.005193010903894901
1696961456257802000,5.340802001953125,-0.005459319334477186,-0.09800143539905548,0.00226362026296556
1696961456267815400,5.3508154296875,-0.0001331541279796511,-0.08947957307100296,0.06298190355300903
1696961456277828900,5.360828857421875,0.009453942999243736,-0.10758853703737259,0.007589785382151604
1696961456287842300,5.37084228515625,0.004127778112888336,0.0106523297727108,-0.011584409512579441
1696961456297855700,5.380855712890625,0.008388710208237171,0.0021304660476744175,-0.025432437658309937
1696961456307869200,5.390869140625,0.008388710208237171,0.02343512699007988,-0.022236740216612816
1696961456317883000,5.4008828125,0.015845341607928276,-0.12569749355316162,0.016111649572849274
1696961456327896300,5.410896240234375,-0.0001331541279796511,-0.14274121820926666,0.043807707726955414
1696961456337909800,5.42090966796875,-0.006524552125483751,-0.1267627328634262,0.054460037499666214
1696961456347923200,5.430923095703125,-0.007589785382151604,0.02236989326775074,-0.017975807189941406
1696961456357937000,5.44093701171875,0.005193010903894901,0.06497921794652939,-0.023301972076296806
1696961456367950300,5.450950439453125,0.0009320789249613881,-0.01384802907705307,-0.016910573467612267
1696961456377963800,5.4609638671875,-0.010785484686493874,-0.0852186381816864,0.041677240282297134
1696961456387977500,5.4709775390625,-0.015046416781842709,-0.03621792420744896,0.015046416781842709
1696961456397991000,5.480990966796875,-0.009720250964164734,0.01384802907705307,-0.009453942999243736
1696961456408004600,5.491004638671875,-0.013981183059513569,0.06817491352558136,-0.021171506494283676
1696961456418018000,5.50101806640625,-0.010785484686493874,0.07137060910463333,-0.027562905102968216
1696961456428031500,5.511031494140625,-0.007589785382151604,-0.02343512699007988,0.016111649572849274
1696961456438045200,5.521045166015625,-0.019307348877191544,-0.11504516750574112,0.029959678649902344
1696961456448058600,5.53105859375,-0.020372580736875534,-0.11184946447610855,0.04913387447595596
1696961456458072300,5.541072265625,-0.017176883295178413,0.07563154399394989,-0.024367205798625946
1696961456468085800,5.551085693359375,-0.019307348877191544,0.1278279572725296,-0.047802332788705826
1696961456478099200,5.56109912109375,-0.016111649572849274,0.11078423261642456,-0.03288906812667847
1696961456488113000,5.57111279296875,-0.018242115154862404,-0.01384802907705307,-0.001997311832383275
1696961456498126300,5.581126220703125,-0.019307348877191544,-0.04154408723115921,0.013981183059513569
1696961456508140000,5.59114013671875,-0.012915950268507004,-0.12250179797410965,0.03209014609456062
1696961456518153500,5.601153564453125,-0.028894444927573204,-0.09906667470932007,0.044872939586639404
1696961456528167000,5.6111669921875,-0.027829213067889214,0.0319569893181324,-0.021171506494283676
1696961456538180600,5.6211806640625,-0.018242115154862404,0.04900071769952774,-0.031823836266994476
1696961456548194000,5.631194091796875,-0.015046416781842709,0.004260932095348835,-0.021171506494283676
1696961456558207700,5.641207763671875,-0.024633513763546944,-0.09693620353937149,0.00226362026296556
1696961456568221200,5.65122119140625,-0.027829213067889214,-0.0958709716796875,0.03209014609456062
1696961456578234600,5.661234619140625,-0.031024912372231483,-0.06817491352558136,-0.004127778112888336
1696961456588248300,5.671248291015625,-0.029959678649902344,0.06817491352558136,-0.028628136962652206
1696961456598261800,5.68126171875,-0.03209014609456062,0.03515268862247467,-0.031823836266994476
1696961456608275500,5.691275390625,-0.031024912372231483,0.009587096981704235,-0.008388710208237171
1696961456618289000,5.701288818359375,-0.03209014609456062,-0.04154408723115921,0.0011983871227130294
1696961456628302300,5.71130224609375,-0.043807707726955414,0.03515268862247467,0.009720250964164734
1696961456638316000,5.72131591796875,-0.03954677656292915,0.03089175745844841,-0.020106272771954536
1696961456648329500,5.73132958984375,-0.04274247586727142,0.11611039936542511,-0.03288906812667847
1696961456658343200,5.74134326171875,-0.024633513763546944,0.10545806586742401,-0.03928046673536301
1696961456668356600,5.751356689453125,-0.03209014609456062,-0.0639139786362648,-0.0030625448562204838
1696961456678370000,5.7613701171875,-0.034220609813928604,-0.09800143539905548,0.040612008422613144
1696961456688383700,5.7713837890625,-0.026763979345560074,-0.0958709716796875,0.029959678649902344
1696961456698397200,5.781397216796875,-0.027829213067889214,-0.03834838792681694,0.018242115154862404
1696961456708411000,5.791410888671875,-0.04593817517161369,0.03089175745844841,-0.015845341607928276
1696961456718424300,5.80142431640625,-0.025698747485876083,0.08095771074295044,-0.03288906812667847
1696961456728437800,5.811437744140625,-0.020372580736875534,-0.03728315606713295,-0.004127778112888336
1696961456738451500,5.821451416015625,-0.037416309118270874,-0.07137060910463333,0.03528584539890289
1696961456748465000,5.83146484375,-0.04274247586727142,-0.08415340632200241,0.023568280041217804
1696961456758478600,5.841478515625,-0.03209014609456062,0.02769605815410614,0.005459319334477186
1696961456768492000,5.851491943359375,-0.033155377954244614,0.10332760214805603,-0.037150003015995026
1696961456778505500,5.86150537109375,-0.03209014609456062,0.06817491352558136,-0.030758604407310486
1696961456788519200,5.871519287109375,-0.03528584539890289,-0.02023942768573761,0.026763979345560074
1696961456798532600,5.88153271484375,-0.028894444927573204,-0.14700216054916382,0.050199106335639954
1696961456808546300,5.89154638671875,-0.037416309118270874,-0.05539211630821228,0.028894444927573204
1696961456818559700,5.901559814453125,-0.043807707726955414,0.07669677585363388,-0.013714875094592571
1696961456828574200,5.91157421875,-0.019307348877191544,0.10758853703737259,-0.037150003015995026
1696961456838587000,5.9215869140625,-0.028894444927573204,0.03941362351179123,-0.015845341607928276
1696961456848599300,5.931599365234375,-0.036351077258586884,-0.07030537724494934,0.04274247586727142
1696961456858612200,5.9416123046875,-0.040612008422613144,-0.13421936333179474,0.054460037499666214
1696961456868625000,5.951625,-0.036351077258586884,-0.01810896210372448,0.03528584539890289
1696961456878637800,5.961637939453125,-0.03528584539890289,0.09161003679037094,-0.038215234875679016
1696961456888650800,5.971650634765625,-0.024633513763546944,0.1171756312251091,-0.033954303711652756
1696961456898664000,5.981663818359375,-0.023568280041217804,-0.01171756349503994,-0.008388710208237171
1696961456908677000,5.991677001953125,-0.019307348877191544,-0.07563154399394989,0.024633513763546944
1696961456918690600,6.001690673828125,-0.03528584539890289,-0.17682868242263794,0.047003407031297684
1696961456928704300,6.011704345703125,-0.031024912372231483,-0.07243584841489792,0.036351077258586884
1696961456938718000,6.021718017578125,-0.03209014609456062,-0.01810896210372448,0.004394086077809334
1696961456948731600,6.031731689453125,-0.03528584539890289,0.09693620353937149,-0.014780107885599136
1696961456958745600,6.04174560546875,-0.023568280041217804,0.05432688444852829,-0.029693370684981346
1696961456968759800,6.051759765625,-0.034220609813928604,-0.0319569893181324,0.011850717477500439
1696961456978774000,6.06177392578125,-0.027829213067889214,-0.09693620353937149,0.048068638890981674
1696961456988788000,6.0717880859375,-0.026763979345560074,-0.11184946447610855,0.025698747485876083
1696961456998802200,6.08180224609375,-0.037416309118270874,0.0426093190908432,0.009720250964164734
1696961457008816400,6.09181640625,-0.031024912372231483,0.009587096981704235,-0.013714875094592571
1696961457018830000,6.101830078125,-0.019307348877191544,0.06817491352558136,-0.012649642303586006
1696961457028843500,6.111843505859375,-0.025698747485876083,-0.0639139786362648,0.018242115154862404
1696961457038857200,6.121857177734375,-0.03528584539890289,-0.09906667470932007,0.06298190355300903
1696961457048870700,6.13187060546875,-0.025698747485876083,-0.0852186381816864,0.027829213067889214
1696961457058884000,6.141884033203125,-0.018242115154862404,0,0.013981183059513569
1696961457068897500,6.1518974609375,-0.027829213067889214,-0.05432688444852829,0.028894444927573204
1696961457078911000,6.161910888671875,-0.037416309118270874,-0.05219641700387001,0.047003407031297684
1696961457088924700,6.171924560546875,-0.024633513763546944,-0.0213046595454216,0.023568280041217804
1696961457098938000,6.181938232421875,-0.03209014609456062,-0.02236989326775074,0.033155377954244614
1696961457108951600,6.19195166015625,-0.04274247586727142,0.04047885537147522,0.009720250964164734
1696961457118965000,6.201965087890625,-0.025698747485876083,0.03941362351179123,0.022503048181533813
1696961457128978400,6.211978515625,-0.026763979345560074,-0.0426093190908432,0.010785484686493874
1696961457138992000,6.2219921875,-0.029959678649902344,-0.05752258375287056,0.060851436108350754
1696961457149005600,6.232005615234375,-0.03209014609456062,-0.15232832729816437,0.07896039634943008
1696961457159019000,6.24201904296875,-0.041677240282297134,0.0159784946590662,0.033155377954244614
1696961457169032400,6.252032470703125,-0.03954677656292915,0.07669677585363388,-0.0009320789249613881
1696961457179046000,6.2620458984375,-0.029959678649902344,0.06284874677658081,0.019307348877191544
1696961457189059600,6.2720595703125,-0.03954677656292915,0.0213046595454216,0.018242115154862404
1696961457199073000,6.282072998046875,-0.037416309118270874,0.0031956990715116262,0.050199106335639954
1696961457209086500,6.29208642578125,-0.03848154470324516,-0.03834838792681694,0.03848154470324516
1696961457219100000,6.302099853515625,-0.036351077258586884,0.03302222490310669,0.024633513763546944
1696961457229113300,6.31211328125,-0.029959678649902344,-0.0053261648863554,0.026763979345560074
1696961457239127000,6.322126953125,-0.024633513763546944,-0.04154408723115921,0.04274247586727142
1696961457249140500,6.332140380859375,-0.034220609813928604,-0.08202294260263443,0.0555252730846405
1696961457259154000,6.34215380859375,-0.033155377954244614,-0.05965305119752884,0.051264338195323944
1696961457269167400,6.35216748046875,-0.033155377954244614,0.012782796286046505,0.018242115154862404
1696961457279180800,6.362180908203125,-0.028894444927573204,0.02343512699007988,0.006524552125483751
1696961457289194200,6.3721943359375,-0.029959678649902344,-0.0532616525888443,0.018242115154862404
1696961457299208000,6.3822080078125,-0.040612008422613144,-0.0010652330238372087,0.03209014609456062
1696961457309221400,6.392221435546875,-0.03209014609456062,-0.03941362351179123,0.019307348877191544
1696961457319234800,6.40223486328125,-0.026763979345560074,0.04580501839518547,0.021437814459204674
1696961457329248300,6.412248291015625,-0.029959678649902344,-0.02023942768573761,-0.010519175790250301
1696961457339261700,6.42226171875,-0.040612008422613144,-0.004260932095348835,0.028894444927573204
1696961457349275400,6.432275390625,-0.029959678649902344,-0.04900071769952774,0.012915950268507004
1696961457359288800,6.442288818359375,-0.03848154470324516,-0.01917419396340847,0.004394086077809334
1696961457369302300,6.45230224609375,-0.029959678649902344,0.09480573982000351,-0.033954303711652756
1696961457379315700,6.462315673828125,-0.031024912372231483,-0.01917419396340847,-0.016910573467612267
1696961457389329400,6.472329345703125,-0.028894444927573204,-0.03089175745844841,0.019307348877191544
1696961457399342800,6.4823427734375,-0.028894444927573204,-0.14274121820926666,0.023568280041217804
1696961457409356300,6.492356201171875,-0.033155377954244614,-0.0426093190908432,0.022503048181533813
1696961457419370000,6.502369873046875,-0.036351077258586884,-0.04793548583984375,-0.010519175790250301
1696961457429383400,6.512383544921875,-0.034220609813928604,0.06817491352558136,-0.024367205798625946
1696961457439397000,6.522397216796875,-0.04593817517161369,-0.0053261648863554,-0.011584409512579441
1696961457449410600,6.53241064453125,-0.040612008422613144,0.06178351491689682,-0.028628136962652206
1696961457459424000,6.542424072265625,-0.03209014609456062,-0.0319569893181324,-0.016910573467612267
1696961457469437700,6.552437744140625,-0.04274247586727142,-0.0063913981430232525,0.006524552125483751
1696961457479451100,6.562451171875,-0.053394805639982224,0.009587096981704235,-0.029693370684981346
1696961457489464800,6.57246484375,-0.028894444927573204,0.16191542148590088,-0.0723026916384697
1696961457499478300,6.582478271484375,-0.029959678649902344,-0.01384802907705307,-0.021171506494283676
1696961457509491700,6.59249169921875,-0.040612008422613144,-0.03089175745844841,0.005459319334477186
1696961457519505400,6.60250537109375,-0.04593817517161369,-0.09054480493068695,-0.007323476951569319
1696961457529518800,6.612518798828125,-0.040612008422613144,0.10013190656900406,-0.054193731397390366
1696961457539532500,6.622532470703125,-0.031024912372231483,0.05752258375287056,-0.052063263952732086
1696961457549546000,6.6325458984375,-0.04274247586727142,0.05752258375287056,-0.031823836266994476
1696961457559559400,6.642559326171875,-0.033155377954244614,-0.0639139786362648,-0.026497671380639076
1696961457569573000,6.652572998046875,-0.028894444927573204,-0.12037133425474167,0.0001331541279796511
1696961457579586600,6.662586669921875,-0.026763979345560074,-0.10758853703737259,0.013981183059513569
1696961457589600300,6.672600341796875,-0.034220609813928604,-0.07989247888326645,-0.023301972076296806
1696961457599613700,6.68261376953125,-0.03954677656292915,0.07030537724494934,-0.044606633484363556
1696961457609627100,6.692627197265625,-0.034220609813928604,0.03515268862247467,-0.033954303711652756
1696961457619640800,6.702640869140625,-0.03209014609456062,-0.03302222490310669,-0.009453942999243736
1696961457629654300,6.712654296875,-0.029959678649902344,-0.1501978635787964,0.016111649572849274
1696961457639668000,6.72266796875,-0.04593817517161369,-0.12995843589305878,0.023568280041217804
1696961457649681400,6.732681396484375,-0.044872939586639404,0.0639139786362648,-0.025432437658309937
1696961457659694800,6.74269482421875,-0.040612008422613144,0.1065233051776886,-0.050998032093048096
1696961457669708500,6.75270849609375,-0.04274247586727142,0.0053261648863554,-0.006258244160562754
1696961457679722000,6.762721923828125,-0.04913387447595596,-0.02663082629442215,0.007589785382151604
1696961457689735700,6.772735595703125,-0.044872939586639404,-0.02236989326775074,0.006524552125483751
1696961457699749000,6.7827490234375,-0.043807707726955414,0.04367455467581749,-0.020106272771954536
1696961457709762600,6.792762451171875,-0.044872939586639404,0.02663082629442215,-0.028628136962652206
1696961457719776300,6.8027763671875,-0.054460037499666214,0.13528458774089813,-0.029693370684981346
1696961457729789700,6.812789794921875,-0.031024912372231483,0.09054480493068695,-0.048867564648389816
1696961457739803400,6.822803466796875,-0.025698747485876083,-0.06604444980621338,-0.0009320789249613881
1696961457749816800,6.83281689453125,-0.057655736804008484,-0.191741943359375,0.067242830991745
1696961457759830300,6.842830322265625,-0.036351077258586884,-0.02343512699007988,0.011850717477500439
1696961457769844000,6.852843994140625,-0.037416309118270874,0.06284874677658081,-0.041410934180021286
1696961457779857400,6.862857421875,-0.041677240282297134,0.1608501821756363,-0.05312849581241608
1696961457789870800,6.872870849609375,-0.04593817517161369,-0.02236989326775074,-0.026497671380639076
1696961457799884500,6.882884521484375,-0.037416309118270874,-0.07243584841489792,0.011850717477500439
1696961457809898000,6.89289794921875,-0.03528584539890289,-0.11184946447610855,-0.013714875094592571
1696961457819911700,6.90291162109375,-0.03848154470324516,0.07989247888326645,-0.03288906812667847
1696961457829925000,6.912925048828125,-0.051264338195323944,0.10758853703737259,-0.052063263952732086
1696961457839938600,6.9229384765625,-0.040612008422613144,-0.0106523297727108,-0.011584409512579441
1696961457849952300,6.9329521484375,-0.031024912372231483,-0.13208889961242676,0.029959678649902344
1696961457859965700,6.942965576171875,-0.04274247586727142,-0.08202294260263443,-0.004127778112888336
1696961457869979400,6.9529794921875,-0.048068638890981674,0.007456631399691105,-0.015845341607928276
1696961457879992800,6.962992919921875,-0.036351077258586884,0.1395455300807953,-0.040345702320337296
1696961457890006300,6.97300634765625,-0.031024912372231483,-0.0021304660476744175,-0.048867564648389816
1696961457900020000,6.98302001953125,-0.029959678649902344,-0.07669677585363388,0.028894444927573204
1696961457910033400,6.993033447265625,-0.031024912372231483,-0.2226337045431137,0.058720968663692474
1696961457920047000,7.003047119140625,-0.036351077258586884,-0.06710968166589737,0.009720250964164734
1696961457930060500,7.013060546875,-0.034220609813928604,0.05965305119752884,-0.015845341607928276
1696961457940074000,7.023073974609375,-0.034220609813928604,0.05113118514418602,-0.010519175790250301
1696961457950087700,7.033087646484375,-0.031024912372231483,0.0319569893181324,-0.0009320789249613881
1696961457960101000,7.04310107421875,-0.024633513763546944,-0.06924014538526535,0.021437814459204674
1696961457970114800,7.05311474609375,-0.031024912372231483,-0.1384802907705307,0.047003407031297684
1696961457980128300,7.063128173828125,-0.03848154470324516,-0.00852186419069767,0.025698747485876083
1696961457990141700,7.0731416015625,-0.024633513763546944,0.10439283400774002,-0.022236740216612816
1696961458000155400,7.0831552734375,-0.028894444927573204,0.05539211630821228,0.0033288532868027687
1696961458010168800,7.0931689453125,-0.026763979345560074,-0.07669677585363388,0.054460037499666214
1696961458020182500,7.1031826171875,-0.025698747485876083,-0.10758853703737259,0.058720968663692474
1696961458030196000,7.113196044921875,-0.025698747485876083,0.012782796286046505,0.017176883295178413
1696961458040209400,7.12320947265625,-0.03209014609456062,0.05432688444852829,-0.007323476951569319
1696961458050223000,7.13322314453125,-0.021437814459204674,0.04687025398015976,0.004394086077809334
1696961458060236500,7.143236572265625,-0.017176883295178413,-0.05219641700387001,0.03209014609456062
1696961458070250200,7.153250244140625,-0.024633513763546944,-0.09480573982000351,0.05232957378029823
1696961458080263700,7.163263671875,-0.013981183059513569,-0.10119713842868805,0.043807707726955414
1696961458090277000,7.173277099609375,-0.015046416781842709,-0.05432688444852829,0.020372580736875534
1696961458100290800,7.183290771484375,-0.019307348877191544,0.01917419396340847,-0.004127778112888336
1696961458110304300,7.19330419921875,-0.018242115154862404,-0.06071828305721283,0.025698747485876083
1696961458120318000,7.20331787109375,-0.024633513763546944,-0.02876129187643528,0.03209014609456062
1696961458130331400,7.213331298828125,-0.024633513763546944,-0.03834838792681694,0.00226362026296556
1696961458140344800,7.2233447265625,-0.019307348877191544,0.0053261648863554,0.006524552125483751
1696961458150358500,7.233358642578125,-0.029959678649902344,0.01491326279938221,-0.008388710208237171
1696961458160372000,7.2433720703125,-0.025698747485876083,0.04154408723115921,-0.0030625448562204838
1696961458170385700,7.2533857421875,-0.025698747485876083,-0.01704372838139534,0.008655018173158169
1696961458180399000,7.263399169921875,-0.033155377954244614,0.01704372838139534,0.016111649572849274
1696961458190412500,7.27341259765625,-0.024633513763546944,0.0021304660476744175,-0.015845341607928276
1696961458200426200,7.28342626953125,-0.028894444927573204,0.04047885537147522,-0.013714875094592571
1696961458210439700,7.293439697265625,-0.023568280041217804,0.04687025398015976,-0.030758604407310486
1696961458220453400,7.303453369140625,-0.019307348877191544,-0.01491326279938221,-0.006258244160562754
1696961458230466800,7.313466796875,-0.021437814459204674,-0.07776200771331787,0.016111649572849274
1696961458240480300,7.323480224609375,-0.023568280041217804,-0.04900071769952774,0.011850717477500439
1696961458250494000,7.333493896484375,-0.026763979345560074,0.0532616525888443,-0.033954303711652756
1696961458260507400,7.34350732421875,-0.023568280041217804,-0.0053261648863554,-0.028628136962652206
1696961458270521000,7.35352099609375,-0.019307348877191544,0.02769605815410614,-0.0009320789249613881
1696961458280534500,7.363534423828125,-0.022503048181533813,-0.04580501839518547,-0.009453942999243736
1696961458290548000,7.3735478515625,-0.024633513763546944,0.0021304660476744175,-0.007323476951569319
1696961458300561700,7.383561767578125,-0.013981183059513569,-0.03621792420744896,-0.001997311832383275
1696961458310575000,7.3935751953125,-0.007589785382151604,-0.07669677585363388,-0.001997311832383275
1696961458320588800,7.4035888671875,-0.023568280041217804,0.05006595328450203,-0.011584409512579441
1696961458330602200,7.413602294921875,-0.016111649572849274,-0.0106523297727108,-0.006258244160562754
1696961458340615700,7.42361572265625,-0.020372580736875534,-0.08202294260263443,0.025698747485876083
1696961458350629400,7.43362939453125,-0.016111649572849274,0.02769605815410614,-0.001997311832383275
1696961458360642800,7.443642822265625,-0.022503048181533813,0.05219641700387001,-0.006258244160562754
1696961458370656500,7.453656494140625,-0.020372580736875534,0.0319569893181324,-0.0030625448562204838
1696961458380670000,7.463669921875,-0.013981183059513569,0.00852186419069767,0.0011983871227130294
1696961458390683400,7.473683349609375,-0.017176883295178413,0.0159784946590662,0.006524552125483751
1696961458400697000,7.483697021484375,-0.023568280041217804,0.0319569893181324,0.008655018173158169
1696961458410710500,7.49371044921875,-0.009720250964164734,0.004260932095348835,-0.001997311832383275
1696961458420724200,7.50372412109375,-0.011850717477500439,-0.0213046595454216,0.006524552125483751
1696961458430737700,7.513737548828125,-0.011850717477500439,0.04367455467581749,-0.004127778112888336
1696961458440751000,7.523751220703125,-0.005459319334477186,-0.10971900075674057,0.024633513763546944
1696961458450764800,7.533764892578125,-0.013981183059513569,-0.01384802907705307,0.009720250964164734
1696961458460778200,7.5437783203125,-0.004394086077809334,-0.05539211630821228,-0.004127778112888336
1696961458470791700,7.553791748046875,-0.013981183059513569,0.03515268862247467,0.0001331541279796511
1696961458480805400,7.563805419921875,-0.005459319334477186,0.0106523297727108,0.006524552125483751
1696961458490818800,7.57381884765625,-0.004394086077809334,-0.01491326279938221,-0.024367205798625946
1696961458500832500,7.58383251953125,-0.017176883295178413,-0.0106523297727108,0.007589785382151604
1696961458510846000,7.593845947265625,0.0009320789249613881,-0.01384802907705307,-0.005193010903894901
1696961458520859400,7.603859375,-0.007589785382151604,0.10119713842868805,-0.035019535571336746
1696961458530873000,7.613873046875,-0.011850717477500439,0.03728315606713295,-0.035019535571336746
1696961458540886500,7.623886474609375,-0.004394086077809334,-0.0958709716796875,-0.008388710208237171
1696961458550900200,7.633900146484375,0.0030625448562204838,-0.09480573982000351,0.004394086077809334
1696961458560913700,7.64391357421875,-0.012915950268507004,-0.0031956990715116262,-0.017975807189941406
1696961458570927000,7.653927001953125,-0.011850717477500439,0.05432688444852829,-0.031823836266994476
1696961458580940800,7.66394091796875,0.004127778112888336,-0.01704372838139534,-0.004127778112888336
1696961458590954200,7.673954345703125,-0.004394086077809334,-0.05113118514418602,0.021437814459204674
1696961458600968000,7.683968017578125,-0.010785484686493874,-0.03941362351179123,0.005459319334477186
1696961458610981400,7.6939814453125,-0.0033288532868027687,-0.012782796286046505,-0.007323476951569319
1696961458620994800,7.703994873046875,-0.011850717477500439,0.02982652559876442,-0.015845341607928276
1696961458631008500,7.714008544921875,-0.013981183059513569,0.06924014538526535,-0.0030625448562204838
1696961458641022000,7.72402197265625,-0.008655018173158169,0.01917419396340847,-0.012649642303586006
1696961458651035600,7.73403564453125,0.0030625448562204838,-0.0852186381816864,0.03954677656292915
1696961458661049000,7.744049072265625,-0.016111649572849274,0.05113118514418602,-0.005193010903894901
1696961458671062500,7.7540625,-0.009720250964164734,0.09161003679037094,-0.020106272771954536
1696961458681076200,7.764076171875,-0.0033288532868027687,-0.05006595328450203,-0.011584409512579441
1696961458691089700,7.774089599609375,-0.004394086077809334,0.05113118514418602,0.010785484686493874
1696961458701103400,7.784103271484375,-0.010785484686493874,-0.02556559257209301,-0.024367205798625946
1696961458711116800,7.79411669921875,-0.006524552125483751,-0.03515268862247467,0.021437814459204674
1696961458721130200,7.804130126953125,-0.018242115154862404,0.04154408723115921,-0.019041040912270546
1696961458731144000,7.81414404296875,-0.0011983871227130294,0.14700216054916382,-0.03928046673536301
1696961458741157400,7.824157470703125,0.005193010903894901,-0.08734910935163498,0.021437814459204674
1696961458751171000,7.834171142578125,-0.005459319334477186,-0.009587096981704235,0.025698747485876083
1696961458761184500,7.8441845703125,-0.023568280041217804,-0.05752258375287056,-0.031823836266994476
1696961458771198000,7.854197998046875,0.008388710208237171,0.09800143539905548,-0.033954303711652756
1696961458781211600,7.864211669921875,-0.006524552125483751,-0.01384802907705307,-0.027562905102968216
1696961458791225000,7.87422509765625,-0.007589785382151604,0.04687025398015976,0.029959678649902344
1696961458801238800,7.88423876953125,-0.0011983871227130294,-0.04154408723115921,0.013981183059513569
1696961458811252200,7.894252197265625,0.005193010903894901,-0.02450035884976387,0.012915950268507004
1696961458821265700,7.904265625,-0.004394086077809334,0.0053261648863554,-0.0009320789249613881
1696961458831279400,7.914279296875,-0.0011983871227130294,0.02023942768573761,-0.001997311832383275
1696961458841292800,7.924292724609375,0.0009320789249613881,0.04473978653550148,0.0001331541279796511
1696961458851306500,7.934306396484375,0.001997311832383275,0.01917419396340847,0.005459319334477186
1696961458861320000,7.94431982421875,0.012649642303586006,-0.09693620353937149,0.027829213067889214
1696961458871333400,7.95433349609375,0.004127778112888336,-0.06071828305721283,0.054460037499666214
1696961458881347000,7.96434716796875,0.006258244160562754,0.05113118514418602,-0.033954303711652756
1696961458891360500,7.974360595703125,0.012649642303586006,0.02450035884976387,0.024633513763546944
1696961458901374200,7.984374267578125,0.004127778112888336,0.0053261648863554,0.024633513763546944
1696961458911387600,7.9943876953125,0.006258244160562754,0.02876129187643528,0.023568280041217804
1696961458921401000,8.004401123046875,0.004127778112888336,0.009587096981704235,0.023568280041217804
1696961458931414800,8.014414794921874,0.0030625448562204838,0.02982652559876442,0.011850717477500439
1696961458941428200,8.02442822265625,0.005193010903894901,0.12250179797410965,-0.005193010903894901
1696961458951442000,8.03444189453125,0.014780107885599136,0.02236989326775074,0.033155377954244614
1696961458961455400,8.044455322265625,0.0030625448562204838,0.07989247888326645,0.007589785382151604
1696961458971468800,8.05446875,0.011584409512579441,-0.02023942768573761,0.023568280041217804
1696961458981482500,8.064482421875,0.017975807189941406,0.03302222490310669,0.005459319334477186
1696961458991496000,8.074495849609375,0.014780107885599136,0.02982652559876442,-0.0009320789249613881
1696961459001509600,8.084509521484375,0.014780107885599136,0.09480573982000351,-0.017975807189941406
1696961459011523000,8.094523193359375,0.025432437658309937,0.03941362351179123,-0.019041040912270546
1696961459021536500,8.10453662109375,0.020106272771954536,-0.05858781561255455,0.019307348877191544
1696961459031550200,8.11455029296875,0.026497671380639076,-0.02450035884976387,0.019307348877191544
1696961459041563600,8.124563720703126,0.025432437658309937,0.07243584841489792,-0.044606633484363556
1696961459051577300,8.134577392578125,0.026497671380639076,-0.0159784946590662,-0.016910573467612267
1696961459061590800,8.1445908203125,0.025432437658309937,0.0319569893181324,-0.013714875094592571
1696961459071604200,8.154604248046875,0.023301972076296806,-0.02982652559876442,-0.021171506494283676
1696961459081618000,8.164617919921875,0.033954303711652756,-0.09267527610063553,0.007589785382151604
1696961459091631400,8.17463134765625,0.03288906812667847,-0.02023942768573761,-0.015845341607928276
1696961459101645000,8.18464501953125,0.014780107885599136,0.0426093190908432,-0.027562905102968216
1696961459111658500,8.194658447265626,0.023301972076296806,0.06178351491689682,-0.021171506494283676
1696961459121672000,8.204671875,0.028628136962652206,-0.03728315606713295,0.017176883295178413
1696961459131685600,8.214685546875,0.024367205798625946,-0.06284874677658081,0.022503048181533813
1696961459141699000,8.224698974609375,0.017975807189941406,0.12569749355316162,-0.048867564648389816
1696961459151712800,8.234712646484375,0.024367205798625946,0.02663082629442215,0.0011983871227130294
1696961459161726200,8.244726318359374,0.016910573467612267,0.0106523297727108,0.011850717477500439
1696961459171739600,8.25473974609375,0.020106272771954536,0.06284874677658081,-0.006258244160562754
1696961459181753300,8.26475341796875,0.029693370684981346,0.04580501839518547,-0.007323476951569319
1696961459191766800,8.274766845703125,0.030758604407310486,-0.08947957307100296,0.026763979345560074
1696961459201780200,8.2847802734375,0.025432437658309937,-0.02769605815410614,0.027829213067889214
1696961459211794000,8.2947939453125,0.038215234875679016,0.05113118514418602,-0.03288906812667847
1696961459221807400,8.304807373046875,0.021171506494283676,0.02343512699007988,0.018242115154862404
1696961459231821000,8.314821044921874,0.028628136962652206,-0.0319569893181324,0.03209014609456062
1696961459241834500,8.32483447265625,0.03608476743102074,-0.12463226169347763,0.037416309118270874
1696961459251848000,8.334847900390624,0.026497671380639076,0.08202294260263443,-0.016910573467612267
1696961459261861600,8.344861572265625,0.021171506494283676,0.10226237028837204,-0.006258244160562754
1696961459271875000,8.354875,0.015845341607928276,0.02236989326775074,0.025698747485876083
1696961459281888800,8.364888671875,0.024367205798625946,0.00852186419069767,0.036351077258586884
1696961459291902200,8.374902099609375,0.022236740216612816,0.04580501839518547,-0.006258244160562754
1696961459301915600,8.38491552734375,0.021171506494283676,0.10758853703737259,-0.008388710208237171
1696961459311929300,8.394929443359375,0.025432437658309937,-0.01171756349503994,0.015046416781842709
1696961459321942800,8.40494287109375,0.017975807189941406,0.06178351491689682,-0.0030625448562204838
1696961459331956500,8.41495654296875,0.03608476743102074,0.02769605815410614,-0.021171506494283676
1696961459341970000,8.424969970703126,0.03608476743102074,-0.02023942768573761,0.03848154470324516
1696961459351983400,8.4349833984375,0.03608476743102074,-0.12356702983379364,-0.007323476951569319
1696961459361997000,8.4449970703125,0.035019535571336746,0.0159784946590662,0.004394086077809334
1696961459372010500,8.455010498046875,0.03288906812667847,0.0426093190908432,-0.03608476743102074
1696961459382024200,8.465024169921875,0.031823836266994476,-0.03621792420744896,0.03209014609456062
1696961459392037600,8.47503759765625,0.040345702320337296,-0.0745663121342659,0.017176883295178413
1696961459402051000,8.485051025390625,0.033954303711652756,-0.06497921794652939,-0.0009320789249613881
1696961459412064800,8.495064697265626,0.033954303711652756,-0.007456631399691105,0.007589785382151604
1696961459422078200,8.505078125,0.03288906812667847,-0.01810896210372448,-0.0030625448562204838
1696961459432092000,8.515091796875,0.030758604407310486,0.02023942768573761,0.008655018173158169
1696961459442105300,8.525105224609375,0.028628136962652206,-0.03621792420744896,0.010785484686493874
1696961459452118800,8.535118896484375,0.024367205798625946,0.0639139786362648,-0.011584409512579441
1696961459462132500,8.545132568359374,0.028628136962652206,-0.0426093190908432,0.015046416781842709
1696961459472146000,8.55514599609375,0.020106272771954536,0.07243584841489792,-0.001997311832383275
1696961459482159600,8.56515966796875,0.016910573467612267,0.10545806586742401,-0.040345702320337296
1696961459492173000,8.575173095703125,0.025432437658309937,-0.007456631399691105,0.012915950268507004
1696961459502186500,8.5851865234375,0.023301972076296806,0.03515268862247467,0.013981183059513569
1696961459512200200,8.5952001953125,0.035019535571336746,0.03941362351179123,-0.03288906812667847
1696961459522213600,8.605213623046875,0.024367205798625946,-0.03834838792681694,0.004394086077809334
1696961459532227300,8.615227294921874,0.022236740216612816,0.01917419396340847,-0.011584409512579441
1696961459542240800,8.62524072265625,0.030758604407310486,0.05006595328450203,-0.014780107885599136
1696961459552254200,8.635254150390624,0.040345702320337296,-0.08095771074295044,0.00226362026296556
1696961459562268000,8.645267822265625,0.021171506494283676,-0.13102366030216217,0.033155377954244614
1696961459572281300,8.65528125,0.013714875094592571,0.191741943359375,-0.041410934180021286
1696961459582295000,8.665294921875,0.016910573467612267,0.02236989326775074,-0.0030625448562204838
1696961459592308500,8.67530859375,0.029693370684981346,-0.10013190656900406,0.037416309118270874
1696961459602322000,8.685322021484374,0.005193010903894901,0.04687025398015976,-0.026497671380639076
1696961459612335600,8.695335693359375,0.011584409512579441,0.191741943359375,-0.03928046673536301
1696961459622349000,8.70534912109375,0.024367205798625946,-0.07776200771331787,0.006524552125483751
1696961459632362800,8.71536279296875,0.026497671380639076,-0.0319569893181324,0.021437814459204674
1696961459642376200,8.725376220703126,0.013714875094592571,-0.02556559257209301,-0.033954303711652756
1696961459652389600,8.7353896484375,0.011584409512579441,0.04473978653550148,0.0001331541279796511
1696961459662403300,8.7454033203125,0.026497671380639076,0.009587096981704235,-0.020106272771954536
1696961459672416800,8.755416748046875,0.023301972076296806,-0.0639139786362648,-0.005193010903894901
1696961459682430500,8.765430419921875,0.007323476951569319,0.0053261648863554,-0.009453942999243736
1696961459692444000,8.77544384765625,0.019041040912270546,0.04687025398015976,-0.024367205798625946
1696961459702457300,8.785457275390625,0.027562905102968216,-0.09267527610063553,0.019307348877191544
1696961459712471000,8.795470947265626,0.014780107885599136,-0.05006595328450203,-0.004127778112888336
1696961459722484500,8.805484375,-0.0001331541279796511,0.11611039936542511,-0.027562905102968216
1696961459732498200,8.815498291015626,0.013714875094592571,0.004260932095348835,-0.008388710208237171
1696961459742511600,8.82551171875,0.009453942999243736,-0.007456631399691105,0.0001331541279796511
1696961459752525000,8.835525146484375,0.011584409512579441,0.04154408723115921,-0.03608476743102074
1696961459762538800,8.845538818359374,0.012649642303586006,0.01171756349503994,0.00226362026296556
1696961459772552200,8.85555224609375,-0.0001331541279796511,0.0213046595454216,-0.005193010903894901
1696961459782566000,8.86556591796875,0.014780107885599136,0.04047885537147522,-0.025432437658309937
1696961459792579300,8.875579345703125,0.009453942999243736,-0.009587096981704235,-0.010519175790250301
1696961459802592800,8.8855927734375,-0.0001331541279796511,0.05752258375287056,-0.012649642303586006
1696961459812606500,8.8956064453125,0.008388710208237171,0.0426093190908432,-0.011584409512579441
1696961459822620000,8.905619873046875,0.013714875094592571,-0.02876129187643528,0.0001331541279796511
1696961459832633600,8.915633544921874,0.0030625448562204838,0.05113118514418602,-0.001997311832383275
1696961459842647000,8.92564697265625,0.012649642303586006,-0.01171756349503994,0.008655018173158169
1696961459852660500,8.935660400390624,0.012649642303586006,-0.06604444980621338,0.018242115154862404
1696961459862674200,8.945674072265625,-0.006524552125483751,0.14061075448989868,-0.011584409512579441
1696961459872687600,8.9556875,0.004127778112888336,-0.01704372838139534,0.007589785382151604
1696961459882701000,8.965701171875,0.0030625448562204838,0.0031956990715116262,0.03209014609456062
1696961459892714800,8.97571484375,0.007323476951569319,-0.004260932095348835,-0.004127778112888336
1696961459902728200,8.985728271484374,-0.006524552125483751,0.11078423261642456,0.004394086077809334
1696961459912742000,8.995741943359375,0.0030625448562204838,-0.02343512699007988,0.012915950268507004
1696961459922755300,9.00575537109375,-0.008655018173158169,0.02769605815410614,0.0033288532868027687
1696961459932768800,9.015768798828125,0.008388710208237171,0.03515268862247467,0.013981183059513569
1696961459942782500,9.025782470703126,-0.006524552125483751,0.0159784946590662,0.017176883295178413
1696961459952796000,9.0357958984375,-0.006524552125483751,0.08308817446231842,-0.013714875094592571
1696961459962809600,9.0458095703125,0.0009320789249613881,0.04687025398015976,-0.009453942999243736
1696961459972823000,9.055822998046875,0.005193010903894901,0.0010652330238372087,0.019307348877191544
1696961459982836500,9.06583642578125,-0.0011983871227130294,0.0532616525888443,0.004394086077809334
1696961459992850200,9.07585009765625,0.009453942999243736,-0.06924014538526535,0.021437814459204674
1696961460002863600,9.085863525390625,-0.004394086077809334,0.00852186419069767,0.006524552125483751
1696961460012877300,9.095877197265626,0.0009320789249613881,0.02023942768573761,0.0011983871227130294
1696961460022890800,9.105890869140625,0.007323476951569319,0.0213046595454216,0.0001331541279796511
1696961460032904200,9.115904296875,-0.0001331541279796511,-0.07350108027458191,0.013981183059513569
1696961460042918000,9.12591796875,-0.006524552125483751,0.09693620353937149,-0.0030625448562204838
1696961460052931300,9.135931396484375,-0.005459319334477186,0.03621792420744896,-0.0009320789249613881
1696961460062945000,9.145945068359374,-0.013981183059513569,0.03941362351179123,-0.021171506494283676
1696961460072958500,9.15595849609375,-0.008655018173158169,0.0426093190908432,0.006524552125483751
1696961460082972000,9.165971923828126,-0.016111649572849274,0.10758853703737259,-0.017975807189941406
1696961460092985600,9.175985595703125,-0.006524552125483751,0.03834838792681694,-0.017975807189941406
1696961460102999000,9.1859990234375,-0.006524552125483751,-0.03941362351179123,0.013981183059513569
1696961460113012700,9.1960126953125,-0.016111649572849274,0.05645735189318657,-0.011584409512579441
1696961460123026200,9.206026123046875,-0.0033288532868027687,0.08095771074295044,-0.048867564648389816
1696961460133039600,9.21603955078125,-0.005459319334477186,-0.004260932095348835,-0.004127778112888336
1696961460143053300,9.22605322265625,-0.0001331541279796511,-0.09374050796031952,0.007589785382151604
1696961460153066800,9.236066650390624,-0.012915950268507004,0.01384802907705307,-0.008388710208237171
1696961460163080400,9.24608056640625,-0.011850717477500439,0.04473978653550148,-0.042476166039705276
1696961460173094000,9.256093994140626,-0.020372580736875534,0.03728315606713295,-0.015845341607928276
1696961460183107600,9.266107666015625,-0.0011983871227130294,0.02236989326775074,-0.030758604407310486
1696961460193121000,9.27612109375,-0.015046416781842709,-0.07350108027458191,0.004394086077809334
1696961460203134700,9.286134765625,-0.03954677656292915,0.12143656611442566,-0.060585130006074905
1696961460213148200,9.296148193359375,-0.007589785382151604,0.06710968166589737,-0.033954303711652756
1696961460223161900,9.306161865234374,-0.019307348877191544,-0.02663082629442215,-0.024367205798625946
1696961460233175600,9.316175537109375,-0.033155377954244614,0.04900071769952774,-0.047802332788705826
1696961460243189000,9.32618896484375,-0.012915950268507004,-0.01491326279938221,-0.03928046673536301
1696961460253202700,9.33620263671875,-0.009720250964164734,0.01704372838139534,-0.029693370684981346
1696961460263216000,9.346216064453126,-0.020372580736875534,0.0010652330238372087,-0.054193731397390366
1696961460273229800,9.356229736328125,-0.011850717477500439,-0.08202294260263443,-0.021171506494283676
1696961460283243500,9.366243408203125,-0.017176883295178413,0.10971900075674057,-0.06591129302978516
1696961460293257000,9.376257080078124,-0.018242115154862404,-0.0053261648863554,-0.026497671380639076
1696961460303270700,9.386270751953125,-0.016111649572849274,-0.09374050796031952,0.004394086077809334
1696961460313284000,9.3962841796875,-0.018242115154862404,0.02982652559876442,-0.047802332788705826
1696961460323297800,9.4062978515625,-0.016111649572849274,0.02450035884976387,-0.015845341607928276
1696961460333311500,9.4163115234375,-0.021437814459204674,-0.01491326279938221,0.0011983871227130294
1696961460343325000,9.426324951171875,-0.021437814459204674,-0.0053261648863554,0.0001331541279796511
1696961460353338600,9.436338623046876,-0.020372580736875534,0.03834838792681694,-0.012649642303586006
1696961460363352000,9.44635205078125,-0.022503048181533813,-0.01917419396340847,0.006524552125483751
1696961460373365800,9.45636572265625,-0.029959678649902344,0.05965305119752884,-0.015845341607928276
1696961460383379500,9.46637939453125,-0.016111649572849274,0.10013190656900406,-0.019041040912270546
1696961460393393000,9.476392822265625,-0.018242115154862404,-0.05006595328450203,0.033155377954244614
1696961460403406600,9.486406494140626,-0.026763979345560074,0.012782796286046505,0.017176883295178413
1696961460413420000,9.496419921875,-0.021437814459204674,0.11184946447610855,-0.019041040912270546
1696961460423433700,9.506433837890626,-0.025698747485876083,0.04047885537147522,0.004394086077809334
1696961460433447400,9.516447509765625,-0.031024912372231483,0.03834838792681694,0.025698747485876083
1696961460443460900,9.5264609375,-0.016111649572849274,0.02876129187643528,-0.008388710208237171
1696961460453474600,9.536474609375,-0.011850717477500439,-0.01384802907705307,0.040612008422613144
1696961460463488000,9.546488037109375,-0.013981183059513569,-0.07882724702358246,0.04593817517161369
1696961460473501700,9.556501708984374,-0.017176883295178413,0.0010652330238372087,0.016111649572849274
1696961460483515100,9.56651513671875,-0.018242115154862404,-0.004260932095348835,0.031024912372231483
1696961460493528800,9.57652880859375,-0.017176883295178413,-0.01384802907705307,0.022503048181533813
1696961460503542300,9.586542236328125,-0.023568280041217804,-0.02556559257209301,0.025698747485876083
1696961460513555700,9.5965556640625,-0.022503048181533813,0.03834838792681694,0.012915950268507004
1696961460523569400,9.6065693359375,-0.013981183059513569,-0.00852186419069767,0.023568280041217804
1696961460533582800,9.616582763671875,-0.021437814459204674,0.01917419396340847,0.019307348877191544
1696961460543596500,9.626596435546874,-0.018242115154862404,-0.03941362351179123,0.029959678649902344
1696961460553610000,9.63660986328125,-0.018242115154862404,0.04047885537147522,0.018242115154862404
1696961460563623400,9.64662353515625,-0.016111649572849274,-0.05752258375287056,0.041677240282297134
1696961460573637000,9.65663720703125,-0.015046416781842709,-0.0021304660476744175,0.0001331541279796511
1696961460583650600,9.666650634765626,-0.013981183059513569,0.11397993564605713,-0.010519175790250301
1696961460593664300,9.676664306640625,-0.008655018173158169,-0.16617634892463684,0.040612008422613144
1696961460603677700,9.686677734375,-0.011850717477500439,-0.05645735189318657,0.06511236727237701
1696961460613691100,9.696691162109374,-0.011850717477500439,-0.0053261648863554,-0.03288906812667847
1696961460623704800,9.706704833984375,-0.013981183059513569,0.04367455467581749,0.007589785382151604
1696961460633718300,9.71671826171875,-0.016111649572849274,-0.10971900075674057,0.031024912372231483
1696961460643732000,9.72673193359375,-0.020372580736875534,0.02982652559876442,-0.004127778112888336
1696961460653745400,9.736745361328126,-0.015046416781842709,0.02236989326775074,-0.013714875094592571
1696961460663758800,9.7467587890625,-0.018242115154862404,-0.01171756349503994,0.010785484686493874
1696961460673772500,9.7567724609375,-0.023568280041217804,-0.03302222490310669,-0.005193010903894901
1696961460683786000,9.766785888671874,-0.017176883295178413,0.10226237028837204,-0.044606633484363556
1696961460693799700,9.776799560546875,-0.017176883295178413,-0.05539211630821228,0.004394086077809334
1696961460703813000,9.786813232421874,-0.020372580736875534,0.01384802907705307,-0.014780107885599136
1696961460713826600,9.79682666015625,-0.024633513763546944,0.05113118514418602,-0.027562905102968216
1696961460723840300,9.80684033203125,-0.017176883295178413,0.0532616525888443,-0.025432437658309937
1696961460733853700,9.816853759765625,-0.027829213067889214,0.07243584841489792,-0.033954303711652756
1696961460743867400,9.826867431640625,-0.015046416781842709,-0.06817491352558136,-0.004127778112888336
1696961460753880800,9.836880859375,-0.019307348877191544,0.10865376889705658,-0.033954303711652756
1696961460763894300,9.846894287109375,-0.013981183059513569,-0.02982652559876442,-0.011584409512579441
1696961460773908000,9.856907958984374,-0.011850717477500439,-0.06817491352558136,-0.001997311832383275
1696961460783921400,9.86692138671875,-0.019307348877191544,-0.02023942768573761,-0.004127778112888336
1696961460793935000,9.87693505859375,-0.024633513763546944,0.07989247888326645,-0.016910573467612267
1696961460803948500,9.886948486328125,-0.019307348877191544,-0.07776200771331787,-0.015845341607928276
1696961460813962000,9.8969619140625,-0.015046416781842709,-0.05219641700387001,0.013981183059513569
1696961460823975700,9.9069755859375,-0.023568280041217804,-0.0106523297727108,-0.020106272771954536
1696961460833989000,9.916989013671875,-0.017176883295178413,0.01917419396340847,-0.0009320789249613881
1696961460844002800,9.9270029296875,-0.011850717477500439,-0.11291470378637314,0.012915950268507004
1696961460854016300,9.937016357421875,-0.016111649572849274,-0.10226237028837204,0.024633513763546944
1696961460864029700,9.94702978515625,-0.020372580736875534,0.10332760214805603,-0.026497671380639076
1696961460874043400,9.95704345703125,-0.023568280041217804,-0.04900071769952774,0.021437814459204674
1696961460884056800,9.967056884765626,-0.024633513763546944,0.03089175745844841,0.009720250964164734
1696961460894070500,9.977070556640625,-0.016111649572849274,-0.03834838792681694,0.018242115154862404
1696961460904084000,9.987083984375,-0.031024912372231483,0.06071828305721283,0.016111649572849274
1696961460914097400,9.997097412109374,-0.021437814459204674,-0.01810896210372448,0.048068638890981674
1696961460924111000,10.007111083984375,-0.027829213067889214,0.04687025398015976,0.016111649572849274
1696961460934124500,10.01712451171875,-0.029959678649902344,0.0958709716796875,0.012915950268507004
1696961460944138000,10.027137939453125,-0.029959678649902344,-0.009587096981704235,0.034220609813928604
1696961460954151700,10.037151611328126,-0.024633513763546944,0.0639139786362648,0.013981183059513569
1696961460964165000,10.0471650390625,-0.015046416781842709,-0.01917419396340847,0.04274247586727142
1696961460974178800,10.0571787109375,-0.023568280041217804,0.009587096981704235,0.013981183059513569
1696961460984192300,10.067192138671874,-0.010785484686493874,-0.00852186419069767,0.022503048181533813
1696961460994205700,10.077205810546875,-0.004394086077809334,-0.04900071769952774,0.03848154470324516
1696961461004219400,10.087219482421874,-0.011850717477500439,-0.02023942768573761,0.018242115154862404
1696961461014232800,10.09723291015625,-0.006524552125483751,-0.02663082629442215,0.040612008422613144
1696961461024246500,10.10724658203125,-0.010785484686493874,0.01384802907705307,-0.0009320789249613881
1696961461034260000,10.117260009765625,-0.005459319334477186,-0.01171756349503994,0.020372580736875534
1696961461044273400,10.1272734375,-0.011850717477500439,-0.0319569893181324,0.025698747485876083
1696961461054287000,10.137287109375,-0.015046416781842709,0.06178351491689682,-0.009453942999243736
1696961461064300500,10.147300537109375,-0.006524552125483751,0.004260932095348835,0.019307348877191544
1696961461074314200,10.157314208984374,-0.009720250964164734,-0.012782796286046505,0.015046416781842709
1696961461084327700,10.16732763671875,-0.020372580736875534,0.13102366030216217,-0.019041040912270546
1696961461094341000,10.177341064453126,-0.016111649572849274,0.0319569893181324,-0.004127778112888336
1696961461104354800,10.187354736328125,-0.006524552125483751,-0.0106523297727108,0.009720250964164734
1696961461114368300,10.1973681640625,-0.020372580736875534,0.09054480493068695,-0.025432437658309937
1696961461124382000,10.2073818359375,-0.00226362026296556,0.0532616525888443,-0.026497671380639076
1696961461134395400,10.2173955078125,-0.0001331541279796511,-0.05645735189318657,-0.005193010903894901
1696961461144408800,10.227408935546874,0.0030625448562204838,-0.0063913981430232525,-0.019041040912270546
1696961461154422500,10.237422607421875,0.0009320789249613881,-0.02663082629442215,-0.025432437658309937
1696961461164436000,10.24743603515625,0.012649642303586006,-0.009587096981704235,-0.03288906812667847
1696961461174449700,10.25744970703125,0.001997311832383275,-0.0639139786362648,-0.015845341607928276
1696961461184463000,10.267463134765626,0.004127778112888336,-0.009587096981704235,-0.05312849581241608
1696961461194476500,10.2774765625,0.0030625448562204838,-0.0031956990715116262,-0.040345702320337296
1696961461204490200,10.287490234375,0.010519175790250301,-0.05219641700387001,-0.035019535571336746
1696961461214503700,10.297503662109374,0.008388710208237171,-0.05858781561255455,-0.014780107885599136
1696961461224517400,10.307517333984375,-0.0001331541279796511,0.02023942768573761,-0.06271559745073318
1696961461234530800,10.31753076171875,-0.016111649572849274,0.06924014538526535,-0.04673709720373154
1696961461244544300,10.327544189453125,-0.0011983871227130294,0.012782796286046505,-0.035019535571336746
1696961461254558000,10.337557861328126,-0.004394086077809334,-0.007456631399691105,-0.029693370684981346
1696961461264571400,10.3475712890625,-0.006524552125483751,0.07882724702358246,-0.059519894421100616
1696961461274585000,10.357585205078125,0.006258244160562754,-0.0532616525888443,0.00226362026296556
1696961461284598500,10.3675986328125,-0.004394086077809334,0.04793548583984375,-0.038215234875679016
1696961461294612000,10.377612060546875,-0.006524552125483751,0.04473978653550148,-0.027562905102968216
1696961461304625700,10.387625732421874,-0.004394086077809334,0.04047885537147522,-0.025432437658309937
1696961461314639000,10.39763916015625,-0.004394086077809334,0.01810896210372448,-0.005193010903894901
1696961461324652800,10.40765283203125,0.001997311832383275,0.0639139786362648,-0.033954303711652756
1696961461334666200,10.417666259765625,-0.004394086077809334,-0.03728315606713295,0.007589785382151604
1696961461344679700,10.4276796875,0.0009320789249613881,0.0639139786362648,-0.011584409512579441
1696961461354693400,10.437693359375,0.007323476951569319,-0.01810896210372448,0.007589785382151604
1696961461364706800,10.447706787109375,0.0030625448562204838,-0.02556559257209301,0.029959678649902344
1696961461374720500,10.457720458984374,0.0009320789249613881,-0.03302222490310669,0.024633513763546944
1696961461384734000,10.46773388671875,-0.0001331541279796511,0.012782796286046505,0.019307348877191544
1696961461394747400,10.477747314453126,0.0030625448562204838,-0.012782796286046505,0.037416309118270874
1696961461404761000,10.487760986328125,-0.00226362026296556,-0.01491326279938221,0.047003407031297684
1696961461414774500,10.4977744140625,-0.0001331541279796511,0.0426093190908432,0.022503048181533813
1696961461424788200,10.507788330078125,0.0009320789249613881,-0.04154408723115921,0.06830807030200958
1696961461434801700,10.5178017578125,-0.00226362026296556,0.03941362351179123,0.031024912372231483
1696961461444815000,10.527815185546874,-0.007589785382151604,0.0426093190908432,0.037416309118270874
1696961461454828800,10.537828857421875,-0.004394086077809334,0.0426093190908432,0.03954677656292915
1696961461464842200,10.54784228515625,-0.004394086077809334,-0.01171756349503994,0.041677240282297134
1696961461474856000,10.55785595703125,0.005193010903894901,0.0213046595454216,0.023568280041217804
1696961461484869400,10.567869384765626,0.008388710208237171,-0.06604444980621338,0.033155377954244614
1696961461494882800,10.5778828125,-0.004394086077809334,0.04580501839518547,0.033155377954244614
1696961461504896500,10.587896484375,-0.0001331541279796511,0.05432688444852829,0.006524552125483751
1696961461514910000,10.597909912109374,0.0030625448562204838,-0.04367455467581749,0.040612008422613144
1696961461524923400,10.60792333984375,0.004127778112888336,-0.0159784946590662,0.026763979345560074
1696961461534937000,10.61793701171875,0.004127778112888336,0.01171756349503994,0.004394086077809334
1696961461544950500,10.627950439453125,-0.011850717477500439,0.08841434121131897,-0.007323476951569319
1696961461554964000,10.6379638671875,0.004127778112888336,0.02023942768573761,-0.010519175790250301
1696961461564977400,10.647977294921875,0.004127778112888336,0,-0.0009320789249613881
1696961461574990800,10.657990966796875,0.0030625448562204838,0.01384802907705307,0.0011983871227130294
1696961461585004300,10.66800439453125,0.004127778112888336,0.05113118514418602,-0.038215234875679016
1696961461595018000,10.67801806640625,0.016910573467612267,-0.0426093190908432,-0.019041040912270546
1696961461605031400,10.688031494140626,0.0009320789249613881,0.04900071769952774,-0.026497671380639076
1696961461615044900,10.698044921875,0.0009320789249613881,0.05113118514418602,-0.047802332788705826
1696961461625058300,10.708058349609376,0.016910573467612267,-0.08202294260263443,-0.019041040912270546
1696961461635071700,10.71807177734375,0.010519175790250301,0.00852186419069767,-0.04993279650807381
1696961461645085400,10.72808544921875,-0.0001331541279796511,0.08415340632200241,-0.06591129302978516
1696961461655099000,10.738098876953124,0.017975807189941406,-0.04047885537147522,-0.009453942999243736
1696961461665112300,10.7481123046875,0.021171506494283676,-0.1278279572725296,0.0011983871227130294
1696961461675125800,10.758125732421876,0.008388710208237171,0.02236989326775074,-0.061650361865758896
1696961461685139200,10.76813916015625,0.0030625448562204838,0,-0.038215234875679016
1696961461695153000,10.77815283203125,0.019041040912270546,0.007456631399691105,-0.048867564648389816
1696961461705166300,10.788166259765624,0.010519175790250301,-0.0319569893181324,-0.006258244160562754
1696961461715179800,10.7981796875,0.015845341607928276,-0.01704372838139534,-0.031823836266994476
1696961461725193200,10.808193115234374,0.009453942999243736,-0.04367455467581749,-0.04673709720373154
1696961461735206700,10.81820654296875,0.019041040912270546,0.007456631399691105,-0.017975807189941406
1696961461745220400,10.828220458984376,0.014780107885599136,-0.03515268862247467,-0.022236740216612816
1696961461755233800,10.83823388671875,-0.008655018173158169,0.1821548491716385,-0.06378082931041718
1696961461765247200,10.848247314453126,0.017975807189941406,-0.05645735189318657,-0.012649642303586006
1696961461775260700,10.8582607421875,0.011584409512579441,-0.03834838792681694,0.017176883295178413
1696961461785274000,10.868274169921875,-0.0001331541279796511,0.12995843589305878,-0.026497671380639076
1696961461795287800,10.878287841796874,0.016910573467612267,-0.03621792420744896,-0.0030625448562204838
1696961461805301200,10.88830126953125,0.015845341607928276,-0.01704372838139534,0.020372580736875534
1696961461815314700,10.898314697265626,-0.004394086077809334,0.09906667470932007,-0.0009320789249613881
1696961461825328000,10.908328125,0.008388710208237171,-0.007456631399691105,0.020372580736875534
1696961461835341600,10.918341552734375,0.010519175790250301,-0.01384802907705307,0.027829213067889214
1696961461845355300,10.928355224609374,0.019041040912270546,0.01491326279938221,0.012915950268507004
1696961461855368700,10.93836865234375,0.010519175790250301,-0.02663082629442215,0.03209014609456062
1696961461865382100,10.948382080078124,0.011584409512579441,-0.02876129187643528,0.03848154470324516
1696961461875395600,10.9583955078125,0.012649642303586006,-0.0532616525888443,0.043807707726955414
1696961461885409300,10.9684091796875,0.012649642303586006,0.0532616525888443,0.018242115154862404
1696961461895422700,10.978422607421875,0.017975807189941406,-0.11611039936542511,0.050199106335639954
1696961461905436200,10.988436279296875,0.011584409512579441,0.05006595328450203,0.027829213067889214
1696961461915449900,10.998449951171875,0.011584409512579441,-0.06604444980621338,0.04913387447595596
1696961461925463300,11.00846337890625,0.009453942999243736,0.08308817446231842,0.021437814459204674
1696961461935477000,11.01847705078125,0.022236740216612816,-0.0958709716796875,0.044872939586639404
1696961461945490400,11.028490478515625,0.008388710208237171,0.05752258375287056,0.026763979345560074
1696961461955503900,11.03850390625,-0.005459319334477186,0.06817491352558136,0.005459319334477186
1696961461965517600,11.048517578125,0.013714875094592571,0.01917419396340847,0.04274247586727142
1696961461975531000,11.058531005859376,0.007323476951569319,0.0159784946590662,0.015046416781842709
1696961461985544700,11.068544677734375,0.011584409512579441,0.04047885537147522,0.021437814459204674
1696961461995558100,11.07855810546875,0.013714875094592571,0.009587096981704235,0.009720250964164734
1696961462005571600,11.088571533203124,0.016910573467612267,0.06284874677658081,0.007589785382151604
1696961462015585300,11.098585205078125,0.0030625448562204838,0.05752258375287056,0.00226362026296556
1696961462025598700,11.1085986328125,0.024367205798625946,0,0.028894444927573204
1696961462035612400,11.1186123046875,0.021171506494283676,-0.0053261648863554,0.0001331541279796511
1696961462045625900,11.1286259765625,0.017975807189941406,0.10758853703737259,-0.023301972076296806
1696961462055639300,11.138639404296875,0.016910573467612267,-0.02556559257209301,0.015046416781842709
1696961462065653000,11.148653076171875,0.024367205798625946,0.02556559257209301,0.0033288532868027687
1696961462075666400,11.15866650390625,0.025432437658309937,0.09693620353937149,-0.021171506494283676
1696961462085680000,11.16868017578125,0.027562905102968216,-0.0745663121342659,0.021437814459204674
1696961462095693600,11.178693603515624,0.020106272771954536,0.0010652330238372087,-0.006258244160562754
1696961462105707000,11.18870703125,0.03288906812667847,0.06497921794652939,-0.019041040912270546
1696961462115720700,11.198720703125,0.029693370684981346,-0.11291470378637314,0.040612008422613144
1696961462125734100,11.208734130859375,0.028628136962652206,0.0063913981430232525,0.005459319334477186
1696961462135747800,11.218747802734375,0.020106272771954536,-0.0021304660476744175,0.0001331541279796511
1696961462145761300,11.22876123046875,0.021171506494283676,0.10119713842868805,-0.013714875094592571
1696961462155774700,11.238774658203125,0.022236740216612816,-0.0319569893181324,0.008655018173158169
1696961462165788400,11.248788330078124,0.020106272771954536,0.02982652559876442,0.011850717477500439
1696961462175801900,11.2588017578125,0.017975807189941406,0.04047885537147522,0.0001331541279796511
1696961462185815600,11.268815673828126,0.013714875094592571,0.08947957307100296,-0.025432437658309937
1696961462195829000,11.2788291015625,0.020106272771954536,0.05645735189318657,-0.012649642303586006
1696961462205842400,11.288842529296875,0.024367205798625946,-0.03089175745844841,0.00226362026296556
1696961462215856000,11.298856201171875,0.022236740216612816,0.06178351491689682,-0.015845341607928276
1696961462225869600,11.30886962890625,0.013714875094592571,0.10545806586742401,-0.038215234875679016
1696961462235883300,11.31888330078125,0.024367205798625946,-0.03515268862247467,-0.015845341607928276
1696961462245896700,11.328896728515625,0.025432437658309937,0.0213046595454216,-0.010519175790250301
1696961462255910100,11.33891015625,0.019041040912270546,0.007456631399691105,-0.022236740216612816
1696961462265923800,11.348923828125,0.026497671380639076,0.0532616525888443,-0.045671865344047546
1696961462275937300,11.358937255859376,0.021171506494283676,-0.0213046595454216,-0.006258244160562754
1696961462285951000,11.368950927734375,0.016910573467612267,0.04687025398015976,-0.030758604407310486
1696961462295964400,11.37896435546875,0.020106272771954536,0.06284874677658081,-0.045671865344047546
1696961462305977900,11.388977783203124,0.033954303711652756,-0.09054480493068695,0.005459319334477186
1696961462315991600,11.398991455078125,0.027562905102968216,-0.007456631399691105,-0.029693370684981346
1696961462326005000,11.4090048828125,0.016910573467612267,0.02769605815410614,-0.030758604407310486
1696961462336018700,11.419018798828125,0.037150003015995026,-0.0426093190908432,-0.0030625448562204838
1696961462346032000,11.4290322265625,0.014780107885599136,0.01491326279938221,-0.025432437658309937
1696961462356045600,11.439045654296875,0.010519175790250301,0.10119713842868805,-0.011584409512579441
1696961462366059300,11.449059326171875,0.022236740216612816,0.01491326279938221,-0.009453942999243736
1696961462376072700,11.45907275390625,0.024367205798625946,-0.07243584841489792,0.018242115154862404
1696961462386086400,11.46908642578125,0.017975807189941406,0.08415340632200241,-0.016910573467612267
1696961462396099800,11.479099853515624,0.019041040912270546,-0.01704372838139534,0.020372580736875534
1696961462406113300,11.48911328125,0.012649642303586006,0.03941362351179123,0.0001331541279796511
1696961462416127000,11.499126953125,0.020106272771954536,-0.04367455467581749,0.04274247586727142
1696961462426140400,11.509140380859375,0.014780107885599136,-0.0106523297727108,0.027829213067889214
1696961462436154000,11.519154052734375,0.007323476951569319,0.07137060910463333,0.006524552125483751
1696961462446167600,11.52916748046875,0.014780107885599136,-0.004260932095348835,0.028894444927573204
1696961462456181000,11.539180908203125,0.011584409512579441,-0.0010652330238372087,0.024633513763546944
1696961462466194400,11.5491943359375,0.004127778112888336,0.08308817446231842,0.00226362026296556
1696961462476207900,11.559207763671875,0.008388710208237171,0.02236989326775074,0.029959678649902344
1696961462486221600,11.5692216796875,0.009453942999243736,-0.02982652559876442,0.03209014609456062
1696961462496235000,11.579235107421875,0.0009320789249613881,0.15445879101753235,-0.022236740216612816
1696961462506248400,11.58924853515625,0.001997311832383275,0.00852186419069767,0.005459319334477186
1696961462516262000,11.599261962890624,0.033954303711652756,-0.09800143539905548,0.057655736804008484
1696961462526275300,11.609275390625,0.004127778112888336,0.03941362351179123,-0.011584409512579441
1696961462536288800,11.619288818359376,-0.006524552125483751,0.15658925473690033,-0.0030625448562204838
1696961462546302500,11.629302490234375,0.011584409512579441,-0.11824086308479309,0.009720250964164734
1696961462556316000,11.63931591796875,0.001997311832383275,-0.05006595328450203,0.047003407031297684
1696961462566329300,11.649329345703125,0.021171506494283676,0.04580501839518547,-0.016910573467612267
1696961462576342800,11.6593427734375,0.001997311832383275,-0.03834838792681694,0.012915950268507004
1696961462586356200,11.669356201171874,0.006258244160562754,-0.04473978653550148,0.037416309118270874
1696961462596370000,11.679369873046875,0.005193010903894901,0.0426093190908432,-0.020106272771954536
1696961462606383400,11.68938330078125,-0.009720250964164734,0.12250179797410965,-0.029693370684981346
1696961462616396800,11.699396728515625,0.005193010903894901,-0.08628387749195099,0.03528584539890289
1696961462626410200,11.70941015625,-0.00226362026296556,0.06817491352558136,-0.004127778112888336
1696961462636423700,11.719423583984375,-0.0033288532868027687,0.12356702983379364,-0.026497671380639076
1696961462646437400,11.729437255859375,-0.0033288532868027687,0.004260932095348835,0.015046416781842709
1696961462656450800,11.739450927734374,0.0009320789249613881,0.08628387749195099,-0.011584409512579441
1696961462666464300,11.74946435546875,-0.004394086077809334,0.08415340632200241,-0.035019535571336746
1696961462676477700,11.759477783203126,0.005193010903894901,0.03089175745844841,0.0001331541279796511
1696961462686491100,11.7694912109375,0.008388710208237171,-0.03834838792681694,-0.008388710208237171
1696961462696504800,11.7795048828125,0.019041040912270546,-0.0021304660476744175,-0.031823836266994476
1696961462706518300,11.789518310546875,0.021171506494283676,-0.14487169682979584,0.017176883295178413
1696961462716531700,11.79953173828125,0.012649642303586006,-0.03941362351179123,-0.014780107885599136
1696961462726545200,11.809545166015624,0.011584409512579441,0.01384802907705307,-0.038215234875679016
1696961462736558600,11.81955859375,0.010519175790250301,-0.02023942768573761,-0.025432437658309937
1696961462746572300,11.829572265625,0.0030625448562204838,-0.04154408723115921,-0.011584409512579441
1696961462756585700,11.839585693359375,0.011584409512579441,0.05645735189318657,-0.057389430701732635
1696961462766599200,11.84959912109375,0.008388710208237171,-0.06071828305721283,0.0011983871227130294
1696961462776612600,11.859612548828125,-0.016111649572849274,0.12463226169347763,-0.061650361865758896
1696961462786626000,11.8696259765625,-0.010785484686493874,0.08415340632200241,-0.047802332788705826
1696961462796639700,11.8796396484375,0.016910573467612267,-0.03089175745844841,-0.038215234875679016
1696961462806653200,11.889653076171875,0.010519175790250301,-0.05219641700387001,-0.014780107885599136
1696961462816666600,11.89966650390625,-0.0011983871227130294,0.07776200771331787,-0.05312849581241608
1696961462826680000,11.90968017578125,0.006258244160562754,0.06817491352558136,-0.04673709720373154
1696961462836693500,11.919693603515626,0.015845341607928276,-0.1278279572725296,0.009720250964164734
1696961462846707000,11.92970703125,-0.00226362026296556,0.02663082629442215,-0.029693370684981346
1696961462856720600,11.939720703125,0.005193010903894901,0.07989247888326645,-0.029693370684981346
1696961462866734000,11.949734130859374,0.007323476951569319,-0.009587096981704235,-0.005193010903894901
1696961462876747500,11.95974755859375,0.004127778112888336,-0.02556559257209301,0.012915950268507004
1696961462886761000,11.969760986328126,0.001997311832383275,0.02450035884976387,-0.013714875094592571
1696961462896774400,11.9797744140625,0.007323476951569319,-0.012782796286046505,0.004394086077809334
1696961462906788000,11.9897880859375,-0.0011983871227130294,-0.03834838792681694,0.010785484686493874
1696961462916801500,11.999801513671875,0.007323476951569319,0.0532616525888443,-0.005193010903894901
1696961462926815000,12.00981494140625,0.007323476951569319,-0.07669677585363388,0.03848154470324516
1696961462936828400,12.019828369140624,0.001997311832383275,0.04793548583984375,-0.006258244160562754
1696961462946841900,12.029841796875,-0.004394086077809334,0.04900071769952774,0.015046416781842709
1696961462956855600,12.03985546875,0.005193010903894901,-0.08202294260263443,0.03954677656292915
1696961462966869000,12.049868896484375,0.001997311832383275,0.03728315606713295,0.020372580736875534
1696961462976882400,12.05988232421875,0.001997311832383275,0.06924014538526535,0.00226362026296556
1696961462986896100,12.069896240234375,0.014780107885599136,-0.10545806586742401,0.034220609813928604
1696961462996909600,12.07990966796875,0.011584409512579441,-0.06924014538526535,0.07043853402137756
1696961463006923000,12.089923095703124,0.007323476951569319,-0.0063913981430232525,0.027829213067889214
1696961463016936700,12.099936767578125,0.009453942999243736,-0.06284874677658081,0.043807707726955414
1696961463026950100,12.1099501953125,-0.004394086077809334,-0.0021304660476744175,0.019307348877191544
1696961463036963800,12.1199638671875,0.011584409512579441,-0.02876129187643528,0.048068638890981674
1696961463046977300,12.129977294921876,0.007323476951569319,-0.07137060910463333,0.061916667968034744
