time,seconds_elapsed,z,y,x
1696958469934595600,0.148595703125,-0.5110359191894531,0.03903907537460327,0.018007874488830566
1696958469944611000,0.158611083984375,0.12186145782470703,-0.0005127787590026855,-0.7676502466201782
1696958469954628900,0.16862890625,-2.5241637229919434,0.7260099649429321,-0.12654425203800201
1696958469964648700,0.178648681640625,1.0678033828735352,0.04794764518737793,0.3475600481033325
1696958469974669800,0.188669921875,-1.3142690658569336,0.5495826005935669,-0.29142990708351135
1696958469984692500,0.1986923828125,0.16318798065185547,0.3424876928329468,-0.7544543743133545
1696958469994716000,0.2087158203125,-1.3502197265625,0.23631441593170166,-0.0037917792797088623
1696958470004739600,0.218739501953125,0.6340675354003906,0.46463194489479065,0.20434796810150146
1696958470014763300,0.22876318359375,-0.7065906524658203,0.2174835354089737,-0.4908052086830139
1696958470024776700,0.238776611328125,-1.0971431732177734,0.7705702781677246,-0.22592617571353912
1696958470034790100,0.2487900390625,0.3766660690307617,0.24339036643505096,0.417030930519104
1696958470044803600,0.258803466796875,0.0709524154663086,0.5754473209381104,0.007370501756668091
1696958470054817000,0.268817138671875,-0.5576343536376953,0.5323901772499084,-0.47542494535446167
1696958470064830500,0.27883056640625,-0.5734148025512695,0.6178953647613525,0.2904636859893799
1696958470074844000,0.288843994140625,0.5878667831420898,0.5711007118225098,0.44172945618629456
1696958470084857300,0.298857421875,-0.7223367691040039,0.4266613721847534,-0.5237504839897156
1696958470094870800,0.308870849609375,-0.7486610412597656,0.5011311769485474,-0.3918456435203552
1696958470104884200,0.31888427734375,0.6114368438720703,0.5322641730308533,0.024865686893463135
1696958470114897700,0.328897705078125,-0.38935184478759766,0.27495861053466797,-0.1407655030488968
1696958470124911000,0.3389111328125,-1.100773811340332,0.463454008102417,-0.5837044715881348
1696958470134924500,0.348924560546875,-0.11448097229003906,0.6276254653930664,0.132508784532547
1696958470144938000,0.35893798828125,1.3759288787841797,0.4573199450969696,-0.13493986427783966
1696958470154951400,0.368951416015625,-1.6589269638061523,0.4166853725910187,-0.4614759683609009
1696958470164964900,0.37896484375,0.8760604858398438,0.6433882117271423,-0.32406067848205566
1696958470174978300,0.388978271484375,0.6125507354736328,0.4246077537536621,0.2989230751991272
1696958470184991700,0.39899169921875,0.10635662078857422,0.4598085880279541,0.11976628005504608
1696958470195005200,0.409005126953125,-0.18062686920166016,0.4534713625907898,-0.105589359998703
1696958470205018600,0.4190185546875,0.5697250366210938,0.7635478377342224,0.6209941506385803
1696958470215032000,0.429031982421875,2.4048471450805664,0.586138904094696,0.5841120481491089
1696958470225045500,0.43904541015625,-1.875473976135254,0.14296311140060425,0.37706393003463745
1696958470235059000,0.449058837890625,1.2487945556640625,0.49131521582603455,0.903291642665863
1696958470245072400,0.459072265625,1.021224021911621,0.6960104703903198,1.045770287513733
1696958470255085800,0.4690859375,-1.0744438171386719,-0.11757232248783112,0.5152628421783447
1696958470265099300,0.479099365234375,0.13404273986816406,0.04105521738529205,-0.31814202666282654
1696958470275112700,0.48911279296875,0.08404922485351562,1.2146767377853394,0.05312281847000122
1696958470285126100,0.499126220703125,0.26003170013427734,0.45642536878585815,0.04492509365081787
1696958470295139600,0.5091396484375,-1.4323406219482422,0.22886352241039276,-0.8161424398422241
1696958470305153000,0.519153076171875,0.22043704986572266,0.4496127963066101,-0.4173245429992676
1696958470315166500,0.52916650390625,-0.4733619689941406,1.322481632232666,-0.014605939388275146
1696958470325180000,0.539179931640625,-0.9701128005981445,0.12441407144069672,0.004723966121673584
1696958470335193300,0.549193359375,-0.724940299987793,0.03639216721057892,0.8041191101074219
1696958470345206800,0.559206787109375,1.6794147491455078,0.8205211162567139,0.3150578737258911
1696958470355220000,0.569219970703125,-2.15806245803833,0.9269217252731323,-0.5068734288215637
1696958470365233400,0.5792333984375,0.9095773696899414,0.2119186371564865,0.625154972076416
1696958470375246800,0.589246826171875,0.03225898742675781,0.22403749823570251,0.546588659286499
1696958470385260300,0.59926025390625,-2.850831985473633,0.5211596488952637,-0.3329430818557739
1696958470395273700,0.609273681640625,1.7966270446777344,0.663151741027832,-0.025444090366363525
1696958470405287200,0.619287109375,-0.5033302307128906,0.18445366621017456,0.0789417028427124
1696958470415300600,0.629300537109375,-0.7722549438476562,0.05192497372627258,-0.3560102581977844
1696958470425314000,0.63931396484375,-0.5234708786010742,0.363683819770813,-0.3303181827068329
1696958470435327500,0.649327392578125,0.2955331802368164,0.17998218536376953,0.15728077292442322
1696958470445341000,0.6593408203125,0.2577171325683594,0.27772006392478943,-0.0482395738363266
1696958470455354400,0.669354248046875,-1.400472640991211,0.29254481196403503,-0.008587151765823364
1696958470465367800,0.679367919921875,0.5453042984008789,-0.003206968307495117,0.5370085835456848
1696958470475381200,0.68938134765625,1.2298526763916016,0.1924644112586975,0.6684849858283997
1696958470485394700,0.699394775390625,-1.637864112854004,0.12228310108184814,-0.3084527254104614
1696958470495408000,0.709408203125,-0.2823762893676758,-0.12212216854095459,0.6412597894668579
1696958470505421600,0.719421630859375,1.9159736633300781,0.14184901118278503,0.6229562759399414
1696958470515435000,0.72943505859375,-1.6804227828979492,-0.09864643216133118,0.395523339509964
1696958470525448400,0.739448486328125,0.7751979827880859,0.2236996591091156,0.541318953037262
1696958470535462000,0.7494619140625,-0.0858001708984375,0.11636775732040405,0.7043118476867676
1696958470545475300,0.759475341796875,-1.1141328811645508,0.12229692935943604,0.16914290189743042
1696958470555488800,0.76948876953125,-0.0830526351928711,-0.12026765942573547,-0.15014424920082092
1696958470565502200,0.779502197265625,-0.6156072616577148,0.15074247121810913,0.6793185472488403
1696958470575515600,0.789515625,0.7961826324462891,-0.2467377632856369,0.6847362518310547
1696958470585529000,0.799529052734375,-1.5871734619140625,0.15691062808036804,0.195424884557724
1696958470595542500,0.80954248046875,1.4119586944580078,-0.4598415195941925,0.7778900861740112
1696958470605556000,0.819555908203125,-0.39841556549072266,0.36915045976638794,0.43768423795700073
1696958470615569400,0.8295693359375,-0.8472604751586914,-0.04233914613723755,0.4585500657558441
1696958470625582800,0.839582763671875,0.3789968490600586,-0.1467810869216919,0.20025020837783813
1696958470635596300,0.84959619140625,-0.046690940856933594,0.0924147367477417,0.6013718843460083
1696958470645609700,0.859609619140625,0.1856832504272461,0.2474992871284485,0.10723507404327393
1696958470655623200,0.869623046875,-0.6825008392333984,0.30192822217941284,0.327139675617218
1696958470665636900,0.879636962890625,1.9049978256225586,-0.04078766703605652,0.25226500630378723
1696958470675650300,0.889650390625,-2.155198574066162,0.05976763367652893,0.19041043519973755
1696958470685663700,0.899663818359375,0.843226432800293,0.05647993087768555,0.1582905352115631
1696958470695677200,0.90967724609375,0.2462615966796875,-0.08801239728927612,0.1549260914325714
1696958470705690600,0.919690673828125,-1.8113737106323242,0.02102556824684143,0.7873020172119141
1696958470715704300,0.929704345703125,2.7603111267089844,0.19538256525993347,0.08484452962875366
1696958470725717800,0.9397177734375,-2.613605499267578,-0.1508834958076477,0.5352720022201538
1696958470735731200,0.949731201171875,3.3418216705322266,0.22907888889312744,0.9549043774604797
1696958470745744600,0.95974462890625,-1.9068584442138672,0.23764851689338684,0.07852721214294434
1696958470755758000,0.969758056640625,0.1467599868774414,0.05717271566390991,0.6054916381835938
1696958470765771800,0.979771728515625,1.6804132461547852,0.2882295548915863,0.6764029264450073
1696958470775785200,0.98978515625,-2.5604991912841797,-0.3591657280921936,0.0670630931854248
1696958470785798700,0.999798583984375,1.158834457397461,0.25969114899635315,-0.2791454792022705
1696958470795812000,1.00981201171875,-0.3559751510620117,0.27159547805786133,0.3162057399749756
1696958470805825500,1.019825439453125,-0.6274051666259766,-0.3816922605037689,-0.23142072558403015
1696958470815839200,1.029839111328125,-1.351175308227539,0.08069473505020142,-0.284231573343277
1696958470825852700,1.039852783203125,0.1563720703125,-0.18209511041641235,0.2094033658504486
1696958470835866000,1.0498662109375,-0.2767353057861328,0.11219033598899841,0.20732906460762024
1696958470845879600,1.059879638671875,-0.5206146240234375,0.09552896022796631,-0.38958117365837097
1696958470855893000,1.06989306640625,-0.5580720901489258,-0.3222365081310272,0.22888332605361938
1696958470865906400,1.079906494140625,1.1599845886230469,0.21097752451896667,0.4141663610935211
1696958470875920100,1.089920166015625,-0.772796630859375,-0.21931646764278412,-0.48065125942230225
1696958470885933600,1.09993359375,-1.2397308349609375,-0.050788313150405884,-0.05933234095573425
1696958470895947000,1.109947021484375,1.7616348266601562,-0.1391540765762329,0.5383482575416565
1696958470905960400,1.11996044921875,-0.5946035385131836,-0.26073622703552246,0.05757424235343933
1696958470915974000,1.129973876953125,-0.831085205078125,0.03505909442901611,-0.3346346616744995
1696958470925987600,1.139987548828125,1.0610570907592773,-0.2669021785259247,0.24539387226104736
1696958470936001000,1.1500009765625,0.05451393127441406,-0.01610812544822693,0.00849539041519165
1696958470946014500,1.160014404296875,-0.1121969223022461,-0.5548951625823975,-0.6610563397407532
1696958470956028000,1.17002783203125,-1.2361717224121094,0.09363508224487305,0.0033611953258514404
1696958470966041300,1.180041259765625,1.8944158554077148,0.06745517253875732,0.38641357421875
1696958470976055000,1.190054931640625,-1.607630729675293,-0.6792124509811401,-0.15174847841262817
1696958470986068500,1.200068359375,-0.4394407272338867,0.14964142441749573,-0.2265169322490692
1696958470996082000,1.21008203125,0.5096473693847656,-0.14153681695461273,0.12391126155853271
1696958471006095400,1.220095458984375,-1.057180404663086,0.12488506734371185,0.09805214405059814
1696958471016108800,1.23010888671875,-0.4020967483520508,-0.3153856694698334,-0.7788533568382263
1696958471026122500,1.24012255859375,-1.5858564376831055,0.5120669603347778,-0.2876601815223694
1696958471036136000,1.250135986328125,-0.1850147247314453,0.3696119487285614,0.08695715665817261
1696958471046149400,1.2601494140625,-1.9127302169799805,-0.196096733212471,-1.266473412513733
1696958471056162800,1.270162841796875,-4.238847255706787,1.0358550548553467,-1.7139041423797607
1696958471066176300,1.28017626953125,-2.6352286338806152,0.6975095868110657,-0.9486606121063232
1696958471076190000,1.29018994140625,-2.1901803016662598,0.46552902460098267,-0.704631507396698
1696958471086203400,1.300203369140625,-0.6844997406005859,-0.9216155409812927,-1.35874342918396
1696958471096216800,1.310216796875,0.5814857482910156,0.05742824077606201,0.3178192973136902
1696958471106230300,1.320230224609375,4.137428283691406,0.3910587728023529,0.8016979694366455
1696958471116243700,1.33024365234375,-1.4320220947265625,-0.0890347808599472,0.4746500253677368
1696958471126257400,1.34025732421875,-1.8194098472595215,-0.6242408752441406,1.3209989070892334
1696958471136270800,1.350270751953125,2.064199447631836,-0.7217255234718323,1.1534790992736816
1696958471146284300,1.3602841796875,3.0469112396240234,-0.2555532455444336,0.7216148376464844
1696958471156297700,1.370297607421875,3.4279375076293945,-0.30290257930755615,0.603528618812561
1696958471166311200,1.380311279296875,0.9106626510620117,0.09545239806175232,0.9626620411872864
1696958471176324600,1.39032470703125,0.5231914520263672,-0.08628283441066742,1.0006026029586792
1696958471186338300,1.40033837890625,0.3432435989379883,-0.24047911167144775,0.5709477663040161
1696958471196351700,1.410351806640625,0.6544151306152344,-0.5301417112350464,-0.3068649172782898
1696958471206365200,1.420365234375,1.220663070678711,-0.5250811576843262,1.4683074951171875
1696958471216378600,1.430378662109375,4.09351921081543,-0.7100554704666138,0.7158684134483337
1696958471226392000,1.44039208984375,-0.9394779205322266,-0.4104650616645813,0.5228503346443176
1696958471236405800,1.45040576171875,0.9652986526489258,-0.3979133367538452,1.0863970518112183
1696958471246419200,1.460419189453125,1.4480419158935547,-0.7483119964599609,1.2647936344146729
1696958471256432600,1.4704326171875,2.056304931640625,-0.22905468940734863,0.7592971920967102
1696958471266446000,1.480446044921875,2.712614059448242,0.2603692412376404,1.078340768814087
1696958471276459500,1.49045947265625,1.59454345703125,-1.0612658262252808,1.3393912315368652
1696958471286473000,1.500472900390625,2.715367317199707,-1.1169461011886597,1.351371169090271
1696958471296486400,1.510486328125,2.2774553298950195,-0.7379865646362305,0.28856605291366577
1696958471306499800,1.520499755859375,0.8532800674438477,0.12836118042469025,1.5324287414550781
1696958471316513300,1.53051318359375,3.8159780502319336,-0.6216792464256287,2.5791540145874023
1696958471326526700,1.540526611328125,1.7618703842163086,-0.3842140734195709,1.048253059387207
1696958471336540200,1.5505400390625,0.0791635513305664,0.13162265717983246,0.8642850518226624
1696958471346553600,1.5605537109375,2.5713014602661133,-0.2545689046382904,1.232382893562317
1696958471356567000,1.570567138671875,-0.8258419036865234,-1.0737706422805786,0.34741705656051636
1696958471366580500,1.58058056640625,1.0110187530517578,0.1919558197259903,-0.7861921787261963
1696958471376594000,1.590593994140625,-0.0052947998046875,0.699514627456665,-0.27691900730133057
1696958471386607400,1.600607421875,-1.4762506484985352,0.0822799950838089,1.3439006805419922
1696958471396620800,1.610620849609375,2.563652992248535,0.02866309881210327,-0.5347273945808411
1696958471406634200,1.62063427734375,-5.488311290740967,1.1637605428695679,-1.5880626440048218
1696958471416647700,1.630647705078125,-2.0447306632995605,0.7020856142044067,-0.6084485650062561
1696958471426661000,1.6406611328125,-0.9421100616455078,-0.08234518766403198,-0.6335456371307373
1696958471436674600,1.650674560546875,-1.336390495300293,0.7584854364395142,-2.068737030029297
1696958471446688000,1.66068798828125,-0.7754812240600586,0.8488255739212036,-1.246727466583252
1696958471456701400,1.670701416015625,-0.19904708862304688,0.9410333037376404,0.16435450315475464
1696958471466715000,1.68071484375,0.5208683013916016,0.5546920299530029,-0.6314323544502258
1696958471476728300,1.690728271484375,-3.9722557067871094,0.5766090750694275,-0.8128742575645447
1696958471486741800,1.70074169921875,-0.586146354675293,0.7701319456100464,-0.37462276220321655
1696958471496755200,1.710755126953125,-0.8255805969238281,0.2705570459365845,-0.926264762878418
1696958471506768600,1.7207685546875,-0.6015844345092773,0.2981584668159485,-1.260308027267456
1696958471516782000,1.730781982421875,-0.778717041015625,0.42218735814094543,-0.6902103424072266
1696958471526795500,1.74079541015625,-0.0882101058959961,0.6437704563140869,-0.4416499137878418
1696958471536809000,1.75080908203125,-1.2021465301513672,1.1415880918502808,-0.7665348052978516
1696958471546822400,1.760822509765625,-2.223564624786377,-0.05269554257392883,-0.27556121349334717
1696958471556835800,1.7708359375,-0.4054079055786133,1.0080411434173584,-1.2216105461120605
1696958471566849300,1.780849365234375,-1.76983642578125,0.4274123013019562,-0.5925384163856506
1696958471576862700,1.79086279296875,-0.7542362213134766,0.35835176706314087,-0.3870082497596741
1696958471586876200,1.800876220703125,-0.6497335433959961,0.7710280418395996,-0.6267772316932678
1696958471596889600,1.8108896484375,-2.4985618591308594,1.304213047027588,-0.6190212965011597
1696958471606903000,1.820903076171875,-0.12607955932617188,0.40549236536026,0.14233821630477905
1696958471616916500,1.83091650390625,-1.8303823471069336,0.5302717685699463,-0.17175868153572083
1696958471626930000,1.840929931640625,0.26200008392333984,0.3225793242454529,-0.2704273462295532
1696958471636943400,1.850943359375,-0.38206958770751953,0.647526741027832,-0.059609293937683105
1696958471646956800,1.860956787109375,-0.12721729278564453,0.022573918104171753,-0.4000813364982605
1696958471656970500,1.870970458984375,-2.7748866081237793,0.34805575013160706,-0.8138218522071838
1696958471666984000,1.88098388671875,-0.6961574554443359,0.2015259563922882,-1.7779721021652222
1696958471676997400,1.890997314453125,-3.497767448425293,-0.7161309719085693,-1.7161149978637695
1696958471687010800,1.9010107421875,-1.304525375366211,-0.016659438610076904,-1.3341883420944214
1696958471697024300,1.911024169921875,-2.5676794052124023,2.1856789588928223,-0.21883589029312134
1696958471707038000,1.921037841796875,2.4461231231689453,0.8458868265151978,0.4007495641708374
1696958471717051400,1.931051513671875,2.4341564178466797,-0.1763322651386261,-0.8056551218032837
1696958471727064800,1.94106494140625,-1.561161994934082,-0.35398900508880615,-0.32596123218536377
1696958471737078300,1.951078369140625,-0.7125587463378906,2.182732582092285,1.8463655710220337
1696958471747091700,1.961091796875,5.2724151611328125,0.8981735706329346,0.5368839502334595
1696958471757105400,1.97110546875,-3.6754422187805176,-0.08710089325904846,0.012853920459747314
1696958471767118800,1.981118896484375,1.0818986892700195,0.8242409229278564,0.8538565635681152
1696958471777132300,1.99113232421875,1.2484569549560547,0.7664170265197754,0.2780269980430603
1696958471787145700,2.001145751953125,0.5275955200195312,0.15421134233474731,0.219679057598114
1696958471797159200,2.0111591796875,1.1021614074707031,0.29155147075653076,0.01942574977874756
1696958471807172900,2.0211728515625,-2.105924606323242,0.08815211057662964,0.17837077379226685
1696958471817186300,2.031186279296875,0.26459693908691406,1.0613832473754883,0.4764232039451599
1696958471827199700,2.04119970703125,1.8129844665527344,0.6635947227478027,0.5870177745819092
1696958471837213200,2.051213134765625,-1.856367588043213,0.7607296109199524,0.7976325750350952
1696958471847226600,2.0612265625,1.7996559143066406,0.44717490673065186,1.519120693206787
1696958471857240300,2.071240234375,1.042562484741211,0.8785452842712402,1.3694307804107666
1696958471867253800,2.081253662109375,-0.3214082717895508,-0.00925534963607788,0.7660520076751709
1696958471877267200,2.09126708984375,0.7239971160888672,0.43593716621398926,1.184342861175537
1696958471887280600,2.10128076171875,3.299123764038086,0.5466274619102478,1.1019539833068848
1696958471897294000,2.111294189453125,0.5652437210083008,0.6206099390983582,1.4726240634918213
1696958471907307500,2.1213076171875,1.7295351028442383,0.3682849407196045,1.4347786903381348
1696958471917321200,2.1313212890625,0.618927001953125,0.8155848383903503,2.059734344482422
1696958471927334700,2.141334716796875,1.4536676406860352,0.8173334002494812,1.6697475910186768
1696958471937348000,2.15134814453125,-0.20924854278564453,0.6251742243766785,1.0746760368347168
1696958471947361500,2.161361572265625,1.9641551971435547,0.5257741212844849,0.8841826319694519
1696958471957375000,2.171375,1.2570438385009766,0.887947142124176,0.6680386066436768
1696958471967388700,2.181388671875,-1.3541316986083984,-0.3726365566253662,-0.34089404344558716
1696958471977402000,2.191402099609375,-1.4446344375610352,0.0702551007270813,0.4737282395362854
1696958471987415600,2.20141552734375,1.8699073791503906,0.9548408389091492,1.000098705291748
1696958471997429000,2.211428955078125,-0.5864572525024414,0.6001901030540466,0.24630284309387207
1696958472007442400,2.2214423828125,-2.3114233016967773,0.4536927342414856,-0.4601061940193176
1696958472017456000,2.2314560546875,0.2681770324707031,-0.3329141139984131,-0.244456946849823
1696958472027469600,2.241469482421875,-1.1695575714111328,0.1251249611377716,-0.8869001865386963
1696958472037483000,2.25148291015625,-0.445037841796875,0.6594368815422058,-0.8662006855010986
1696958472047496400,2.261496337890625,-0.8968572616577148,0.6227391362190247,-0.8808689713478088
1696958472057510000,2.271510009765625,1.3620691299438477,0.00823262333869934,-0.7811452150344849
1696958472067523600,2.281523681640625,-1.7827625274658203,0.17613160610198975,-0.8271499872207642
1696958472077537000,2.291537109375,-0.16350364685058594,0.7291918992996216,-0.8795531988143921
1696958472087550500,2.301550537109375,0.9095487594604492,-0.703564465045929,-0.9043213725090027
1696958472097564000,2.31156396484375,0.1943206787109375,-0.21028077602386475,-0.975385844707489
1696958472107577300,2.321577392578125,-0.13611984252929688,0.9644724130630493,-0.5471157431602478
1696958472117591000,2.331591064453125,1.4232826232910156,0.04486837983131409,-1.438069224357605
1696958472127604500,2.3416044921875,-0.791874885559082,-0.3507273197174072,-0.9566085338592529
1696958472137618000,2.351617919921875,-1.051091194152832,0.1897076666355133,-0.7688678503036499
1696958472147631400,2.36163134765625,0.22649765014648438,0.9920794367790222,-1.208417534828186
1696958472157644800,2.371644775390625,-0.528559684753418,-0.5272951722145081,-1.416552186012268
1696958472167658500,2.381658447265625,-0.7267513275146484,-0.21037501096725464,-1.2552284002304077
1696958472177672000,2.391671875,-2.2455172538757324,0.7275717854499817,-1.24898362159729
1696958472187685400,2.401685302734375,1.5706310272216797,0.45053282380104065,-1.0061959028244019
1696958472197698800,2.41169873046875,-1.8420276641845703,-0.3043400049209595,-0.7451546788215637
1696958472207712300,2.421712158203125,0.2027597427368164,0.37358543276786804,-0.5911315679550171
1696958472217725700,2.4317255859375,-0.031884193420410156,-0.08866199851036072,-0.9005264639854431
1696958472227739400,2.441739501953125,-0.8427143096923828,-0.25535911321640015,-0.3878595530986786
1696958472237752800,2.4517529296875,0.5539731979370117,-0.02595648169517517,-0.20076660811901093
1696958472247766300,2.461766357421875,0.16528034210205078,0.6487785577774048,-0.06029495596885681
1696958472257779700,2.47177978515625,0.8277692794799805,0.6123090386390686,0.6656316518783569
1696958472267793200,2.481793212890625,2.2507457733154297,0.34417206048965454,0.16895931959152222
1696958472277806800,2.491806884765625,-2.291130542755127,0.27177268266677856,-0.12484210729598999
1696958472287820300,2.5018203125,0.8621368408203125,0.058502405881881714,-0.14600726962089539
1696958472297833700,2.511833740234375,0.042733192443847656,0.41871756315231323,-0.3010175824165344
1696958472307847200,2.52184716796875,-1.0454301834106445,0.29659080505371094,-1.0694515705108643
1696958472317860600,2.531860595703125,-0.1822805404663086,0.316738098859787,-0.7053831815719604
1696958472327874300,2.541874267578125,-1.002089500427246,0.5400905609130859,-0.7162173986434937
1696958472337887700,2.5518876953125,-0.9597225189208984,0.3308907449245453,-0.896597146987915
1696958472347901200,2.561901123046875,-0.6503219604492188,0.13581320643424988,-1.1609182357788086
1696958472357914600,2.57191455078125,-0.5853738784790039,0.671994686126709,-0.23070716857910156
1696958472367928000,2.581927978515625,1.4452123641967773,1.0350137948989868,-0.4087909758090973
1696958472377941800,2.591941650390625,-1.7097883224487305,0.6061266660690308,-0.932274580001831
1696958472387955200,2.601955078125,0.3728160858154297,0.07759875059127808,-0.22207753360271454
1696958472397968600,2.61196875,0.48136234283447266,0.700855553150177,-0.4104393720626831
1696958472407982000,2.621982177734375,-2.083101272583008,0.8038631677627563,-0.779892086982727
1696958472417995500,2.63199560546875,-0.11358261108398438,0.4428364336490631,-0.972356915473938
1696958472428009200,2.64200927734375,0.27359867095947266,0.501694917678833,-0.40795662999153137
1696958472438022700,2.652022705078125,-0.2285289764404297,0.1555350422859192,-0.9028599858283997
1696958472448036000,2.6620361328125,-2.608935832977295,1.127514123916626,-0.45934200286865234
1696958472458049500,2.672049560546875,2.2355642318725586,0.7498011589050293,-0.5494145154953003
1696958472468063000,2.68206298828125,-1.5334863662719727,0.043594300746917725,-0.7288441061973572
1696958472478076700,2.69207666015625,-2.0383782386779785,0.2828471064567566,-0.8848977088928223
1696958472488090000,2.702090087890625,1.9355945587158203,0.6955718994140625,-0.7472169399261475
1696958472498103600,2.712103515625,-1.8180322647094727,0.3429386615753174,-0.4940757155418396
1696958472508117000,2.722116943359375,0.04066276550292969,-0.22312498092651367,-0.35683611035346985
1696958472518130400,2.73213037109375,0.9093093872070312,0.9417386651039124,-0.14265042543411255
1696958472528144000,2.742143798828125,1.2306480407714844,0.9000129699707031,0.15472301840782166
1696958472538157600,2.752157470703125,-0.6640739440917969,0.7300283908843994,-0.41961434483528137
1696958472548171000,2.7621708984375,1.051687240600586,-0.18127164244651794,-0.7350419759750366
1696958472558184400,2.772184326171875,-0.2882823944091797,1.0146687030792236,-0.04691377282142639
1696958472568198000,2.782197998046875,-0.18706893920898438,0.20178145170211792,-0.5488407611846924
1696958472578211300,2.79221142578125,0.16214466094970703,1.0461087226867676,-0.39595526456832886
1696958472588225000,2.80222509765625,1.8038568496704102,-0.1704396903514862,-0.37097349762916565
1696958472598238500,2.812238525390625,-2.641817092895508,0.8158251047134399,-0.34429454803466797
1696958472608252000,2.822251953125,3.4969482421875,0.823265016078949,0.21084487438201904
1696958472618265300,2.832265380859375,-1.1645803451538086,0.815552294254303,-0.21763822436332703
1696958472628278800,2.84227880859375,0.26665496826171875,-0.12462761998176575,-0.344171404838562
1696958472638292500,2.85229248046875,0.9344892501831055,1.1483381986618042,0.15635210275650024
1696958472648306000,2.862305908203125,-0.5629386901855469,0.9608264565467834,-0.008012592792510986
1696958472658319400,2.8723193359375,2.0407094955444336,0.2540019750595093,-0.5661642551422119
1696958472668332800,2.882332763671875,-1.3651657104492188,0.7188122272491455,-0.30859410762786865
1696958472678346200,2.89234619140625,1.5088434219360352,0.7209663987159729,-0.15926912426948547
1696958472688360000,2.90235986328125,-1.0932817459106445,0.8878498673439026,0.10517662763595581
1696958472698373400,2.912373291015625,3.2166643142700195,0.25507116317749023,-0.4123843312263489
1696958472708386800,2.92238671875,-3.9026670455932617,1.1200952529907227,0.1656189262866974
1696958472718400300,2.932400146484375,3.2241058349609375,0.9435359835624695,0.3314720392227173
1696958472728413700,2.94241357421875,-0.9736413955688477,1.0045583248138428,-0.5107444524765015
1696958472738427400,2.952427490234375,0.046410560607910156,0.39780253171920776,-0.5135267376899719
1696958472748440800,2.96244091796875,0.2949075698852539,0.8947399854660034,-0.03265562653541565
1696958472758454300,2.972454345703125,-0.8090314865112305,1.0103576183319092,0.024419814348220825
1696958472768467700,2.9824677734375,0.8984088897705078,0.806699812412262,0.036379843950271606
1696958472778481200,2.992481201171875,-1.2293701171875,0.5715934038162231,-0.40965819358825684
1696958472788494800,3.002494873046875,1.0046882629394531,0.6153424978256226,0.012223094701766968
1696958472798508300,3.01250830078125,-2.627312183380127,1.2084882259368896,-0.07100865244865417
1696958472808521700,3.022521728515625,3.421304702758789,1.0262260437011719,-0.010221660137176514
1696958472818535200,3.03253515625,-1.6702680587768555,-0.19770583510398865,-0.10310998558998108
1696958472828548600,3.042548583984375,0.1496133804321289,1.0963820219039917,0.40627387166023254
1696958472838562300,3.052562255859375,0.7267751693725586,1.2132325172424316,-0.16532039642333984
1696958472848575700,3.06257568359375,-0.9038600921630859,1.0365848541259766,0.36971843242645264
1696958472858589200,3.072589111328125,0.4310598373413086,0.6901962161064148,-0.23187430202960968
1696958472868602600,3.0826025390625,-0.7546319961547852,0.685106098651886,-0.4408532977104187
1696958472878616000,3.092615966796875,-0.38458919525146484,0.8189877867698669,-0.08180537819862366
1696958472888629500,3.10262939453125,0.38063526153564453,0.8084215521812439,-0.3615953028202057
1696958472898643200,3.112643310546875,-1.7791423797607422,0.8268858790397644,-0.2318076193332672
1696958472908656600,3.12265673828125,1.2732038497924805,0.8282573223114014,0.1881418228149414
1696958472918670000,3.132670166015625,-1.4720563888549805,1.2265167236328125,-0.5031533241271973
1696958472928683500,3.14268359375,0.17034149169921875,0.6411054730415344,-0.8722132444381714
1696958472938697000,3.152697021484375,-2.0411949157714844,0.6199819445610046,-0.7752020359039307
1696958472948710700,3.162710693359375,1.446554183959961,0.8635380864143372,-0.4945951998233795
1696958472958724000,3.17272412109375,-2.2780675888061523,1.0731074810028076,-0.5172721743583679
1696958472968737500,3.182737548828125,0.3364725112915039,0.8491081595420837,-0.444441020488739
1696958472978751000,3.1927509765625,-1.1544885635375977,0.47693514823913574,-0.619770884513855
1696958472988764400,3.202764404296875,0.22928524017333984,1.012300968170166,-0.5332208275794983
1696958472998778000,3.212778076171875,-0.9461545944213867,0.6362119317054749,-0.5101211071014404
1696958473008791600,3.22279150390625,0.5182094573974609,1.1174054145812988,-0.2801209092140198
1696958473018805000,3.232804931640625,-0.8827066421508789,0.5790072679519653,-0.3471680283546448
1696958473028818400,3.242818359375,0.5862483978271484,1.0839611291885376,-0.42768925428390503
1696958473038831900,3.252831787109375,-0.2752370834350586,0.440720796585083,-0.694573163986206
1696958473048845600,3.262845458984375,-0.04025459289550781,0.8247511386871338,-0.7449529767036438
1696958473058859000,3.27285888671875,-0.9808921813964844,0.60791015625,-0.4076366424560547
1696958473068872400,3.28287255859375,1.744588851928711,0.9204303622245789,-0.5261159539222717
1696958473078886000,3.292885986328125,-1.7805395126342773,0.36576467752456665,-0.8996027708053589
1696958473088899300,3.3028994140625,1.3342876434326172,1.0541965961456299,-0.3805292844772339
1696958473098913000,3.3129130859375,-0.011560440063476562,0.4494975805282593,-0.47176283597946167
1696958473108926500,3.322926513671875,-0.22142601013183594,0.9642105102539062,0.14851844310760498
1696958473118940000,3.33293994140625,1.0308218002319336,0.705981969833374,-0.06758353114128113
1696958473128953300,3.342953369140625,-0.1852436065673828,0.6107218861579895,-0.0747247040271759
1696958473138966800,3.352966796875,0.22149944305419922,0.7561420202255249,0.07992571592330933
1696958473148980500,3.36298046875,0.6652107238769531,1.0616512298583984,-0.32586371898651123
1696958473158994000,3.372993896484375,-1.1801862716674805,0.980194628238678,0.3054026961326599
1696958473169007400,3.38300732421875,1.8085803985595703,0.38571470975875854,0.028955698013305664
1696958473179020800,3.393020751953125,-1.411092758178711,0.7041919827461243,-0.26278671622276306
1696958473189034200,3.4030341796875,0.9527149200439453,1.2061662673950195,-0.15034329891204834
1696958473199047700,3.413047607421875,-0.26304054260253906,0.37095630168914795,-0.23038899898529053
1696958473209061000,3.42306103515625,0.0959463119506836,1.1025919914245605,-0.09819585084915161
1696958473219074600,3.433074462890625,0.2534446716308594,0.3033192753791809,-0.01961621642112732
1696958473229088000,3.443087890625,-0.4875450134277344,1.6109967231750488,0.4403609037399292
1696958473239101400,3.453101318359375,1.3097944259643555,-0.051258981227874756,0.061298906803131104
1696958473249115000,3.463114990234375,-1.0965824127197266,1.0824835300445557,0.18556004762649536
1696958473259128300,3.47312841796875,1.0082283020019531,0.8048920035362244,0.13354527950286865
1696958473269141800,3.483141845703125,-0.06942176818847656,1.2480556964874268,-0.0015812218189239502
1696958473279155200,3.4931552734375,-0.5040788650512695,0.34391289949417114,-0.045197486877441406
1696958473289168600,3.503168701171875,0.3476753234863281,0.8719249367713928,0.23488792777061462
1696958473299182000,3.51318212890625,-1.4400253295898438,0.5117812156677246,-0.30038678646087646
1696958473309195500,3.523195556640625,1.1244869232177734,1.070395827293396,-0.39282646775245667
1696958473319209000,3.533208984375,-1.3435440063476562,0.0865926742553711,-0.26544445753097534
1696958473329222400,3.543222412109375,0.5136289596557617,1.3024647235870361,-0.19231456518173218
1696958473339235800,3.55323583984375,-0.18996429443359375,0.40917885303497314,-0.159692645072937
1696958473349249300,3.563249267578125,0.3264589309692383,0.6812855005264282,-0.3028414845466614
1696958473359262700,3.5732626953125,-0.3146247863769531,0.1969902515411377,-0.23074333369731903
1696958473369276200,3.583276123046875,0.5222892761230469,1.1427782773971558,-0.15889140963554382
1696958473379289600,3.59328955078125,-0.8789272308349609,0.31269371509552,-0.3593249022960663
1696958473389303000,3.603302978515625,0.7717046737670898,0.829468846321106,-0.059073030948638916
1696958473399316500,3.61331640625,-0.7256793975830078,0.6437526345252991,-0.22590240836143494
1696958473409330000,3.623329833984375,0.226898193359375,0.9405760765075684,-0.3257734775543213
1696958473419343400,3.63334326171875,-0.04596996307373047,0.40187186002731323,-0.3489847183227539
1696958473429356800,3.643356689453125,-0.4137382507324219,0.6305220127105713,-0.018649041652679443
1696958473439370200,3.653370361328125,-0.14986610412597656,0.395862877368927,0.14745178818702698
1696958473449383700,3.6633837890625,0.18012046813964844,1.0672800540924072,-0.2785132825374603
1696958473459397000,3.673397216796875,-0.7138786315917969,0.29174143075942993,-0.2978050112724304
1696958473469410600,3.68341064453125,1.1512699127197266,0.6446133852005005,-0.19826428592205048
1696958473479424000,3.693424072265625,-1.5129995346069336,0.47908759117126465,-0.3508380651473999
1696958473489437400,3.7034375,1.1233816146850586,0.9341844916343689,-0.293739378452301
1696958473499451000,3.713450927734375,-0.6042051315307617,0.19277417659759521,0.0929688811302185
1696958473509464600,3.723464599609375,0.6584663391113281,0.5864460468292236,-0.2714899182319641
1696958473519478000,3.73347802734375,-0.6713275909423828,0.8393626809120178,-0.05993926525115967
1696958473529491500,3.743491455078125,0.3384866714477539,0.6049780249595642,0.2219109833240509
1696958473539505000,3.7535048828125,-0.43158912658691406,0.514240026473999,-0.15686409175395966
1696958473549518300,3.763518310546875,0.08069229125976562,0.7149063348770142,-0.42825251817703247
1696958473559532000,3.773531982421875,-1.472066879272461,0.6042642593383789,0.09770911931991577
1696958473569545500,3.78354541015625,1.713705062866211,0.5009779334068298,-0.3202866017818451
1696958473579559000,3.793558837890625,-1.7496938705444336,0.4690159559249878,-0.023130148649215698
1696958473589572400,3.803572265625,1.1405963897705078,1.007824420928955,-0.11423572897911072
1696958473599585800,3.813585693359375,-0.15215492248535156,0.5734599828720093,-0.3397822380065918
1696958473609599500,3.823599609375,-0.797027587890625,0.45032501220703125,-0.6064438819885254
1696958473619613000,3.833613037109375,0.7008018493652344,0.4755384922027588,-0.23993605375289917
1696958473629626400,3.84362646484375,-0.08462238311767578,1.032416820526123,-0.24863576889038086
1696958473639639800,3.853639892578125,0.16887378692626953,0.25481343269348145,-0.11298458278179169
1696958473649653200,3.8636533203125,-0.017854690551757812,0.7158772349357605,-0.22525329887866974
1696958473659666700,3.873666748046875,-0.4573202133178711,0.9763020277023315,0.2946280241012573
1696958473669680400,3.883680419921875,0.6809768676757812,0.6531780958175659,-0.737602710723877
1696958473679693800,3.89369384765625,-1.2844791412353516,0.3715267777442932,-0.4688231945037842
1696958473689707300,3.903707275390625,0.3960542678833008,0.49657654762268066,0.03633582592010498
1696958473699720700,3.913720703125,-0.2928791046142578,0.8593801856040955,-0.28990721702575684
1696958473709734100,3.923734130859375,0.16646575927734375,0.2241203784942627,-0.4341750144958496
1696958473719747800,3.933747802734375,0.11864566802978516,0.7299611568450928,-0.18871517479419708
1696958473729761300,3.94376123046875,-1.229349136352539,0.7588439583778381,-0.2997923493385315
1696958473739774700,3.953774658203125,1.129776954650879,0.7409010529518127,-0.2689921259880066
1696958473749788200,3.9637880859375,-1.2097492218017578,0.14988386631011963,-0.3741702437400818
1696958473759801600,3.973801513671875,0.5471677780151367,1.0671229362487793,-0.22641795873641968
1696958473769815300,3.983815185546875,0.0966796875,0.5182845592498779,-0.23519843816757202
1696958473779828700,3.993828857421875,-0.6680154800415039,0.3345496654510498,0.21708905696868896
1696958473789842200,4.00384228515625,0.8962154388427734,0.5538380146026611,-0.5451258420944214
1696958473799855600,4.013855712890625,-0.9932880401611328,0.7167943716049194,0.3026959300041199
1696958473809869000,4.023869140625,0.9587440490722656,0.6601470708847046,0.006481766700744629
1696958473819882800,4.0338828125,-0.4100923538208008,0.3719475269317627,-0.07776814699172974
1696958473829896200,4.043896240234375,0.09734058380126953,0.6031107902526855,0.07318669557571411
1696958473839909600,4.05390966796875,0.6182546615600586,0.8032380938529968,-0.04872584342956543
1696958473849923000,4.063923095703125,-0.4777669906616211,0.7071240544319153,-0.30783164501190186
1696958473859936500,4.0739365234375,0.05410003662109375,0.339763879776001,0.24750980734825134
1696958473869950200,4.0839501953125,0.1732311248779297,0.6896520853042603,-0.5356861352920532
1696958473879963600,4.093963623046875,-0.7492303848266602,0.6128173470497131,-0.24305565655231476
1696958473889977000,4.10397705078125,0.17953968048095703,0.7921895980834961,0.07853439450263977
1696958473899990500,4.113990478515625,0.08379554748535156,0.4182789921760559,0.12331902980804443
1696958473910004000,4.12400390625,-0.8867511749267578,0.8130848407745361,-0.029430478811264038
1696958473920017700,4.134017578125,1.3330144882202148,0.45086604356765747,-0.00867953896522522
1696958473930031000,4.144031005859375,-2.8326807022094727,0.775667667388916,0.018823951482772827
1696958473940044500,4.15404443359375,2.0773143768310547,0.8634874224662781,0.4484184682369232
1696958473950058000,4.16405810546875,-1.8894095420837402,0.6342267394065857,-0.3035257160663605
1696958473960071400,4.174071533203125,1.0970020294189453,0.5331128239631653,0.5161558389663696
1696958473970084900,4.1840849609375,-0.2676353454589844,0.46278345584869385,-0.008797943592071533
1696958473980098600,4.1940986328125,-0.9696321487426758,0.9614230990409851,0.6337783336639404
1696958473990112000,4.204112060546875,1.503067970275879,0.45533430576324463,-0.1844818890094757
1696958474000125400,4.21412548828125,-1.4729852676391602,0.7095245718955994,0.15101611614227295
1696958474010139000,4.224138916015625,0.07372665405273438,0.40894848108291626,0.35934752225875854
1696958474020152300,4.23415234375,0.8906383514404297,0.9409267902374268,0.061199039220809937
1696958474030166000,4.244166015625,-1.5156354904174805,0.3452374339103699,0.5301927328109741
1696958474040179500,4.254179443359375,2.1866846084594727,0.7139455676078796,0.3065643608570099
1696958474050193000,4.26419287109375,-2.2632617950439453,0.7936609983444214,-0.004678249359130859
1696958474060206300,4.274206298828125,1.5554447174072266,0.35713398456573486,-0.07787707448005676
1696958474070219800,4.2842197265625,-2.5866990089416504,0.5875459313392639,0.2975045442581177
1696958474080233500,4.2942333984375,1.8539609909057617,0.2729675769805908,-0.16028402745723724
1696958474090247000,4.304246826171875,-2.0451316833496094,0.42109405994415283,-0.3091239929199219
1696958474100260400,4.31426025390625,1.2284116744995117,0.5361100435256958,0.09333273768424988
1696958474110273800,4.324273681640625,-0.48523807525634766,0.5649203658103943,-0.3561283349990845
1696958474120287200,4.334287353515625,0.33308887481689453,0.4087378978729248,-0.0015812814235687256
1696958474130301000,4.344301025390625,-0.24579811096191406,0.4546966552734375,0.22906610369682312
1696958474140314400,4.354314453125,0.8970565795898438,0.6015902161598206,0.289166659116745
1696958474150327800,4.364327880859375,-0.35718727111816406,0.46670854091644287,0.13678687810897827
1696958474160341200,4.37434130859375,1.2925796508789062,0.579166054725647,0.37938192486763
1696958474170354700,4.384354736328125,-0.9565944671630859,0.581753671169281,0.4185313880443573
1696958474180368400,4.394368408203125,1.0481395721435547,0.7333853840827942,0.5522197484970093
1696958474190381800,4.4043818359375,-0.8468341827392578,0.5630074143409729,0.2734926640987396
1696958474200395300,4.414395263671875,1.4252347946166992,0.5044990181922913,0.5176029205322266
1696958474210408700,4.42440869140625,-1.4073114395141602,0.3958660364151001,0.12046408653259277
1696958474220422100,4.434422119140625,0.8851261138916016,0.5635098814964294,0.2227914035320282
1696958474230435800,4.444435791015625,-0.684422492980957,0.4739499092102051,-0.09247177839279175
1696958474240449300,4.45444921875,-0.534541130065918,0.7068619728088379,0.1702311933040619
1696958474250462700,4.464462646484375,-0.5523719787597656,0.7062912583351135,0.28771430253982544
1696958474260476200,4.47447607421875,0.5099401473999023,0.43631231784820557,0.23114079236984253
1696958474270489600,4.484489501953125,-1.5175628662109375,0.37367403507232666,0.15116029977798462
1696958474280503000,4.4945029296875,1.3774423599243164,0.6461047530174255,0.5326350927352905
1696958474290516700,4.504516845703125,-2.018820285797119,0.5286019444465637,0.35548827052116394
1696958474300530200,4.5145302734375,0.920166015625,0.6980971693992615,0.24050888419151306
1696958474310543600,4.524543701171875,-1.02215576171875,0.2747056484222412,0.3270607888698578
1696958474320557000,4.53455712890625,0.16543960571289062,0.8692265748977661,0.6153469085693359
1696958474330570500,4.544570556640625,-0.021505355834960938,0.40009886026382446,-0.11203986406326294
1696958474340584200,4.554584228515625,0.967808723449707,0.5865308046340942,0.4685491621494293
1696958474350597600,4.56459765625,-0.6116838455200195,0.6480387449264526,0.37488165497779846
1696958474360611000,4.574611083984375,1.3967351913452148,0.4286613464355469,0.28057047724723816
1696958474370624500,4.58462451171875,-0.8193588256835938,0.29868006706237793,0.21104934811592102
1696958474380638000,4.594637939453125,1.2660198211669922,0.4721355438232422,0.38513171672821045
1696958474390651600,4.604651611328125,-0.8110971450805664,0.6659616827964783,0.4405689537525177
1696958474400665000,4.6146650390625,1.5513648986816406,0.04082214832305908,0.37607643008232117
1696958474410678500,4.624678466796875,-1.3387737274169922,0.7452892661094666,0.17465630173683167
1696958474420692000,4.63469189453125,1.5984840393066406,0.5842253565788269,0.18088629841804504
1696958474430705400,4.644705322265625,-1.6214323043823242,0.3926188349723816,-0.2109861671924591
1696958474440719000,4.654718994140625,1.0633525848388672,0.08450955152511597,0.07023575901985168
1696958474450732500,4.664732666015625,-2.0690112113952637,0.6766547560691833,-0.09384387731552124
1696958474460746000,4.67474609375,0.6549806594848633,0.06322431564331055,-0.2949557900428772
1696958474470759400,4.684759521484375,-1.9935221672058105,0.9079979062080383,-0.269292414188385
1696958474480772900,4.69477294921875,0.3051595687866211,0.3553963899612427,-0.07677322626113892
1696958474490786600,4.70478662109375,-1.6544389724731445,0.49350929260253906,0.006205946207046509
1696958474500800000,4.714800048828125,0.7963628768920898,0.5481382012367249,0.08408153057098389
1696958474510813400,4.7248134765625,-1.4224910736083984,0.15020650625228882,0.3768412470817566
1696958474520827000,4.734826904296875,1.01806640625,0.8898041248321533,0.4308529794216156
1696958474530840300,4.74484033203125,-0.39861106872558594,-0.035099685192108154,0.010196089744567871
1696958474540854000,4.75485400390625,-1.0811271667480469,0.5649139285087585,0.3417859971523285
1696958474550867500,4.764867431640625,1.4974336624145508,0.5581586956977844,0.4858511984348297
1696958474560881000,4.774880859375,-0.5945587158203125,0.6830421686172485,0.20974591374397278
1696958474570894300,4.784894287109375,0.7735137939453125,0.14366382360458374,0.5766646265983582
1696958474580907800,4.79490771484375,0.8004846572875977,0.45408207178115845,0.38908058404922485
1696958474590921200,4.804921142578125,-0.8360929489135742,0.5692518949508667,0.2879806160926819
1696958474600935000,4.814934814453125,1.9663257598876953,0.021413445472717285,-0.1307709515094757
1696958474610948400,4.8249482421875,-1.9139676094055176,0.6303436160087585,0.2396572232246399
1696958474620961800,4.8349619140625,2.5014495849609375,0.49718713760375977,0.3477689027786255
1696958474630975200,4.844975341796875,-1.2892875671386719,0.2945815920829773,-0.0005837976932525635
1696958474640988700,4.85498876953125,0.7018365859985352,0.09516513347625732,0.08918401598930359
1696958474651002400,4.86500244140625,-0.5276203155517578,0.5828879475593567,0.12055939435958862
1696958474661015800,4.875015869140625,0.6445293426513672,0.6490323543548584,-0.10074251890182495
1696958474671029200,4.885029296875,0.6193866729736328,0.13865375518798828,0.22094082832336426
1696958474681042700,4.895042724609375,0.5225772857666016,0.5705703496932983,0.25721490383148193
1696958474691056000,4.90505615234375,-0.04723834991455078,-0.0196114182472229,0.2208402156829834
1696958474701069800,4.91506982421875,0.45494556427001953,0.9338076710700989,0.43458324670791626
1696958474711083300,4.925083251953125,0.9653215408325195,0.15102362632751465,0.3709978461265564
1696958474721096700,4.9350966796875,0.5521221160888672,0.3288736343383789,-0.0713614821434021
1696958474731110100,4.945110107421875,-0.37613487243652344,0.7657163143157959,0.27181392908096313
1696958474741123600,4.95512353515625,1.2114439010620117,0.5853728652000427,0.2219041883945465
1696958474751137300,4.96513720703125,-1.577383041381836,0.006537497043609619,0.31318801641464233
1696958474761150700,4.975150634765625,1.408334732055664,0.7057487964630127,0.00547635555267334
1696958474771164200,4.9851640625,-2.068838596343994,0.40048301219940186,-0.1889677196741104
1696958474781177600,4.995177490234375,-0.07130908966064453,0.8342160582542419,-0.0067379772663116455
1696958474791191000,5.00519091796875,-0.29529285430908203,0.21445739269256592,-0.17981654405593872
1696958474801204700,5.015204833984375,-1.7187023162841797,0.6405586004257202,-0.1631442755460739
1696958474811218200,5.02521826171875,0.07301044464111328,0.2176588773727417,-0.17233583331108093
1696958474821231600,5.035231689453125,-1.8624558448791504,0.3921395540237427,-0.5307644009590149
1696958474831245000,5.0452451171875,-1.0596637725830078,0.22066080570220947,0.005751192569732666
1696958474841258500,5.055258544921875,0.42456817626953125,0.9458603858947754,0.11012735962867737
1696958474851272200,5.065272216796875,-1.569056510925293,0.1493539810180664,0.33966490626335144
1696958474861285600,5.07528564453125,0.6567926406860352,0.6249610185623169,0.3771762251853943
1696958474871299000,5.085299072265625,-0.4341850280761719,-0.05306386947631836,0.16592946648597717
1696958474881312500,5.0953125,-0.33770751953125,0.5804387331008911,0.2641417384147644
1696958474891326000,5.105325927734375,1.3596372604370117,0.2821345329284668,0.021929502487182617
1696958474901339600,5.115339599609375,-1.4106321334838867,0.5714458227157593,0.0934702455997467
1696958474911353000,5.12535302734375,0.6475543975830078,-0.09119224548339844,0.5611869096755981
1696958474921366500,5.135366455078125,1.0091514587402344,0.46540987491607666,-0.49963217973709106
1696958474931380000,5.1453798828125,-2.1185388565063477,0.6215149164199829,0.15556621551513672
1696958474941393400,5.155393310546875,2.36429500579834,0.3884391784667969,0.13817808032035828
1696958474951406800,5.16540673828125,-1.2874317169189453,0.19555342197418213,-0.36804860830307007
1696958474961420500,5.175420654296875,0.9234123229980469,-0.015866518020629883,-0.07468277215957642
1696958474971434000,5.18543408203125,-0.4688549041748047,0.61363685131073,0.25808048248291016
1696958474981447400,5.195447509765625,0.4210176467895508,-0.02093958854675293,0.06450557708740234
1696958474991460900,5.2054609375,-0.3106060028076172,0.22771310806274414,0.2813946008682251
1696958475001474300,5.215474365234375,2.232457160949707,0.6347646713256836,0.022230148315429688
1696958475011488000,5.225488037109375,-1.6861886978149414,0.08609521389007568,0.19023627042770386
1696958475021501400,5.23550146484375,2.049976348876953,0.6491255760192871,0.25192025303840637
1696958475031515000,5.245514892578125,0.24883174896240234,-0.029984474182128906,0.14170241355895996
1696958475041528300,5.2555283203125,-0.005135536193847656,1.1383051872253418,0.47213318943977356
1696958475051541800,5.265541748046875,1.4623279571533203,-0.08745443820953369,0.2258041799068451
1696958475061555500,5.275555419921875,-1.590083122253418,0.20704257488250732,0.30129069089889526
1696958475071569000,5.28556884765625,0.8415365219116211,0.6749277114868164,0.5697249174118042
1696958475081582300,5.295582275390625,1.135859489440918,0.2972322702407837,0.0618005096912384
1696958475091595800,5.305595703125,-2.231085777282715,0.6284984350204468,0.276140958070755
1696958475101609200,5.315609130859375,1.6976442337036133,0.07927179336547852,0.41334813833236694
1696958475111623000,5.325622802734375,-1.9621143341064453,0.6809884309768677,0.03785935044288635
1696958475121636400,5.33563623046875,0.49384593963623047,0.1624903678894043,-0.16510042548179626
1696958475131649800,5.34564990234375,-1.1365852355957031,0.39687085151672363,0.12716394662857056
1696958475141663200,5.355663330078125,-0.5894393920898438,0.4142293930053711,-0.28267037868499756
1696958475151676700,5.3656767578125,-0.5687198638916016,0.15346014499664307,-0.2138807475566864
1696958475161690000,5.375690185546875,-1.3512401580810547,0.5719524621963501,-0.1784890741109848
1696958475171703600,5.38570361328125,-0.0863027572631836,0.13625788688659668,-0.10103735327720642
1696958475181717000,5.395717041015625,-1.3955965042114258,0.1527475118637085,0.17184489965438843
1696958475191730400,5.40573046875,0.849003791809082,0.22132432460784912,0.3340822756290436
1696958475201744000,5.415743896484375,-1.4136667251586914,0.2794538736343384,0.007084280252456665
1696958475211757300,5.42575732421875,1.4806756973266602,0.23072278499603271,0.21224647760391235
1696958475221770800,5.435770751953125,-1.5002727508544922,-0.0864262580871582,-0.12608271837234497
1696958475231784200,5.4457841796875,0.24718666076660156,0.10125994682312012,-0.07825034856796265
1696958475241797600,5.455797607421875,0.7052764892578125,0.28767824172973633,0.2001250982284546
1696958475251811000,5.46581103515625,-0.6587543487548828,-0.2796006202697754,-0.09603294730186462
1696958475261824500,5.475824462890625,1.2541370391845703,0.5126949548721313,0.0767027735710144
1696958475271838000,5.485837890625,-0.4981088638305664,-0.6169703006744385,-0.33783504366874695
1696958475281851400,5.495851318359375,0.18146514892578125,0.22946608066558838,0.18603071570396423
1696958475291864800,5.50586474609375,1.5573244094848633,-0.11095023155212402,-0.22818008065223694
1696958475301878300,5.515878173828125,-1.495361328125,-0.11567986011505127,0.22728300094604492
1696958475311891700,5.5258916015625,2.7661008834838867,-0.13130533695220947,0.1647534966468811
1696958475321905200,5.5359052734375,-2.2581424713134766,-0.47569572925567627,-0.022645562887191772
1696958475331918600,5.545918701171875,2.009899139404297,0.3920106887817383,0.617793083190918
1696958475341932000,5.55593212890625,0.8918571472167969,-0.011967897415161133,-0.14900103211402893
1696958475351945500,5.565945556640625,-1.5093889236450195,-0.3447200059890747,0.30054739117622375
1696958475361959000,5.575958984375,3.373480796813965,0.16372144222259521,0.3219069540500641
1696958475371972400,5.585972412109375,-1.857649803161621,-0.09163236618041992,0.21978026628494263
1696958475381985800,5.59598583984375,0.7652349472045898,-0.05208134651184082,0.3295063078403473
1696958475391999200,5.605999267578125,0.9980144500732422,0.3527947664260864,0.2935895621776581
1696958475402012700,5.6160126953125,-2.273256778717041,-0.2589864730834961,0.07962557673454285
1696958475412026000,5.626026123046875,1.5599546432495117,-0.16572153568267822,-0.08727610111236572
1696958475422039600,5.63603955078125,-0.2784738540649414,0.10761821269989014,-0.04728773236274719
1696958475432053000,5.646052978515625,-2.3041038513183594,-0.19313883781433105,0.13390418887138367
1696958475442066400,5.65606640625,1.6724920272827148,0.25484418869018555,-0.10157766938209534
1696958475452080000,5.666080078125,-1.7431316375732422,0.12384092807769775,-0.227705717086792
1696958475462093600,5.676093505859375,-0.9700632095336914,-0.30401909351348877,0.12475547194480896
1696958475472107000,5.68610693359375,1.656087875366211,0.14863324165344238,-0.0010739564895629883
1696958475482120400,5.696120361328125,-3.695394992828369,0.12842833995819092,-0.06415373086929321
1696958475492134000,5.7061337890625,1.7131462097167969,-0.40906834602355957,-0.2283014953136444
1696958475502147600,5.716147705078125,-1.3252363204956055,0.161057710647583,-0.22011981904506683
1696958475512161000,5.7261611328125,-1.1072559356689453,-0.14863097667694092,-0.10589674115180969
1696958475522174500,5.736174560546875,0.7207622528076172,-0.3904716968536377,-0.14033132791519165
1696958475532188000,5.74618798828125,-0.7718391418457031,0.11769509315490723,0.020545661449432373
1696958475542201300,5.756201416015625,0.4580402374267578,-0.34303998947143555,0.14297553896903992
1696958475552215000,5.766215087890625,-0.4799528121948242,-0.2741830348968506,-0.08562082052230835
1696958475562228500,5.776228515625,1.628645896911621,-0.15633857250213623,0.20815381407737732
1696958475572242000,5.786241943359375,-0.8124637603759766,0.13432574272155762,0.36772069334983826
1696958475582255400,5.79625537109375,1.5161399841308594,-0.510300874710083,-0.02077421545982361
1696958475592268800,5.806268798828125,-0.23144149780273438,-0.06377708911895752,0.6026775240898132
1696958475602282500,5.816282470703125,0.7483482360839844,-0.035274505615234375,0.15230447053909302
1696958475612296000,5.8262958984375,-0.515202522277832,-0.41008102893829346,-0.1628444492816925
1696958475622309400,5.836309326171875,1.192112922668457,-0.27693498134613037,0.4342709481716156
1696958475632322800,5.84632275390625,-0.3875875473022461,-0.037404417991638184,-0.21799767017364502
1696958475642336300,5.856336181640625,-1.0942144393920898,-0.43887603282928467,0.02249482274055481
1696958475652350000,5.866349853515625,3.004343032836914,-0.11596298217773438,-0.013845354318618774
1696958475662363400,5.87636328125,-2.9332666397094727,-0.34846043586730957,-0.14366215467453003
1696958475672376800,5.886376953125,1.1548709869384766,-0.05048632621765137,0.3269612789154053
1696958475682390300,5.896390380859375,1.2195043563842773,-0.028680801391601562,0.1182117760181427
1696958475692403700,5.90640380859375,-0.9386205673217773,-0.22827041149139404,0.4163457453250885
1696958475702417400,5.91641748046875,1.9453506469726562,-0.29981541633605957,0.11248937249183655
1696958475712430800,5.926430908203125,-1.4425077438354492,0.11738276481628418,0.5833355188369751
1696958475722444300,5.9364443359375,2.2883434295654297,-0.04658079147338867,0.4286233186721802
1696958475732457700,5.946457763671875,-1.4682798385620117,-0.19733548164367676,-0.09905165433883667
1696958475742471200,5.95647119140625,0.5372714996337891,0.06749773025512695,0.3713390529155731
1696958475752484600,5.966484619140625,1.4060888290405273,-0.029565095901489258,0.4425356686115265
1696958475762498300,5.976498291015625,-1.7421398162841797,-0.22378873825073242,-0.0035931766033172607
1696958475772511700,5.98651171875,1.1006193161010742,0.11704957485198975,0.1107412576675415
1696958475782525200,5.996525146484375,-0.37393665313720703,-0.10969173908233643,0.4895007610321045
1696958475792538600,6.00653857421875,0.008858680725097656,-0.35589611530303955,-0.5292149782180786
1696958475802552000,6.016552001953125,-1.658935546875,-0.21726524829864502,0.15543335676193237
1696958475812565800,6.026565673828125,2.45937442779541,-0.0028723478317260742,0.005692660808563232
1696958475822579200,6.0365791015625,-3.519932270050049,-0.5108045339584351,-0.04053717851638794
1696958475832592600,6.046592529296875,0.1869678497314453,-0.05077826976776123,-0.3449576497077942
1696958475842606000,6.056606201171875,-0.3100919723510742,0.2242121696472168,-0.5236613154411316
1696958475852619500,6.06661962890625,-2.03471040725708,-0.1381070613861084,-0.427264928817749
1696958475862633200,6.07663330078125,1.1484050750732422,-0.4495410919189453,-0.43814218044281006
1696958475872646700,6.086646728515625,-3.002429962158203,-0.4619150161743164,-0.7249517440795898
1696958475882660000,6.09666015625,1.253340721130371,0.41262710094451904,-0.08541283011436462
1696958475892673500,6.106673583984375,-0.5702657699584961,-0.7936015129089355,0.07729354500770569
1696958475902687000,6.11668701171875,-1.137619972229004,0.44365036487579346,0.14076444506645203
1696958475912700700,6.12670068359375,2.75494384765625,-0.22259926795959473,0.5650678873062134
1696958475922714000,6.136714111328125,-1.4761152267456055,-0.16937172412872314,0.03868386149406433
1696958475932727600,6.1467275390625,0.6774082183837891,-0.7538689970970154,-0.0825287401676178
1696958475942741000,6.156740966796875,0.13122177124023438,0.24245822429656982,0.07339823246002197
1696958475952754400,6.16675439453125,0.3836994171142578,-0.5416173934936523,0.1584569215774536
1696958475962768100,6.17676806640625,1.3385934829711914,0.05440235137939453,-0.29137158393859863
1696958475972781600,6.186781494140625,-0.8726091384887695,-0.6328119039535522,-0.16942963004112244
1696958475982795500,6.19679541015625,0.4436473846435547,0.20600301027297974,0.17615997791290283
1696958475992809700,6.206809814453125,1.1593017578125,-0.7121545076370239,-0.5248810052871704
1696958476002823200,6.2168232421875,-1.8491315841674805,-0.03416943550109863,-0.6567453145980835
1696958476012836600,6.226836669921875,1.4430303573608398,-0.45958882570266724,0.07465285062789917
1696958476022850300,6.236850341796875,1.1531000137329102,0.1350170373916626,0.21265730261802673
1696958476032863700,6.24686376953125,-0.6992521286010742,-0.5532946586608887,-0.4142385721206665
1696958476042877200,6.256877197265625,-1.2039823532104492,-0.029689908027648926,0.4088348150253296
1696958476052890600,6.266890625,2.5168209075927734,-0.08153104782104492,0.3352222442626953
1696958476062904000,6.276904052734375,-1.2693281173706055,-0.45216113328933716,-0.09628018736839294
1696958476072917800,6.286917724609375,1.3427143096923828,-0.2942799925804138,-0.12333586812019348
1696958476082931200,6.29693115234375,-0.8634452819824219,0.042494773864746094,0.3649122416973114
1696958476092944600,6.306944580078125,1.8047208786010742,-0.6223893165588379,0.3545052409172058
1696958476102958000,6.3169580078125,-0.6226606369018555,-0.5098180770874023,-0.8443838357925415
1696958476112971500,6.326971435546875,-1.0894775390625,-0.12403988838195801,0.018742412328720093
1696958476122985200,6.336985107421875,2.0764636993408203,-0.6718248128890991,-0.3042674660682678
1696958476132998700,6.34699853515625,-1.9952807426452637,-0.6737966537475586,-0.37976813316345215
1696958476143012000,6.35701220703125,0.9674806594848633,-0.2564390301704407,-0.9439090490341187
1696958476153025500,6.367025634765625,-1.8779330253601074,-0.3846333622932434,-0.10129725933074951
1696958476163039000,6.3770390625,2.0641098022460938,-0.11379992961883545,-0.40101712942123413
1696958476173052400,6.387052490234375,-1.3667497634887695,-0.9963477849960327,-0.5386211276054382
1696958476183066000,6.397066162109375,-1.143916130065918,-0.3356049656867981,-0.19247573614120483
1696958476193079600,6.40707958984375,2.2427759170532227,-0.16743487119674683,0.16014009714126587
1696958476203093000,6.417093017578125,-1.8151946067810059,-0.6723244190216064,-0.014655828475952148
1696958476213106400,6.4271064453125,0.4543600082397461,-0.3542943596839905,-0.08362674713134766
1696958476223120000,6.437119873046875,0.4915742874145508,-0.004160881042480469,0.5106729865074158
1696958476233134000,6.447134033203125,0.5858840942382812,-0.5927318334579468,0.6456561088562012
1696958476243147000,6.45714697265625,0.07271766662597656,-0.6230723857879639,-0.46546170115470886
1696958476253160000,6.467159912109375,0.3496856689453125,-0.5072542428970337,-0.17598402500152588
1696958476263173000,6.477173095703125,0.36774349212646484,-0.5048948526382446,0.4139176309108734
1696958476273186000,6.48718603515625,0.4669189453125,-1.0430470705032349,0.030159980058670044
1696958476283199200,6.49719921875,-0.28940868377685547,0.07718890905380249,-0.15313860774040222
1696958476293212400,6.50721240234375,-0.518310546875,-0.48444995284080505,0.05733630061149597
1696958476303225600,6.5172255859375,1.3514108657836914,-1.1526365280151367,-0.6890140771865845
1696958476313239000,6.527239013671875,-2.9241981506347656,-1.753448486328125,-1.5624315738677979
1696958476323252500,6.53725244140625,0.11783695220947266,0.23339444398880005,0.33347851037979126
1696958476333266000,6.547265869140625,2.6266679763793945,-0.20902442932128906,-0.17283889651298523
1696958476343279600,6.557279541015625,-2.894467353820801,-1.3102011680603027,-0.22774456441402435
1696958476353293300,6.567293212890625,0.8449258804321289,-0.6179999113082886,0.44482243061065674
1696958476363307000,6.57730712890625,0.49437808990478516,-0.16310542821884155,0.8041347861289978
1696958476373320700,6.58732080078125,-0.7114381790161133,-0.8372501134872437,-0.10353082418441772
1696958476383334400,6.59733447265625,0.532963752746582,-1.0812666416168213,-0.36792391538619995
1696958476393348400,6.607348388671875,-0.20441341400146484,-0.3067837953567505,0.002670109272003174
1696958476403362000,6.617362060546875,0.5608015060424805,-0.5992178916931152,0.34396201372146606
1696958476413376000,6.6273759765625,-0.7837858200073242,-0.910322904586792,-0.07217413187026978
1696958476423389700,6.6373896484375,1.2776460647583008,-1.0509299039840698,-0.3348914682865143
1696958476433403400,6.6474033203125,-1.0337209701538086,-0.8997616767883301,0.4425505995750427
1696958476443416800,6.657416748046875,0.8848724365234375,-0.7037713527679443,-0.010047733783721924
1696958476453430500,6.667430419921875,-0.7662677764892578,-0.8607727289199829,-1.1509381532669067
1696958476463444000,6.67744384765625,-0.6211872100830078,-1.3133500814437866,-0.2917085886001587
1696958476473457400,6.68745751953125,0.4844226837158203,-0.4746811091899872,-0.19594430923461914
1696958476483470800,6.697470947265625,-1.050990104675293,-0.96912682056427,-0.6299041509628296
1696958476493484300,6.707484375,-0.5131607055664062,-0.7211132645606995,-0.4256463944911957
1696958476503497700,6.717497802734375,1.5622663497924805,-1.3831579685211182,-0.29311174154281616
1696958476513511400,6.727511474609375,-2.8235535621643066,-0.5453159809112549,-0.45507559180259705
1696958476523524900,6.73752490234375,2.5689010620117188,-1.1256431341171265,-0.23992834985256195
1696958476533538300,6.747538330078125,-0.43797779083251953,-0.6277676820755005,-0.10341978073120117
1696958476543551700,6.7575517578125,0.8005743026733398,-0.7451075315475464,0.06005054712295532
1696958476553565200,6.767565185546875,0.5359020233154297,-0.8133648633956909,0.07201629877090454
1696958476563579000,6.777578857421875,0.7112998962402344,-0.6945741176605225,0.34206733107566833
1696958476573592300,6.78759228515625,0.2268543243408203,-0.9144096374511719,-0.2912467420101166
1696958476583605800,6.797605712890625,-0.8061141967773438,-0.9153311252593994,-0.3383510112762451
1696958476593619200,6.807619140625,2.311600685119629,-0.5535928010940552,-0.0007869899272918701
1696958476603632600,6.817632568359375,-1.1825494766235352,-1.061637043952942,-0.06346449255943298
1696958476613646300,6.827646240234375,-0.47281932830810547,-1.0777530670166016,-0.34886598587036133
1696958476623659800,6.83765966796875,0.355133056640625,-1.0141706466674805,-0.030333489179611206
1696958476633673200,6.847673095703125,-0.24308490753173828,-0.828216016292572,-0.18756818771362305
1696958476643686700,6.857686767578125,-0.6297550201416016,-0.9784744381904602,-0.7912865877151489
1696958476653700000,6.8677001953125,0.0026264190673828125,-1.068333387374878,-0.24078480899333954
1696958476663713800,6.8777138671875,1.4316625595092773,-1.0043044090270996,0.11695429682731628
1696958476673727200,6.887727294921875,-1.7833271026611328,-0.5989125967025757,0.012255758047103882
1696958476683740700,6.89774072265625,1.7428674697875977,-1.061543345451355,0.07444652915000916
1696958476693754000,6.907754150390625,0.35292911529541016,-0.6979122161865234,0.5303002595901489
1696958476703767600,6.917767578125,-0.01621723175048828,-1.0512933731079102,0.0032420754432678223
1696958476713781200,6.92778125,0.2607917785644531,-1.238732933998108,-0.1615394949913025
1696958476723794700,6.937794677734375,0.5468235015869141,-0.6463386416435242,0.4777233302593231
1696958476733809000,6.947808837890625,1.0280218124389648,-0.7734966278076172,0.2681215703487396
1696958476743821800,6.95782177734375,-1.6366472244262695,-0.8226282596588135,-0.04629248380661011
1696958476753835000,6.9678349609375,1.2678050994873047,-0.9741225242614746,0.08077946305274963
1696958476763848200,6.97784814453125,0.1894664764404297,-0.9681329131126404,0.24310150742530823
1696958476773861400,6.987861328125,-0.9824352264404297,-1.1048855781555176,-1.0669041872024536
1696958476783874600,6.99787451171875,-0.19151878356933594,-1.1670451164245605,-0.24904009699821472
1696958476793887700,7.0078876953125,1.0991239547729492,-1.137505292892456,-0.12079444527626038
1696958476803901000,7.01790087890625,-2.043431282043457,-1.048600435256958,-0.5550524592399597
1696958476813914400,7.027914306640625,0.6470985412597656,-1.398249626159668,-0.17429956793785095
1696958476823927800,7.037927734375,1.3768463134765625,-0.9179912209510803,0.2830062806606293
1696958476833941200,7.047941162109375,-0.3804779052734375,-1.402169942855835,-0.3741845190525055
1696958476843954700,7.05795458984375,-0.43224239349365234,-1.2143495082855225,-0.3269463777542114
1696958476853968100,7.067968017578125,1.8676815032958984,-1.006768822669983,0.11187532544136047
1696958476863981800,7.07798193359375,-0.019664764404296875,-1.1636942625045776,-0.3445698320865631
1696958476873995500,7.08799560546875,-0.8319740295410156,-0.834965169429779,-0.2844400107860565
1696958476884009200,7.09800927734375,1.9419889450073242,-0.5659137964248657,0.12200099229812622
1696958476894023000,7.10802294921875,-0.35641002655029297,-1.289945363998413,-0.3240778148174286
1696958476904036600,7.11803662109375,-1.0005950927734375,-0.626882791519165,-0.2778318524360657
1696958476914050600,7.128050537109375,1.1095561981201172,-1.1328190565109253,0.3431641161441803
1696958476924064300,7.138064208984375,-0.9669923782348633,-0.4930466115474701,0.2556473910808563
1696958476934078000,7.148077880859375,0.31122684478759766,-1.121467113494873,-0.3977937400341034
1696958476944092000,7.158091796875,-1.1946163177490234,-0.4765017628669739,-0.11645516753196716
1696958476954105300,7.168105224609375,1.125941276550293,-1.1847835779190063,0.003931701183319092
1696958476964119000,7.178119140625,-2.1167244911193848,-0.9807645082473755,-0.4490204453468323
1696958476974132500,7.188132568359375,-0.6110115051269531,-0.7391234636306763,-0.10823720693588257
1696958476984146700,7.198146728515625,1.163651466369629,-1.1558420658111572,-0.03933495283126831
1696958476994159400,7.208159423828125,-1.5727081298828125,-1.0183658599853516,-0.16255247592926025
1696958477004172300,7.21817236328125,0.36675071716308594,-0.5934534072875977,0.18776318430900574
1696958477014185000,7.22818505859375,0.6669607162475586,-0.5534979104995728,0.3149052858352661
1696958477024198000,7.238197998046875,0.2925548553466797,-1.191741704940796,0.04009488224983215
1696958477034210800,7.2482109375,0.10078239440917969,-1.1261662244796753,0.012981146574020386
1696958477044224000,7.25822412109375,-0.16221332550048828,-0.3243069350719452,0.4921463131904602
1696958477054237200,7.2682373046875,2.4904212951660156,-0.5992332696914673,0.5768378376960754
1696958477064250400,7.27825048828125,-0.5979223251342773,-0.9786798357963562,0.019717305898666382
1696958477074263800,7.288263916015625,-0.3432741165161133,-0.9250143766403198,0.2083236575126648
1696958477084277200,7.29827734375,1.4163455963134766,-0.16468185186386108,0.643501877784729
1696958477094291000,7.308291015625,1.2218236923217773,-0.7098226547241211,0.47702354192733765
1696958477104304600,7.3183046875,-0.7596111297607422,-0.7534863948822021,-0.07725176215171814
1696958477114318300,7.328318359375,0.7810955047607422,-1.1279852390289307,0.8344935178756714
1696958477124332300,7.338332275390625,0.9991855621337891,-0.11099052429199219,0.5709437727928162
1696958477134346200,7.34834619140625,0.1365070343017578,-0.41352447867393494,-0.1311381459236145
1696958477144360200,7.358360107421875,0.2557668685913086,-0.6040513515472412,0.13016676902770996
1696958477154374100,7.3683740234375,1.3210430145263672,-0.5732037425041199,0.5620348453521729
1696958477164388400,7.378388427734375,-0.12065410614013672,-0.49687737226486206,-0.3561623990535736
1696958477174402300,7.38840234375,-0.41637229919433594,-0.19809001684188843,-0.3554701507091522
1696958477184416000,7.398416015625,0.13447284698486328,-0.48520562052726746,0.478701114654541
1696958477194429400,7.408429443359375,0.942021369934082,-0.5936366319656372,0.09245461225509644
1696958477204443100,7.418443115234375,-1.6310195922851562,0.28874045610427856,-0.6229623556137085
1696958477214456600,7.42845654296875,0.5667705535888672,-0.46779105067253113,0.1555192470550537
1696958477224470000,7.438469970703125,-0.4520225524902344,0.010714411735534668,0.2241719365119934
1696958477234483500,7.4484833984375,-0.5080223083496094,-0.5125004649162292,-0.30289772152900696
1696958477244497000,7.458496826171875,-0.9030284881591797,0.18890196084976196,-0.3106512129306793
1696958477254510300,7.46851025390625,0.7818412780761719,-0.13105517625808716,0.3908052444458008
1696958477264524000,7.47852392578125,-0.33808422088623047,-0.01365351676940918,-0.009186148643493652
1696958477274537500,7.488537353515625,-0.23181915283203125,-0.24683678150177002,-0.22869384288787842
1696958477284551000,7.498551025390625,-0.8951301574707031,0.30607086420059204,0.13560158014297485
1696958477294564400,7.508564453125,1.0953245162963867,-0.008249044418334961,0.4041752815246582
1696958477304577800,7.518577880859375,-1.3777713775634766,-0.08852964639663696,0.014720141887664795
1696958477314591500,7.528591552734375,0.9099578857421875,-0.27923569083213806,0.09208393096923828
1696958477324605000,7.53860498046875,-0.2531614303588867,0.7575399875640869,0.6081368327140808
1696958477334618400,7.548618408203125,1.744882583618164,-0.6481226682662964,0.4842718839645386
1696958477344631800,7.5586318359375,-2.2018299102783203,-0.0425640344619751,-0.6006384491920471
1696958477354645200,7.568645263671875,0.3555593490600586,-0.018646597862243652,0.8721770644187927
1696958477364659000,7.578658935546875,2.0655288696289062,0.16067612171173096,-0.5191342234611511
1696958477374672400,7.58867236328125,-4.099470138549805,-0.04516410827636719,-0.28414809703826904
1696958477384685800,7.598685791015625,2.343109130859375,0.09130537509918213,0.055316805839538574
1696958477394699300,7.60869921875,-0.8549747467041016,0.8554016351699829,-0.747137725353241
1696958477404712700,7.618712646484375,-1.3113117218017578,-0.3673573434352875,0.037837862968444824
1696958477414726400,7.628726318359375,0.4552268981933594,0.1788603663444519,-0.6715961694717407
1696958477424739800,7.63873974609375,-1.1369686126708984,0.03937560319900513,0.026791095733642578
1696958477434753300,7.648753173828125,1.2122678756713867,-0.03970599174499512,0.10134375095367432
1696958477444766700,7.6587666015625,-1.1417512893676758,-0.17986619472503662,0.05556809902191162
1696958477454780200,7.6687802734375,0.24691009521484375,0.4545994997024536,0.14324891567230225
1696958477464793900,7.6787939453125,0.35631465911865234,0.0938408374786377,0.6540965437889099
1696958477474807300,7.688807373046875,0.8760614395141602,-0.16733533143997192,-0.36806100606918335
1696958477484820700,7.69882080078125,-2.380310535430908,-0.22636735439300537,-0.25971081852912903
1696958477494834200,7.708834228515625,2.4472761154174805,0.4870036840438843,0.45615458488464355
1696958477504848600,7.7188486328125,0.5296468734741211,-0.46669527888298035,-0.7127772569656372
1696958477514861800,7.72886181640625,-2.5347113609313965,0.15382874011993408,0.17293834686279297
1696958477524875000,7.738875,3.7699575424194336,0.4130757451057434,0.27726221084594727
1696958477534888000,7.748887939453125,-2.843550682067871,-0.05289703607559204,-0.009597301483154297
1696958477544901000,7.758901123046875,1.468994140625,-0.418538361787796,0.0021790266036987305
1696958477554914600,7.76891455078125,0.486083984375,0.6553823351860046,-0.15322375297546387
1696958477564927700,7.778927734375,-1.6418828964233398,-0.35140296816825867,-0.34208524227142334
1696958477574941200,7.788941162109375,1.826986312866211,0.2800700068473816,0.11304962635040283
1696958477584954400,7.798954345703125,-0.26552391052246094,-0.05388212203979492,-0.2682337462902069
1696958477594967800,7.8089677734375,-0.852635383605957,0.36847424507141113,0.10199540853500366
1696958477604981500,7.8189814453125,1.3718585968017578,-0.23512601852416992,0.35807883739471436
1696958477614995000,7.828994873046875,-0.9824028015136719,-0.4245431125164032,0.03937697410583496
1696958477625008600,7.839008544921875,-0.6214370727539062,0.1854538917541504,0.11125761270523071
1696958477635022000,7.84902197265625,1.545048713684082,0.20667272806167603,-0.04924970865249634
1696958477645035800,7.859035888671875,-0.9577569961547852,-0.3743773400783539,0.20394927263259888
1696958477655049500,7.869049560546875,1.343186378479004,0.26779502630233765,-0.6220722198486328
1696958477665063200,7.879063232421875,-1.6416854858398438,0.03391796350479126,0.4835997223854065
1696958477675076900,7.889076904296875,2.233067512512207,0.4623394012451172,0.08210265636444092
1696958477685090600,7.899090576171875,-2.02540922164917,-0.7250962257385254,-0.4279562830924988
1696958477695104300,7.909104248046875,-0.7253351211547852,0.5485803484916687,-0.22763502597808838
1696958477705118000,7.919117919921875,1.4796819686889648,0.31948721408843994,0.3396757245063782
1696958477715131600,7.929131591796875,-0.8656139373779297,0.15769237279891968,-0.03790557384490967
1696958477725145300,7.939145263671875,-0.758418083190918,-0.22505801916122437,-0.3991003930568695
1696958477735158800,7.94915869140625,-0.38842105865478516,0.6575803756713867,0.20754611492156982
1696958477745172200,7.959172119140625,0.2625083923339844,-0.004040896892547607,0.28387588262557983
1696958477755186000,7.96918603515625,-2.0512266159057617,-0.3741287291049957,-0.08768278360366821
1696958477765199400,7.979199462890625,1.1317501068115234,0.561674952507019,0.1359553337097168
1696958477775212800,7.989212890625,-0.3572406768798828,0.1012304425239563,0.2871410846710205
1696958477785226200,7.999226318359375,-0.4903907775878906,0.04286491870880127,0.12231975793838501
1696958477795239700,8.00923974609375,-0.9958429336547852,0.23514539003372192,-0.29364022612571716
1696958477805253400,8.01925341796875,-0.06634235382080078,0.4542425274848938,0.47676634788513184
1696958477815266800,8.029266845703125,0.7937355041503906,-0.17578649520874023,-0.04757028818130493
1696958477825280300,8.0392802734375,-2.5056376457214355,-0.08299362659454346,-0.027514159679412842
1696958477835293700,8.049293701171875,1.1272697448730469,0.1446911096572876,-0.11362063884735107
1696958477845307100,8.05930712890625,-0.9016504287719727,0.6774256229400635,0.12060034275054932
1696958477855320800,8.06932080078125,-0.33110904693603516,-0.13307613134384155,0.044267475605010986
1696958477865334300,8.079334228515625,1.0028629302978516,0.015788257122039795,-0.3210917115211487
1696958477875347700,8.08934765625,-2.9709296226501465,0.19140022993087769,0.23804283142089844
1696958477885361200,8.099361083984375,2.780205726623535,0.26576101779937744,0.5242642164230347
1696958477895374600,8.10937451171875,-1.0833778381347656,-0.057605624198913574,-0.5060768723487854
1696958477905388300,8.11938818359375,-2.8252296447753906,0.22811603546142578,-0.05785936117172241
1696958477915401700,8.129401611328126,3.2791709899902344,0.9787787795066833,0.27538108825683594
1696958477925415200,8.139415283203125,-2.205665111541748,-0.5504589080810547,-1.1763525009155273
1696958477935428600,8.1494287109375,-2.816833972930908,0.7986664772033691,-0.3844415843486786
1696958477945442000,8.159442138671874,1.8780174255371094,-0.1647091507911682,-0.37757906317710876
1696958477955455500,8.16945556640625,-3.435943603515625,0.4483146667480469,-0.390322208404541
1696958477965469200,8.17946923828125,0.4193286895751953,0.03711742162704468,-0.20950371026992798
1696958477975482600,8.189482666015625,0.6570854187011719,0.4583474397659302,0.07916778326034546
1696958477985496000,8.19949609375,-3.0195040702819824,0.5552253127098083,1.6314358711242676
1696958477995509500,8.209509521484375,4.6762895584106445,0.1989193558692932,1.4733107089996338
1696958478005523000,8.21952294921875,-2.7861876487731934,0.025314748287200928,0.043039023876190186
1696958478015536600,8.22953662109375,1.807729721069336,-0.8755284547805786,0.9173370599746704
1696958478025550000,8.239550048828125,1.6877689361572266,-0.33396831154823303,0.14920705556869507
1696958478035563500,8.2495634765625,-0.9263677597045898,-0.21825376152992249,-0.6787148714065552
1696958478045577000,8.259576904296875,1.6941184997558594,0.2698037028312683,-0.28849536180496216
1696958478055590400,8.26959033203125,2.870147705078125,-0.4799359142780304,-0.3776126503944397
1696958478065604000,8.27960400390625,-2.541992664337158,-0.9132938385009766,-0.6792126893997192
1696958478075617500,8.289617431640625,1.143467903137207,-0.6682685613632202,-1.55977463722229
1696958478085631000,8.299630859375,3.88877010345459,-0.44617772102355957,-1.7940505743026733
1696958478095644400,8.30964453125,-0.2252368927001953,-0.7468768358230591,0.3422183394432068
1696958478105657900,8.319657958984376,2.498904228210449,-0.00438690185546875,0.12830621004104614
1696958478115671600,8.329671630859375,1.3171844482421875,-0.22470906376838684,0.3179782032966614
1696958478125685000,8.33968505859375,1.109060287475586,0.8364101052284241,0.5786833167076111
1696958478135698400,8.349698486328125,4.173986434936523,-0.5731253027915955,-0.760635256767273
1696958478145711900,8.3597119140625,-2.3925719261169434,-0.5239951014518738,-0.610870361328125
1696958478155725300,8.369725341796874,5.245229721069336,-0.745378851890564,0.1852620244026184
1696958478165739000,8.379739013671875,-0.11950492858886719,0.0272025465965271,-0.11487483978271484
1696958478175752400,8.38975244140625,3.192293167114258,-0.21794745326042175,0.2597295045852661
1696958478185766000,8.399765869140625,1.6746711730957031,-0.22863909602165222,0.7466970682144165
1696958478195779300,8.409779296875,0.6096181869506836,-0.2886674106121063,-0.007346987724304199
1696958478205792800,8.419792724609374,-1.6137895584106445,-0.004130423069000244,-0.232937753200531
1696958478215806500,8.429806396484375,0.4071521759033203,0.06510108709335327,0.8333898186683655
1696958478225820000,8.43981982421875,2.1073665618896484,-0.10059350728988647,-0.6146072149276733
1696958478235833300,8.449833251953125,-3.5076584815979004,0.9938839673995972,-0.8814876675605774
1696958478245846800,8.4598466796875,2.436476707458496,0.535082221031189,-0.01532667875289917
1696958478255860200,8.469860107421875,-1.1580696105957031,-0.5937255620956421,-0.675322949886322
1696958478265874000,8.4798740234375,-1.9624414443969727,0.10015541315078735,-0.8136239647865295
1696958478275887400,8.489887451171874,-0.48011112213134766,0.7518907785415649,-0.21201306581497192
1696958478285900800,8.49990087890625,-0.2300863265991211,-0.1848638653755188,-0.1939220428466797
1696958478295914200,8.509914306640624,-0.7497959136962891,-0.5592035055160522,-0.3815016746520996
1696958478305927700,8.519927734375,-1.392470359802246,0.4555034041404724,-0.03620249032974243
1696958478315941000,8.529941162109376,0.8335990905761719,0.4657133221626282,0.2770392894744873
1696958478325954800,8.539954833984375,0.16271400451660156,-0.029787302017211914,-0.5404469966888428
1696958478335968300,8.54996826171875,-2.5133166313171387,0.07628101110458374,-0.38180476427078247
1696958478345981700,8.559981689453124,1.3924551010131836,-0.3227291405200958,-1.0582480430603027
1696958478355995100,8.5699951171875,-2.5195260047912598,0.4396059513092041,-0.6171639561653137
1696958478366008600,8.580008544921874,0.8369979858398438,0.11774462461471558,-0.1254650354385376
1696958478376022300,8.590022216796875,-2.333127021789551,0.25297075510025024,-0.9002936482429504
1696958478386035700,8.60003564453125,-0.21489238739013672,-0.10122334957122803,-0.6226715445518494
1696958478396049200,8.610049072265625,-0.9355020523071289,-0.37517520785331726,-0.9401021599769592
1696958478406062600,8.6200625,-2.1561641693115234,0.3052096962928772,-1.0493221282958984
1696958478416076000,8.630075927734374,-0.5256891250610352,-0.2655652165412903,-1.125380516052246
1696958478426089700,8.64008984375,0.8812589645385742,0.025183022022247314,-0.6415791511535645
1696958478436103200,8.650103271484374,-1.80617094039917,-0.08845359086990356,-0.7735982537269592
1696958478446116600,8.66011669921875,-0.44397735595703125,-0.0146828293800354,-0.37867939472198486
1696958478456130000,8.670130126953126,-0.6766271591186523,0.08640509843826294,-0.593916118144989
1696958478466143500,8.6801435546875,0.3820056915283203,0.35412466526031494,0.19355648756027222
1696958478476157200,8.6901572265625,-0.3163270950317383,-0.23464202880859375,-1.363722324371338
1696958478486170600,8.700170654296874,-1.5574827194213867,-0.5437220931053162,-0.6051215529441833
1696958478496184000,8.71018408203125,1.0661659240722656,0.8006410002708435,-0.005042135715484619
1696958478506197500,8.720197509765624,0.08445549011230469,-0.628948986530304,-0.7873896360397339
1696958478516211000,8.7302109375,-2.7154040336608887,-0.8555160164833069,-0.30244094133377075
1696958478526224600,8.740224609375,3.562088966369629,0.4313753843307495,1.1908257007598877
1696958478536238000,8.750238037109375,-1.3203277587890625,0.2141042947769165,0.3738566040992737
1696958478546251500,8.76025146484375,0.6617460250854492,-0.0200197696685791,0.30302226543426514
1696958478556265000,8.770264892578124,2.074997901916504,-1.06269371509552,0.6400785446166992
1696958478566278400,8.7802783203125,0.2974052429199219,-0.8044506311416626,0.09769260883331299
1696958478576292000,8.7902919921875,-1.1988792419433594,1.2416685819625854,0.6537871360778809
1696958478586305500,8.800305419921875,3.5259017944335938,2.1868653297424316,0.241174578666687
1696958478596319000,8.810319091796876,-1.2618427276611328,-0.31392180919647217,-1.6722794771194458
1696958478606332400,8.82033251953125,-0.5037479400634766,-1.7383440732955933,-2.476139545440674
1696958478616346000,8.83034619140625,-2.279191493988037,0.4924841523170471,-0.45907220244407654
1696958478626359600,8.840359619140624,2.9739437103271484,1.7220566272735596,0.8162471652030945
1696958478636373000,8.850373046875,2.4124841690063477,0.2819148898124695,-0.0019940733909606934
1696958478646386700,8.86038671875,-1.5597944259643555,-0.42325443029403687,-0.7926836013793945
1696958478656400100,8.870400146484375,-1.0302915573120117,0.7048553824424744,0.33658385276794434
1696958478666413800,8.880413818359376,3.9563608169555664,0.6707534790039062,0.6516721248626709
1696958478676427300,8.89042724609375,-0.6699609756469727,-0.1227579116821289,-0.5019030570983887
1696958478686440700,8.900440673828125,-0.32470226287841797,0.11339640617370605,-0.11559921503067017
1696958478696454400,8.910454345703124,2.3805246353149414,0.7839871644973755,0.6550845503807068
1696958478706467800,8.9204677734375,0.9020519256591797,0.32123762369155884,-0.18150430917739868
1696958478716481500,8.9304814453125,-1.8630642890930176,-0.04450178146362305,-0.7198204398155212
1696958478726495000,8.940494873046875,-0.7506265640258789,-0.37361592054367065,-0.0012088418006896973
1696958478736508400,8.95050830078125,1.7070112228393555,0.7962539196014404,-0.013325035572052002
1696958478746522000,8.960522216796875,-0.5393304824829102,0.3327144384384155,-0.9814479351043701
1696958478756535600,8.97053564453125,-1.0738744735717773,0.06494152545928955,-0.9905663728713989
1696958478766549200,8.98054931640625,-1.8651456832885742,-0.5137162208557129,0.02581799030303955
1696958478776562700,8.990562744140625,1.9667491912841797,-0.07665860652923584,-0.7107588648796082
1696958478786576100,9.000576171875,-3.515153408050537,-0.7512227296829224,-1.1548376083374023
1696958478796589800,9.01058984375,0.40212345123291016,0.4092608094215393,-0.48438456654548645
1696958478806603300,9.020603271484376,1.6243610382080078,-0.11486160755157471,-0.001546621322631836
1696958478816617000,9.030616943359375,-1.5388717651367188,-0.3526362180709839,-0.6129469871520996
1696958478826630400,9.04063037109375,-0.5033054351806641,-0.04771977663040161,-0.44194531440734863
1696958478836643800,9.050643798828125,0.09979248046875,-0.13756227493286133,0.11018228530883789
1696958478846657500,9.060657470703125,1.7668418884277344,-0.05065816640853882,-0.5427510142326355
1696958478856671000,9.0706708984375,-1.9985671043395996,0.21465355157852173,-0.14505022764205933
1696958478866684700,9.0806845703125,2.5026559829711914,-0.17805171012878418,0.271190345287323
1696958478876698000,9.090697998046876,-0.638702392578125,-0.20309150218963623,0.15057384967803955
1696958478886711600,9.100711669921875,0.7577648162841797,-0.7876803874969482,-0.3332012891769409
1696958478896725200,9.110725341796876,-1.4472274780273438,0.6557890176773071,-0.19598275423049927
1696958478906738700,9.12073876953125,1.4900274276733398,-0.4661564528942108,0.010536015033721924
1696958478916752400,9.13075244140625,-0.606816291809082,-0.6799777746200562,-0.4659854471683502
1696958478926765800,9.140765869140624,-0.19457054138183594,0.3590708374977112,-0.4535871744155884
1696958478936779300,9.150779296875,1.813028335571289,0.14108878374099731,-0.11825019121170044
1696958478946792700,9.160792724609376,-2.4685416221618652,-0.013072013854980469,-0.1290101706981659
1696958478956806100,9.17080615234375,0.9113836288452148,-0.48921188712120056,-0.8395432233810425
1696958478966819800,9.18081982421875,-2.048786163330078,-0.11421781778335571,-0.8992435932159424
1696958478976833300,9.190833251953125,0.6996345520019531,0.07051193714141846,0.6100292801856995
1696958478986846700,9.2008466796875,1.1808700561523438,0.0035918354988098145,0.3328307271003723
1696958478996860200,9.210860107421874,-1.837484359741211,0.4567081928253174,-0.42904558777809143
1696958479006873600,9.22087353515625,0.4849987030029297,-0.3041531443595886,0.592856228351593
1696958479016887300,9.23088720703125,0.694310188293457,0.7980437874794006,0.5476022362709045
1696958479026900700,9.240900634765625,-0.5166473388671875,-0.5005664825439453,-0.8153712749481201
1696958479036914200,9.2509140625,-0.9356317520141602,0.13090789318084717,0.1046527624130249
1696958479046927600,9.260927734375,1.2936811447143555,0.28762733936309814,0.7273346781730652
1696958479056941000,9.270941162109375,-0.5445394515991211,0.2597591280937195,-0.07475614547729492
1696958479066954800,9.280954833984374,-0.4430408477783203,-0.2940889000892639,-0.5500472187995911
1696958479076968200,9.29096826171875,-0.7617759704589844,0.5500773787498474,0.6241794228553772
1696958479086981600,9.300981689453126,2.489499092102051,-0.2191152572631836,0.4879421889781952
1696958479096995000,9.3109951171875,-1.6694393157958984,0.04320871829986572,-0.6547467708587646
1696958479107008500,9.321008544921876,0.1028289794921875,0.29592275619506836,0.6611388921737671
1696958479117022000,9.33102197265625,1.9519777297973633,0.3293713331222534,0.5623515844345093
1696958479127035600,9.34103564453125,-1.7327871322631836,-0.49390390515327454,-0.6363664269447327
1696958479137049000,9.351049072265624,-0.39040088653564453,-0.2630116939544678,-0.027101248502731323
1696958479147062500,9.3610625,1.1781635284423828,0.8074093461036682,0.660731315612793
1696958479157076000,9.371075927734376,1.1463899612426758,-0.11432957649230957,-0.5001606345176697
1696958479167089400,9.38108935546875,-3.314901351928711,-0.21171480417251587,-0.440489798784256
1696958479177103000,9.39110302734375,2.236591339111328,0.2806442379951477,-0.018102169036865234
1696958479187116500,9.401116455078125,0.23384475708007812,-0.33403241634368896,-0.19670075178146362
1696958479197130000,9.4111298828125,-1.5348777770996094,0.30946600437164307,-0.38826656341552734
1696958479207143400,9.421143310546874,0.4857158660888672,0.05472928285598755,0.07691130042076111
1696958479217156900,9.431156982421875,-0.829533576965332,0.4743354916572571,0.26554813981056213
1696958479227170600,9.441170654296876,2.355158805847168,-0.47666916251182556,-0.21621015667915344
1696958479237184000,9.45118408203125,-3.1651620864868164,-0.026288986206054688,-0.4613066613674164
1696958479247197400,9.461197509765626,2.108822822570801,0.5439600944519043,0.48730239272117615
1696958479257211000,9.4712109375,1.4587163925170898,-0.3232923746109009,0.04011008143424988
1696958479267224300,9.481224365234375,-2.7742128372192383,0.5043271780014038,-0.33034002780914307
1696958479277238000,9.491238037109374,1.1560392379760742,0.12450909614562988,0.31365692615509033
1696958479287251500,9.50125146484375,1.215616226196289,0.3249145746231079,-0.17791610956192017
1696958479297265000,9.511264892578126,-2.256863594055176,-1.3099318742752075,-0.6627530455589294
1696958479307278300,9.5212783203125,0.028623580932617188,0.7913121581077576,0.37532079219818115
1696958479317291800,9.531291748046876,2.7144384384155273,0.6158151030540466,0.16466906666755676
1696958479327305500,9.541305419921875,-2.0945138931274414,-0.09887522459030151,0.04090791940689087
1696958479337319000,9.55131884765625,0.47659778594970703,-0.08815371990203857,0.3406986594200134
1696958479347332400,9.561332275390624,1.388676643371582,0.3641335964202881,0.6715660691261292
1696958479357345800,9.571345703125,-1.2859878540039062,0.29529672861099243,0.13616544008255005
1696958479367359200,9.581359130859376,0.2558021545410156,-0.5270471572875977,0.09238117933273315
1696958479377373000,9.591373046875,0.891169548034668,0.7613999843597412,0.6345844268798828
1696958479387386400,9.601386474609376,-0.3867607116699219,0.4981966018676758,0.2984888553619385
1696958479397399800,9.61139990234375,-0.23321056365966797,-0.2133169174194336,-0.033209264278411865
1696958479407413200,9.621413330078125,-0.012248039245605469,0.26015913486480713,0.461811363697052
1696958479417426700,9.6314267578125,-0.9010086059570312,0.3070529103279114,-0.05218285322189331
1696958479427440000,9.641440185546875,-0.17230701446533203,0.5202067494392395,0.12109452486038208
1696958479437453800,9.651453857421876,0.5309696197509766,0.24574393033981323,0.2876920700073242
1696958479447467300,9.66146728515625,-1.558455467224121,0.2039235234260559,0.4007369875907898
1696958479457480700,9.671480712890625,1.4224824905395508,0.6086966395378113,0.6084344983100891
1696958479467494100,9.681494140625,-0.1671895980834961,0.47215431928634644,0.13441550731658936
1696958479477507600,9.691507568359375,-1.203995704650879,-0.2952001690864563,0.33755457401275635
1696958479487521300,9.701521240234374,1.1598215103149414,1.3297464847564697,0.5052381753921509
1696958479497534700,9.71153466796875,-1.2945079803466797,0.12504327297210693,0.3411254286766052
1696958479507548200,9.721548095703126,0.15170574188232422,0.10849875211715698,0.493441104888916
1696958479517561600,9.7315615234375,0.8490200042724609,-0.05127370357513428,0.10888129472732544
1696958479527575000,9.741574951171875,-0.2281169891357422,1.0086883306503296,0.6839262247085571
1696958479537588700,9.751588623046874,0.2930583953857422,-0.01582026481628418,0.05587285757064819
1696958479547602200,9.761602294921875,0.35930728912353516,0.44126611948013306,0.17676478624343872
1696958479557615600,9.77161572265625,-0.08594989776611328,-0.36845797300338745,0.12379676103591919
1696958479567629000,9.781629150390625,-0.48241519927978516,0.7213655710220337,0.1586207151412964
1696958479577642500,9.791642578125,1.516469955444336,0.3023958206176758,-0.4427296817302704
1696958479587656200,9.80165625,-1.6505126953125,0.22129178047180176,-0.10488593578338623
1696958479597669600,9.811669677734375,1.808659553527832,0.553016185760498,-0.005716800689697266
1696958479607683000,9.82168310546875,0.08907127380371094,0.272765576839447,-0.1632055640220642
1696958479617696500,9.831696533203125,-0.6756210327148438,-0.0668601393699646,0.01024317741394043
1696958479627710000,9.8417099609375,0.3204078674316406,0.32714784145355225,0.28166741132736206
1696958479637723600,9.8517236328125,0.009421348571777344,0.9690269827842712,0.673554539680481
1696958479647737000,9.861737060546876,0.3248481750488281,0.41045260429382324,-0.16682016849517822
1696958479657750500,9.87175048828125,-1.3576765060424805,0.24917292594909668,0.4597991108894348
1696958479667764000,9.881763916015625,0.9634914398193359,0.06253808736801147,0.40126127004623413
1696958479677777400,9.89177734375,-1.3420848846435547,0.8034527897834778,0.024914026260375977
1696958479687791000,9.901791015625,0.9791269302368164,0.6125382781028748,0.8515459299087524
1696958479697804500,9.911804443359374,1.5118417739868164,-0.33926427364349365,-0.03570514917373657
1696958479707818000,9.92181787109375,-1.3876771926879883,0.5820971131324768,0.5351333618164062
1696958479717831400,9.93183154296875,0.9763917922973633,0.5768163800239563,0.8276336193084717
1696958479727844900,9.941844970703125,-0.04389476776123047,1.3218261003494263,0.6779986023902893
1696958479737858300,9.9518583984375,0.9258518218994141,-1.0694818496704102,-0.17256182432174683
1696958479747872000,9.9618720703125,-1.441716194152832,0.7004543542861938,0.16155415773391724
1696958479757885400,9.971885498046875,0.6070699691772461,0.7490159869194031,0.4618305563926697
1696958479767899000,9.98189892578125,0.08000659942626953,1.023782730102539,0.31480854749679565
1696958479777912300,9.991912353515625,-0.8475027084350586,-1.0134356021881104,-0.13863593339920044
1696958479787925800,10.00192578125,-1.150848388671875,1.2548197507858276,0.26845329999923706
1696958479797939500,10.011939453125,0.4049873352050781,0.6996303796768188,0.37264013290405273
1696958479807953000,10.021952880859375,-0.5612859725952148,0.5558526515960693,-0.08719813823699951
1696958479817966300,10.03196630859375,-1.0425586700439453,-0.2811102271080017,0.0693022608757019
1696958479827979800,10.041979736328125,-0.7436733245849609,0.9951237440109253,0.4239596128463745
1696958479837993200,10.0519931640625,0.7681770324707031,0.9266590476036072,-0.010550081729888916
1696958479848007000,10.0620068359375,-1.408127784729004,0.1626095175743103,-0.6626713275909424
1696958479858020400,10.072020263671876,0.0813589096069336,-0.2067258358001709,-0.5239830017089844
1696958479868033800,10.08203369140625,-0.9411745071411133,0.6555543541908264,-0.10796129703521729
1696958479878047200,10.092047119140625,0.9008321762084961,1.270287036895752,0.06040143966674805
1696958479888060700,10.102060791015624,-0.6640157699584961,-0.7720378637313843,-0.7340701818466187
1696958479898074400,10.112074462890625,-0.0029687881469726562,0.23844188451766968,0.2879868149757385
1696958479908087800,10.122087890625,0.6090078353881836,1.0803885459899902,0.24558907747268677
1696958479918101200,10.132101318359375,0.2632923126220703,0.9181123375892639,0.4135568141937256
1696958479928115000,10.142114990234376,1.1369733810424805,-0.18855202198028564,-0.11307239532470703
1696958479938128400,10.15212841796875,-0.9207229614257812,-0.1888386607170105,0.12077885866165161
1696958479948141800,10.162141845703125,0.7061548233032227,1.094878077507019,0.21668291091918945
1696958479958155500,10.172155517578124,1.4881935119628906,-0.029067158699035645,0.07256406545639038
1696958479968169000,10.1821689453125,-1.6266469955444336,0.07594931125640869,-0.6535607576370239
1696958479978182700,10.1921826171875,0.09310531616210938,0.45295846462249756,0.38991451263427734
1696958479988196000,10.202196044921875,0.1549530029296875,0.7293443083763123,-0.1604101061820984
1696958479998209500,10.21220947265625,-0.36144447326660156,-0.0070767998695373535,-0.33730804920196533
1696958480008223200,10.22222314453125,-1.0054826736450195,0.44845330715179443,0.3922916054725647
1696958480018236700,10.232236572265625,1.7066946029663086,0.5260979533195496,0.3008645176887512
1696958480028250400,10.24225048828125,-3.123936653137207,-0.05984938144683838,0.008632659912109375
1696958480038263800,10.252263916015625,1.9015779495239258,0.6302444934844971,0.6451149582862854
1696958480048277200,10.26227734375,-1.2663116455078125,0.9538928866386414,0.044335007667541504
1696958480058291000,10.272291015625,-0.23118972778320312,0.0794755220413208,-0.03127676248550415
1696958480068304400,10.282304443359376,-0.3403472900390625,0.025615990161895752,0.07734018564224243
1696958480078318000,10.292318115234375,1.3618154525756836,0.9141439199447632,0.17817717790603638
1696958480088331500,10.30233154296875,-1.4084501266479492,0.5576526522636414,0.42411160469055176
1696958480098345000,10.312344970703125,1.6244516372680664,0.4151848554611206,-0.3318603038787842
1696958480108358700,10.322358642578125,-1.968233585357666,0.5688775181770325,-0.041181743144989014
1696958480118372000,10.3323720703125,0.6838245391845703,0.3146193027496338,0.21004056930541992
1696958480128385800,10.3423857421875,-0.8566684722900391,0.7940546870231628,-0.41268736124038696
1696958480138399200,10.352399169921876,0.19183063507080078,-0.1015547513961792,0.07579219341278076
1696958480148412700,10.36241259765625,-0.4917716979980469,0.6038396954536438,0.7197312116622925
1696958480158426400,10.37242626953125,0.8947181701660156,1.0478148460388184,0.12157529592514038
1696958480168439800,10.382439697265625,-0.9758148193359375,0.16757386922836304,0.0022913217544555664
1696958480178453200,10.392453369140625,-1.2605791091918945,0.08738452196121216,0.22372299432754517
1696958480188467000,10.402467041015624,0.8787469863891602,1.0184283256530762,0.31572777032852173
1696958480198480400,10.41248046875,-0.07004833221435547,-0.35658782720565796,-0.1253349781036377
1696958480208494000,10.422494140625,-0.09848499298095703,0.3456882834434509,0.09578430652618408
1696958480218507500,10.432507568359375,0.7998037338256836,0.9085351824760437,0.24262875318527222
1696958480228521000,10.44252099609375,-0.11504650115966797,0.2645416259765625,0.20280247926712036
1696958480238534700,10.45253466796875,0.090118408203125,0.26483386754989624,-0.14579468965530396
1696958480248548000,10.462548095703125,-0.2539205551147461,0.5862492918968201,0.538312554359436
1696958480258561800,10.472561767578124,-0.7415485382080078,0.36278897523880005,0.06503903865814209
1696958480268575200,10.4825751953125,1.4824466705322266,0.45175474882125854,0.13038748502731323
1696958480278588700,10.492588623046874,-1.1166067123413086,-0.024220645427703857,-0.5379504561424255
1696958480288602400,10.502602294921875,-0.24411869049072266,0.46976345777511597,0.48435401916503906
1696958480298615800,10.51261572265625,0.6592874526977539,0.4954255223274231,-0.2597629427909851
1696958480308629200,10.522629150390625,-1.664811134338379,0.29746872186660767,-0.0355679988861084
1696958480318642700,10.532642578125,1.148855209350586,-0.022180259227752686,0.02052175998687744
1696958480328656400,10.542656494140624,-0.18234539031982422,0.3087010979652405,-0.4117189049720764
1696958480338669800,10.552669921875,-0.26343441009521484,0.011705398559570312,-0.3042623698711395
1696958480348683300,10.562683349609374,0.9226016998291016,0.2004902958869934,0.23255938291549683
1696958480358696700,10.57269677734375,0.21773147583007812,0.30602145195007324,-0.07932716608047485
1696958480368710100,10.582710205078126,0.5040950775146484,0.791401207447052,0.31201350688934326
1696958480378723800,10.592723876953125,0.12523746490478516,-0.23798441886901855,-0.3042828142642975
1696958480388737300,10.6027373046875,-0.2619600296020508,0.15700221061706543,-0.15991902351379395
1696958480398750700,10.612750732421874,0.8426198959350586,0.5832390189170837,-0.1329520344734192
1696958480408764200,10.62276416015625,1.1180925369262695,0.4628717303276062,0.11638122797012329
1696958480418777600,10.632777587890626,0.1882762908935547,-0.03481489419937134,0.21836066246032715
1696958480428791300,10.642791259765625,1.2392511367797852,0.03830963373184204,0.17050766944885254
1696958480438804700,10.6528046875,-1.7550573348999023,1.3075017929077148,0.5956769585609436
1696958480448818200,10.662818115234375,2.4400415420532227,0.1148066520690918,0.14781880378723145
1696958480458831600,10.67283154296875,-2.5308823585510254,0.17597562074661255,0.1669245958328247
1696958480468845000,10.682844970703124,2.143862724304199,0.12163084745407104,0.04793262481689453
1696958480478858800,10.692858642578125,-2.4679102897644043,0.9270601272583008,0.06053060293197632
1696958480488872200,10.7028720703125,1.3941726684570312,0.3279343843460083,0.09249401092529297
1696958480498885600,10.7128857421875,-1.557499885559082,0.1913079023361206,-0.27550768852233887
1696958480508899000,10.722899169921876,-1.6256284713745117,0.3525428771972656,0.20637714862823486
1696958480518912500,10.73291259765625,0.6339321136474609,0.055142879486083984,-0.03858503699302673
1696958480528926200,10.74292626953125,-1.2600812911987305,0.38348186016082764,-0.25185227394104004
1696958480538939600,10.752939697265624,-0.12447834014892578,0.3270435333251953,-0.07015806436538696
1696958480548953000,10.762953125,0.21994972229003906,0.38251984119415283,0.29000523686408997
1696958480558966500,10.772966552734376,-0.2109375,0.1528761386871338,-0.4005259573459625
1696958480568980000,10.78297998046875,-0.5020036697387695,0.13337934017181396,-0.3836554288864136
1696958480578993400,10.792993408203126,-0.8972959518432617,0.6203889846801758,-0.05014920234680176
1696958480589007000,10.803007080078125,0.5430097579956055,0.22954654693603516,-0.24304670095443726
1696958480599020500,10.8130205078125,-0.7102851867675781,0.7384381294250488,-0.3610771596431732
1696958480609034000,10.823033935546874,0.0986795425415039,-0.19124364852905273,-0.5075403451919556
1696958480619047400,10.83304736328125,-1.8654789924621582,0.3658713102340698,-0.11419326066970825
1696958480629060900,10.843060791015626,1.0441551208496094,0.16518139839172363,-0.6240500211715698
1696958480639074600,10.853074462890625,-2.083462715148926,0.19408011436462402,0.0031850337982177734
1696958480649088000,10.863087890625,1.7346105575561523,0.3636544942855835,-0.3795628547668457
1696958480659101400,10.873101318359375,-0.8740520477294922,-0.28696393966674805,-0.7127020359039307
1696958480669115000,10.883114990234375,-0.9247226715087891,0.282992959022522,-0.26716944575309753
1696958480679128300,10.89312841796875,0.6449623107910156,-0.12461423873901367,-0.5920007228851318
1696958480689142000,10.90314208984375,-0.7855863571166992,0.3745079040527344,-0.38366174697875977
1696958480699155500,10.913155517578126,1.2233734130859375,-0.47109508514404297,-0.7448350191116333
1696958480709169000,10.9231689453125,-0.2849006652832031,0.45673036575317383,-0.5016540288925171
1696958480719182300,10.933182373046876,1.4266481399536133,0.11293280124664307,-0.29240062832832336
1696958480729195800,10.94319580078125,-1.1621923446655273,-0.667589545249939,-0.3877694010734558
1696958480739209500,10.95320947265625,1.5407419204711914,0.4978119730949402,0.08784711360931396
1696958480749223000,10.963222900390624,0.4763050079345703,-0.1854764223098755,-0.25639796257019043
1696958480759236400,10.973236328125,-1.0397253036499023,0.03530693054199219,0.07568413019180298
1696958480769249800,10.983249755859376,3.115654945373535,0.09326612949371338,-0.20478114485740662
1696958480779263200,10.99326318359375,-2.6117100715637207,-0.16720497608184814,0.1080513596534729
1696958480789277000,11.00327685546875,2.1539993286132812,0.23177790641784668,0.2701641321182251
1696958480799290400,11.013290283203125,1.3989572525024414,-0.10260510444641113,-0.4274598956108093
1696958480809303800,11.0233037109375,-2.661555767059326,-0.3079472780227661,0.4461336135864258
1696958480819317200,11.033317138671874,4.240553855895996,0.4409738779067993,0.33740437030792236
1696958480829330700,11.04333056640625,-2.641148567199707,0.0899742841720581,0.11247369647026062
1696958480839344400,11.053344482421876,0.007428169250488281,-0.01667940616607666,0.6032513976097107
1696958480849357800,11.06335791015625,2.4831275939941406,0.1391524076461792,-0.10964974761009216
1696958480859371300,11.073371337890626,-3.8500514030456543,0.1327763795852661,0.14302238821983337
1696958480869384700,11.083384765625,3.685445785522461,0.26733458042144775,0.07015597820281982
1696958480879398100,11.093398193359375,-1.8521652221679688,-0.23418843746185303,0.19456014037132263
1696958480889411600,11.10341162109375,-0.49115943908691406,-0.07270634174346924,0.29021257162094116
1696958480899425300,11.11342529296875,2.2960920333862305,0.09240102767944336,0.4359399676322937
1696958480909438700,11.123438720703126,-1.398911476135254,0.06297755241394043,0.2138146162033081
1696958480919452200,11.1334521484375,0.4389200210571289,0.0100935697555542,0.24402061104774475
1696958480929465600,11.143465576171875,1.4316091537475586,0.03826916217803955,-0.33320480585098267
1696958480939479000,11.15347900390625,-2.767730236053467,0.027383804321289062,-0.0325409471988678
1696958480949492700,11.16349267578125,0.8511133193969727,-0.30987298488616943,-0.24147926270961761
1696958480959506200,11.173506103515624,0.5336761474609375,-0.19778180122375488,-0.5889532566070557
1696958480969519600,11.18351953125,-2.874965190887451,0.35812461376190186,-0.38685962557792664
1696958480979533300,11.193533203125,1.2318143844604492,-0.6693648099899292,-0.1426171362400055
1696958480989546800,11.203546630859375,-0.2859363555908203,-0.09769248962402344,-0.5511302351951599
1696958480999560200,11.213560302734376,-0.8588628768920898,0.11085987091064453,-0.571752667427063
1696958481009574000,11.223573974609375,-0.45072269439697266,-0.3224603533744812,-0.058244913816452026
1696958481019587300,11.23358740234375,1.4617900848388672,-0.18187105655670166,-0.10395348072052002
1696958481029601000,11.24360107421875,-0.4628276824951172,-0.10609418153762817,-0.033643484115600586
1696958481039614500,11.253614501953125,0.4410133361816406,-0.31697672605514526,-0.21178922057151794
1696958481049628000,11.2636279296875,1.1854829788208008,-0.07832694053649902,0.15812814235687256
1696958481059641600,11.2736416015625,0.3079710006713867,-0.3416067957878113,-0.2136228084564209
1696958481069655000,11.283655029296876,-1.1029043197631836,-0.4447844624519348,-0.5047839879989624
1696958481079668700,11.293668701171875,1.862767219543457,0.1631920337677002,-0.07197529077529907
1696958481089682200,11.30368212890625,0.47726917266845703,-0.24187833070755005,-0.3144512176513672
1696958481099695600,11.313695556640624,-1.588430404663086,-0.6862538456916809,-0.2170860320329666
1696958481109709300,11.323709228515625,1.80377197265625,-0.053996145725250244,0.11071956157684326
1696958481119722800,11.33372265625,-0.0018377304077148438,-0.26571929454803467,-0.5711299180984497
1696958481129736400,11.343736328125,-1.655268669128418,-0.11213505268096924,-0.31388744711875916
1696958481139750000,11.35375,2.014476776123047,-0.37672579288482666,0.11892086267471313
1696958481149763300,11.363763427734375,-0.2264881134033203,-0.12390744686126709,0.15210771560668945
1696958481159777000,11.373777099609375,0.8159780502319336,0.21931922435760498,-0.25357213616371155
1696958481169790500,11.38379052734375,-1.3647689819335938,-0.47017931938171387,-0.09355750679969788
1696958481179804200,11.39380419921875,0.42605018615722656,0.09473145008087158,0.6270649433135986
1696958481189817600,11.403817626953124,0.9558706283569336,-0.2557753324508667,-0.33910074830055237
1696958481199831000,11.4138310546875,-2.8263845443725586,0.3023003339767456,-0.02606111764907837
1696958481209844700,11.4238447265625,2.886590003967285,0.10572171211242676,0.1553431749343872
1696958481219858200,11.433858154296875,-1.9418749809265137,-0.3222154378890991,-0.11732634902000427
1696958481229871900,11.443871826171875,-0.6614370346069336,-0.017064332962036133,-0.7845737934112549
1696958481239885300,11.45388525390625,-0.21970748901367188,0.19933032989501953,0.2485300600528717
1696958481249898800,11.463898681640625,0.8894586563110352,-0.14905321598052979,-0.06266546249389648
1696958481259912400,11.473912353515624,-1.6596832275390625,-0.4960240125656128,-0.4527374505996704
1696958481269926000,11.48392578125,0.5617141723632812,0.21568536758422852,-0.15872541069984436
1696958481279939600,11.493939697265626,0.8234663009643555,-0.16577363014221191,0.22506770491600037
1696958481289953000,11.503953125,-0.6983737945556641,-0.35562145709991455,-0.3879280984401703
1696958481299966500,11.513966552734376,-0.08004283905029297,-0.06396985054016113,-0.03853687644004822
1696958481309980200,11.523980224609375,0.40762805938720703,0.29975271224975586,0.4668276309967041
1696958481319993600,11.53399365234375,1.405268669128418,-0.5519107580184937,0.10207504034042358
1696958481330007300,11.54400732421875,-1.3411579132080078,-0.1657465696334839,-0.432840496301651
1696958481340020700,11.554020751953125,0.3106651306152344,-0.08153295516967773,0.32354414463043213
1696958481350034200,11.5640341796875,0.9073095321655273,-0.19307518005371094,0.3551103174686432
1696958481360047900,11.5740478515625,-0.9683094024658203,-0.3611423969268799,-0.4071943759918213
1696958481370061300,11.584061279296876,0.07091331481933594,0.01956355571746826,0.04778781533241272
1696958481380074800,11.59407470703125,0.7828559875488281,-0.04900538921356201,0.4091470241546631
1696958481390088400,11.60408837890625,-0.0030527114868164062,-0.5550729036331177,-0.20899750292301178
1696958481400102000,11.614101806640624,-0.8440742492675781,0.09052526950836182,-0.4036518633365631
1696958481410115300,11.624115234375,0.32391357421875,-0.03698408603668213,0.11373880505561829
1696958481420128800,11.634128662109376,0.28487586975097656,-0.20523607730865479,-0.3854304552078247
1696958481430142200,11.64414208984375,-0.6094350814819336,-0.5015331506729126,-0.700328528881073
1696958481440155600,11.65415576171875,-0.3115987777709961,-0.1122426986694336,-0.33841389417648315
1696958481450169300,11.66416943359375,0.6451530456542969,-0.2376922369003296,0.27834048867225647
1696958481460182800,11.674182861328125,0.26601219177246094,-0.7342280149459839,-0.27669477462768555
1696958481470196200,11.6841962890625,-1.0962543487548828,0.028821825981140137,-0.23428401350975037
1696958481480209700,11.694209716796875,1.811964988708496,0.08368372917175293,0.681018590927124
1696958481490223000,11.70422314453125,1.2200469970703125,-0.027225732803344727,0.6357054114341736
1696958481500236800,11.71423681640625,0.19894695281982422,-0.9067260026931763,-0.4897025227546692
1696958481510250200,11.724250244140626,-1.0294055938720703,0.36318087577819824,0.14324498176574707
1696958481520263700,11.734263671875,1.8737831115722656,0.033484697341918945,1.0446643829345703
1696958481530277000,11.744277099609375,0.28263282775878906,-0.683822512626648,-0.2137296497821808
1696958481540290600,11.75429052734375,-1.156569480895996,-0.022961974143981934,-0.16376887261867523
1696958481550304300,11.76430419921875,1.197495460510254,0.14854466915130615,0.7679033875465393
1696958481560317700,11.774317626953126,-0.03378772735595703,-0.13116061687469482,-0.1663457453250885
1696958481570331100,11.7843310546875,-1.1424589157104492,-0.4711240530014038,-0.9122805595397949
1696958481580344600,11.794344482421875,-0.7955865859985352,-0.1732696294784546,-0.3547424077987671
1696958481590358000,11.80435791015625,-0.11495399475097656,0.21378624439239502,0.07212334871292114
1696958481600371700,11.814371826171875,0.9413375854492188,-0.7422730326652527,-0.6030592918395996
1696958481610385200,11.82438525390625,-2.5063419342041016,-0.16445815563201904,-0.7089117169380188
1696958481620398600,11.834398681640625,0.9261007308959961,0.17511868476867676,0.3018237054347992
1696958481630412000,11.844412109375,0.6707744598388672,-0.3305870294570923,-0.016342133283615112
1696958481640425500,11.854425537109375,-2.026304244995117,-0.3379783630371094,-0.6353015899658203
1696958481650439200,11.864439208984376,1.3907289505004883,0.009728431701660156,-0.08615843951702118
1696958481660452600,11.87445263671875,-0.6053361892700195,-0.21713745594024658,0.4202987253665924
1696958481670466000,11.884466064453125,0.9488840103149414,-0.4707564115524292,-0.0810839980840683
1696958481680479500,11.8944794921875,-0.31974315643310547,-0.10911369323730469,-0.6509851217269897
1696958481690493000,11.904492919921875,-0.37184810638427734,-0.3149980306625366,0.13146373629570007
1696958481700506600,11.914506591796876,1.7890262603759766,-0.2999359369277954,0.04515978693962097
1696958481710520000,11.92452001953125,-1.8664937019348145,-0.5969692468643188,-0.7559144496917725
1696958481720533500,11.934533447265625,0.6896476745605469,-0.49494481086730957,-0.5538545846939087
1696958481730547000,11.944546875,1.0083770751953125,-0.34852707386016846,-0.17346662282943726
1696958481740560400,11.954560302734375,-0.179412841796875,-0.7807927131652832,-0.26695483922958374
1696958481750573800,11.96457373046875,-0.4226083755493164,-0.46927082538604736,-0.3992522358894348
1696958481760587500,11.97458740234375,0.6870517730712891,-0.21289074420928955,0.1870802640914917
1696958481770601000,11.98460107421875,1.7130136489868164,-0.2810666561126709,-0.009695202112197876
1696958481780614400,11.994614501953125,-1.7462530136108398,-0.7359412908554077,-0.3315473794937134
1696958481790627800,12.0046279296875,0.8815832138061523,-0.459041953086853,0.4026385545730591
1696958481800641300,12.014641357421874,0.7459316253662109,-0.3282034397125244,0.41787296533584595
1696958481810655000,12.024655029296875,-0.8521003723144531,-0.6619429588317871,-0.19036760926246643
1696958481820668400,12.03466845703125,-0.47229957580566406,-0.2649277448654175,0.15428531169891357
1696958481830681900,12.044681884765625,1.0247507095336914,0.04078054428100586,0.7188503742218018
1696958481840695300,12.0546953125,0.7164754867553711,-0.5975886583328247,0.05686575174331665
1696958481850708700,12.064708740234375,-1.9900050163269043,-0.21621835231781006,-0.4342758059501648
1696958481860722400,12.074722412109375,0.2800731658935547,-0.24286723136901855,0.40248551964759827
1696958481870736000,12.08473583984375,0.5138435363769531,-0.30831611156463623,0.26142042875289917
1696958481880749300,12.094749267578125,-1.8050904273986816,-0.22801566123962402,-0.49359816312789917
1696958481890762800,12.1047626953125,0.34987831115722656,-0.14980041980743408,0.14204126596450806
1696958481900776200,12.114776123046875,-0.3006401062011719,0.014739274978637695,0.4865947961807251
1696958481910790000,12.124789794921876,-0.1852731704711914,-0.5057464838027954,-0.06801874935626984
1696958481920803300,12.13480322265625,-1.517970085144043,-0.09989392757415771,-0.18749229609966278
1696958481930816800,12.144816650390625,0.7269220352172852,0.046553850173950195,0.4661363661289215
1696958481940830500,12.15483056640625,-0.2065887451171875,-0.18541359901428223,0.17973893880844116
1696958481950844000,12.164843994140625,-2.1465487480163574,-0.23997533321380615,0.02538260817527771
1696958481960857300,12.174857421875,0.7640924453735352,0.01662755012512207,0.15624549984931946
1696958481970871000,12.18487109375,-0.4899616241455078,0.06003284454345703,0.2277483344078064
1696958481980884500,12.194884521484376,-1.0051822662353516,-0.6351175308227539,-0.08243545889854431
1696958481990898200,12.204898193359375,-0.7210369110107422,0.22971844673156738,0.1141367256641388
1696958482000911600,12.21491162109375,0.7428216934204102,-0.183709979057312,0.338819682598114
1696958482010925000,12.224925048828124,-1.2807559967041016,-0.3585939407348633,-0.16673633456230164
1696958482020938800,12.234938720703125,0.04085254669189453,-0.22261929512023926,-0.05722171068191528
1696958482030952200,12.2449521484375,1.1970691680908203,-0.4409574270248413,0.04157140851020813
1696958482040966000,12.2549658203125,0.07067394256591797,-0.15880697965621948,0.16416415572166443
1696958482050979300,12.264979248046876,-0.13051986694335938,-0.4286049008369446,0.04666423797607422
1696958482060992800,12.27499267578125,0.2659339904785156,-0.059557557106018066,0.27260980010032654
1696958482071006500,12.28500634765625,1.8659677505493164,-0.2772562503814697,-0.036797553300857544
1696958482081020000,12.29502001953125,-2.4589176177978516,-0.4722576141357422,-0.3473866879940033
1696958482091033600,12.30503369140625,1.4842758178710938,-0.5440101623535156,0.02166539430618286
1696958482101047000,12.315047119140624,1.2944889068603516,-0.22619497776031494,-0.08618782460689545
1696958482111060500,12.325060546875,-1.8535308837890625,-0.5516977310180664,-0.19584965705871582
1696958482121074200,12.33507421875,0.7504682540893555,-0.26980268955230713,-0.2600339651107788
1696958482131087600,12.345087646484375,0.49068450927734375,-0.37488746643066406,0.13420745730400085
1696958482141101300,12.355101318359376,0.044976234436035156,-0.7028248310089111,-0.47935950756073
1696958482151114800,12.36511474609375,-1.2645950317382812,-0.15977144241333008,-0.17563992738723755
1696958482161128200,12.375128173828125,2.131479263305664,-0.27687376737594604,0.29695600271224976
1696958482171142000,12.385141845703124,-0.13396930694580078,-0.2410525679588318,0.051451802253723145
1696958482181155300,12.3951552734375,-0.40627193450927734,-0.2666059136390686,-0.37431126832962036
1696958482191169000,12.4051689453125,0.1730813980102539,-0.1420053243637085,0.6477494239807129
1696958482201182500,12.415182373046875,1.3098993301391602,-0.16025638580322266,-0.11549383401870728
1696958482211196000,12.42519580078125,-1.9571871757507324,-0.01854872703552246,-0.3311889171600342
1696958482221209600,12.435209716796875,0.9576225280761719,-0.3333907127380371,-0.03513062000274658
1696958482231223000,12.44522314453125,0.6830434799194336,0.16131681203842163,-0.04665854573249817
1696958482241236500,12.455236572265624,-0.44188785552978516,-0.3571578860282898,-0.09777994453907013
1696958482251250200,12.465250244140625,-0.8614835739135742,-0.1926281452178955,0.008795410394668579
1696958482261263600,12.475263671875,0.7078762054443359,0.12222003936767578,0.7619833946228027
1696958482271277300,12.48527734375,0.5866222381591797,-0.24199992418289185,-0.021261543035507202
1696958482281290800,12.495290771484376,-2.4067749977111816,-0.19492489099502563,0.02044740319252014
1696958482291304200,12.50530419921875,2.3107566833496094,-0.3758336305618286,0.11368891596794128
1696958482301318000,12.51531787109375,-1.6660356521606445,-0.167719304561615,0.37562325596809387
1696958482311331300,12.525331298828124,0.06255912780761719,-0.13527721166610718,-0.21766193211078644
1696958482321345000,12.535344970703125,-0.8503808975219727,-0.0788305401802063,-0.1800864338874817
1696958482331358500,12.5453583984375,0.44165515899658203,-0.22987478971481323,0.5406588912010193
1696958482341372000,12.555371826171875,-0.07088375091552734,-0.3258969187736511,-0.49699342250823975
1696958482351385600,12.565385498046876,-2.4223084449768066,-0.34822016954421997,0.01975664496421814
1696958482361399000,12.57539892578125,2.386270523071289,0.033934056758880615,0.22527313232421875
1696958482371412700,12.585412841796876,-1.3471698760986328,-0.39280247688293457,-0.44935181736946106
