time,seconds_elapsed,z,y,x
1696958469934595600,0.148595703125,0.030758604407310486,0.00852186419069767,-0.006258244160562754
1696958469944611000,0.158611083984375,0.037150003015995026,0.0532616525888443,0.013981183059513569
1696958469954628900,0.16862890625,0.041410934180021286,-0.04047885537147522,0.010785484686493874
1696958469964648700,0.178648681640625,0.026497671380639076,0.02450035884976387,-0.016910573467612267
1696958469974669800,0.188669921875,0.025432437658309937,0.02450035884976387,0.03528584539890289
1696958469984692500,0.1986923828125,0.033954303711652756,0.009587096981704235,-0.011584409512579441
1696958469994716000,0.2087158203125,0.03288906812667847,-0.01917419396340847,0.031024912372231483
1696958470004739600,0.218739501953125,0.017975807189941406,0.012782796286046505,-0.005193010903894901
1696958470014763300,0.22876318359375,0.028628136962652206,0.02236989326775074,0.036351077258586884
1696958470024776700,0.238776611328125,0.031823836266994476,-0.02450035884976387,0.005459319334477186
1696958470034790100,0.2487900390625,0.019041040912270546,0.0010652330238372087,0.010785484686493874
1696958470044803600,0.258803466796875,0.020106272771954536,0.02663082629442215,0.018242115154862404
1696958470054817000,0.268817138671875,0.028628136962652206,0.01171756349503994,0.021437814459204674
1696958470064830500,0.27883056640625,0.023301972076296806,-0.012782796286046505,0.0011983871227130294
1696958470074844000,0.288843994140625,0.014780107885599136,0.03621792420744896,0.017176883295178413
1696958470084857300,0.298857421875,0.024367205798625946,0.03408745676279068,0.013981183059513569
1696958470094870800,0.308870849609375,0.026497671380639076,0.0053261648863554,0.005459319334477186
1696958470104884200,0.31888427734375,0.020106272771954536,0.00852186419069767,0.0033288532868027687
1696958470114897700,0.328897705078125,0.024367205798625946,0.01384802907705307,0.024633513763546944
1696958470124911000,0.3389111328125,0.03288906812667847,0.0010652330238372087,0.004394086077809334
1696958470134924500,0.348924560546875,0.028628136962652206,-0.02556559257209301,0.0033288532868027687
1696958470144938000,0.35893798828125,0.022236740216612816,0.009587096981704235,0.012915950268507004
1696958470154951400,0.368951416015625,0.03608476743102074,-0.01810896210372448,0.028894444927573204
1696958470164964900,0.37896484375,0.030758604407310486,-0.02450035884976387,-0.030758604407310486
1696958470174978300,0.388978271484375,0.027562905102968216,-0.0010652330238372087,0.043807707726955414
1696958470184991700,0.39899169921875,0.030758604407310486,-0.03089175745844841,-0.011584409512579441
1696958470195005200,0.409005126953125,0.035019535571336746,0.01491326279938221,0.026763979345560074
1696958470205018600,0.4190185546875,0.024367205798625946,-0.03089175745844841,-0.012649642303586006
1696958470215032000,0.429031982421875,0.026497671380639076,0.03302222490310669,0.031024912372231483
1696958470225045500,0.43904541015625,0.037150003015995026,-0.004260932095348835,0.034220609813928604
1696958470235059000,0.449058837890625,0.021171506494283676,0.03834838792681694,-0.019041040912270546
1696958470245072400,0.459072265625,0.020106272771954536,0.0639139786362648,0.07469946891069412
1696958470255085800,0.4690859375,0.029693370684981346,0.04580501839518547,0.021437814459204674
1696958470265099300,0.479099365234375,0.017975807189941406,0.11611039936542511,0.033155377954244614
1696958470275112700,0.48911279296875,0.012649642303586006,0.03621792420744896,0.048068638890981674
1696958470285126100,0.499126220703125,0.03288906812667847,0.02450035884976387,0.051264338195323944
1696958470295139600,0.5091396484375,0.022236740216612816,0.06710968166589737,0.020372580736875534
1696958470305153000,0.519153076171875,0.015845341607928276,0.01491326279938221,0.040612008422613144
1696958470315166500,0.52916650390625,0.030758604407310486,-0.04793548583984375,0.03954677656292915
1696958470325180000,0.539179931640625,0.035019535571336746,0.0031956990715116262,0.025698747485876083
1696958470335193300,0.549193359375,0.017975807189941406,-0.03089175745844841,0.010785484686493874
1696958470345206800,0.559206787109375,0.012649642303586006,0.012782796286046505,0.040612008422613144
1696958470355220000,0.569219970703125,0.022236740216612816,0.0159784946590662,0.044872939586639404
1696958470365233400,0.5792333984375,0.017975807189941406,-0.05539211630821228,-0.029693370684981346
1696958470375246800,0.589246826171875,0.007323476951569319,0.03834838792681694,0.07576470077037811
1696958470385260300,0.59926025390625,0.009453942999243736,0.0053261648863554,-0.0030625448562204838
1696958470395273700,0.609273681640625,0.008388710208237171,0.004260932095348835,-0.009453942999243736
1696958470405287200,0.619287109375,0.0030625448562204838,0.004260932095348835,0.058720968663692474
1696958470415300600,0.629300537109375,0.006258244160562754,-0.0053261648863554,-0.025432437658309937
1696958470425314000,0.63931396484375,0.004127778112888336,0.007456631399691105,0.028894444927573204
1696958470435327500,0.649327392578125,-0.00226362026296556,-0.0319569893181324,-0.014780107885599136
1696958470445341000,0.6593408203125,0.005193010903894901,-0.0031956990715116262,0.029959678649902344
1696958470455354400,0.669354248046875,0.007323476951569319,-0.03621792420744896,-0.005193010903894901
1696958470465367800,0.679367919921875,-0.005459319334477186,-0.01384802907705307,-0.012649642303586006
1696958470475381200,0.68938134765625,-0.0011983871227130294,-0.01491326279938221,0.024633513763546944
1696958470485394700,0.699394775390625,0.0030625448562204838,0.0031956990715116262,0.011850717477500439
1696958470495408000,0.709408203125,-0.005459319334477186,-0.03302222490310669,-0.028628136962652206
1696958470505421600,0.719421630859375,-0.005459319334477186,0.00852186419069767,0.021437814459204674
1696958470515435000,0.72943505859375,0.0009320789249613881,-0.0106523297727108,0.024633513763546944
1696958470525448400,0.739448486328125,-0.011850717477500439,0.0053261648863554,-0.047802332788705826
1696958470535462000,0.7494619140625,-0.009720250964164734,0.00852186419069767,0.050199106335639954
1696958470545475300,0.759475341796875,-0.008655018173158169,-0.009587096981704235,-0.029693370684981346
1696958470555488800,0.76948876953125,-0.009720250964164734,0.04367455467581749,-0.0009320789249613881
1696958470565502200,0.779502197265625,-0.011850717477500439,-0.0426093190908432,-0.0009320789249613881
1696958470575515600,0.789515625,-0.008655018173158169,0.0053261648863554,-0.015845341607928276
1696958470585529000,0.799529052734375,-0.012915950268507004,0.02023942768573761,0.013981183059513569
1696958470595542500,0.80954248046875,-0.018242115154862404,-0.01171756349503994,-0.047802332788705826
1696958470605556000,0.819555908203125,-0.016111649572849274,0.009587096981704235,0.044872939586639404
1696958470615569400,0.8295693359375,-0.016111649572849274,-0.01917419396340847,-0.048867564648389816
1696958470625582800,0.839582763671875,-0.022503048181533813,0.02982652559876442,0.008655018173158169
1696958470635596300,0.84959619140625,-0.024633513763546944,-0.03302222490310669,-0.009453942999243736
1696958470645609700,0.859609619140625,-0.019307348877191544,0.0063913981430232525,-0.001997311832383275
1696958470655623200,0.869623046875,-0.027829213067889214,-0.012782796286046505,-0.008388710208237171
1696958470665636900,0.879636962890625,-0.03528584539890289,0,-0.019041040912270546
1696958470675650300,0.889650390625,-0.022503048181533813,-0.0213046595454216,0.040612008422613144
1696958470685663700,0.899663818359375,-0.037416309118270874,-0.0159784946590662,-0.0723026916384697
1696958470695677200,0.90967724609375,-0.03848154470324516,0.0319569893181324,0.06511236727237701
1696958470705690600,0.919690673828125,-0.023568280041217804,-0.10119713842868805,-0.040345702320337296
1696958470715704300,0.929704345703125,-0.044872939586639404,0.07563154399394989,0.004394086077809334
1696958470725717800,0.9397177734375,-0.04274247586727142,-0.03515268862247467,0.028894444927573204
1696958470735731200,0.949731201171875,-0.047003407031297684,-0.00852186419069767,-0.043541401624679565
1696958470745744600,0.95974462890625,-0.044872939586639404,0.05965305119752884,0.0778951644897461
1696958470755758000,0.969758056640625,-0.05232957378029823,-0.03089175745844841,-0.07336792349815369
1696958470765771800,0.979771728515625,-0.054460037499666214,0.0639139786362648,0.051264338195323944
1696958470775785200,0.98978515625,-0.051264338195323944,-0.0031956990715116262,-0.005193010903894901
1696958470785798700,0.999798583984375,-0.0555252730846405,0.05219641700387001,-0.03928046673536301
1696958470795812000,1.00981201171875,-0.053394805639982224,-0.0031956990715116262,0.041677240282297134
1696958470805825500,1.019825439453125,-0.05232957378029823,0.007456631399691105,-0.041410934180021286
1696958470815839200,1.029839111328125,-0.047003407031297684,0.0159784946590662,0.012915950268507004
1696958470825852700,1.039852783203125,-0.053394805639982224,-0.02663082629442215,-0.03928046673536301
1696958470835866000,1.0498662109375,-0.04913387447595596,-0.0010652330238372087,0.013981183059513569
1696958470845879600,1.059879638671875,-0.041677240282297134,-0.0213046595454216,-0.037150003015995026
1696958470855893000,1.06989306640625,-0.044872939586639404,-0.02236989326775074,-0.008388710208237171
1696958470865906400,1.079906494140625,-0.054460037499666214,-0.02450035884976387,-0.038215234875679016
1696958470875920100,1.089920166015625,-0.040612008422613144,0.0106523297727108,0.010785484686493874
1696958470885933600,1.09993359375,-0.041677240282297134,-0.05858781561255455,-0.054193731397390366
1696958470895947000,1.109947021484375,-0.04913387447595596,-0.009587096981704235,-0.015845341607928276
1696958470905960400,1.11996044921875,-0.04593817517161369,-0.012782796286046505,-0.007323476951569319
1696958470915974000,1.129973876953125,-0.041677240282297134,-0.02663082629442215,-0.041410934180021286
1696958470925987600,1.139987548828125,-0.048068638890981674,-0.02343512699007988,-0.024367205798625946
1696958470936001000,1.1500009765625,-0.05232957378029823,-0.02236989326775074,-0.017975807189941406
1696958470946014500,1.160014404296875,-0.043807707726955414,-0.0021304660476744175,-0.025432437658309937
1696958470956028000,1.17002783203125,-0.044872939586639404,-0.06497921794652939,-0.028628136962652206
1696958470966041300,1.180041259765625,-0.0555252730846405,-0.01704372838139534,-0.035019535571336746
1696958470976055000,1.190054931640625,-0.044872939586639404,-0.03089175745844841,0.0033288532868027687
1696958470986068500,1.200068359375,-0.050199106335639954,-0.05113118514418602,-0.06484606117010117
1696958470996082000,1.21008203125,-0.05232957378029823,-0.0319569893181324,-0.0009320789249613881
1696958471006095400,1.220095458984375,-0.0555252730846405,-0.06071828305721283,-0.043541401624679565
1696958471016108800,1.23010888671875,-0.048068638890981674,-0.02236989326775074,-0.028628136962652206
1696958471026122500,1.24012255859375,-0.047003407031297684,-0.09800143539905548,-0.03288906812667847
1696958471036136000,1.250135986328125,-0.0555252730846405,-0.08202294260263443,-0.047802332788705826
1696958471046149400,1.2601494140625,-0.048068638890981674,-0.03621792420744896,-0.030758604407310486
1696958471056162800,1.270162841796875,-0.05232957378029823,-0.1171756312251091,-0.048867564648389816
1696958471066176300,1.28017626953125,-0.040612008422613144,-0.1928071826696396,-0.07975932210683823
1696958471076190000,1.29018994140625,-0.04593817517161369,-0.16191542148590088,-0.07017222791910172
1696958471086203400,1.300203369140625,-0.036351077258586884,-0.14061075448989868,-0.09573781490325928
1696958471096216800,1.310216796875,-0.034220609813928604,-0.2236989289522171,-0.07336792349815369
1696958471106230300,1.320230224609375,-0.03954677656292915,-0.13208889961242676,-0.06591129302978516
1696958471116243700,1.33024365234375,-0.03848154470324516,-0.12250179797410965,-0.033954303711652756
1696958471126257400,1.34025732421875,-0.024633513763546944,-0.15658925473690033,-0.11278154700994492
1696958471136270800,1.350270751953125,-0.060851436108350754,-0.0053261648863554,-0.07656362652778625
1696958471146284300,1.3602841796875,-0.06298190355300903,-0.04900071769952774,-0.047802332788705826
1696958471156297700,1.370297607421875,-0.04593817517161369,-0.03408745676279068,-0.033954303711652756
1696958471166311200,1.380311279296875,-0.050199106335639954,-0.02556559257209301,-0.017975807189941406
1696958471176324600,1.39032470703125,-0.066177599132061,0.02343512699007988,-0.04993279650807381
1696958471186338300,1.40033837890625,-0.05978620424866676,0.009587096981704235,-0.025432437658309937
1696958471196351700,1.410351806640625,-0.04913387447595596,0.01384802907705307,-0.038215234875679016
1696958471206365200,1.420365234375,-0.057655736804008484,-0.05965305119752884,-0.015845341607928276
1696958471216378600,1.430378662109375,-0.06298190355300903,0.05006595328450203,-0.019041040912270546
1696958471226392000,1.44039208984375,-0.04274247586727142,-0.02450035884976387,0.050199106335639954
1696958471236405800,1.45040576171875,-0.051264338195323944,-0.03621792420744896,-0.05312849581241608
1696958471246419200,1.460419189453125,-0.067242830991745,0.05432688444852829,0.05659050494432449
1696958471256432600,1.4704326171875,-0.05978620424866676,-0.01917419396340847,-0.006258244160562754
1696958471266446000,1.480446044921875,-0.04913387447595596,0.00852186419069767,0.067242830991745
1696958471276459500,1.49045947265625,-0.058720968663692474,0.0213046595454216,0.016111649572849274
1696958471286473000,1.500472900390625,-0.06937330216169357,0.07030537724494934,0.0555252730846405
1696958471296486400,1.510486328125,-0.05659050494432449,0.07563154399394989,0.04274247586727142
1696958471306499800,1.520499755859375,-0.054460037499666214,0.03941362351179123,0.09174319356679916
1696958471316513300,1.53051318359375,-0.07150376588106155,0.10332760214805603,0.016111649572849274
1696958471326526700,1.540526611328125,-0.0768299326300621,0.18854624032974243,0.13754820823669434
1696958471336540200,1.5505400390625,-0.066177599132061,0.08628387749195099,0.050199106335639954
1696958471346553600,1.5605537109375,-0.08002562820911407,0.1693720519542694,0.08854749798774719
1696958471356567000,1.570567138671875,-0.08322133123874664,0.17895914614200592,0.11304785311222076
1696958471366580500,1.58058056640625,-0.08215609937906265,0.15658925473690033,0.06830807030200958
1696958471376594000,1.590593994140625,-0.06511236727237701,0.1384802907705307,0.14393961429595947
1696958471386607400,1.600607421875,-0.06830807030200958,0.0532616525888443,0.0778951644897461
1696958471396620800,1.610620849609375,-0.09280842542648315,0.2450035959482193,0.09706936031579971
1696958471406634200,1.62063427734375,-0.09067796170711517,0.09374050796031952,0.1620485782623291
1696958471416647700,1.630647705078125,-0.06937330216169357,-0.01810896210372448,0.016111649572849274
1696958471426661000,1.6406611328125,-0.07043853402137756,0.1384802907705307,0.13222205638885498
1696958471436674600,1.650674560546875,-0.0778951644897461,0.07989247888326645,0.067242830991745
1696958471446688000,1.66068798828125,-0.047003407031297684,-0.004260932095348835,0.09493889659643173
1696958471456701400,1.670701416015625,-0.053394805639982224,-0.01384802907705307,0.07043853402137756
1696958471466715000,1.68071484375,-0.06937330216169357,0.09800143539905548,0.08854749798774719
1696958471476728300,1.690728271484375,-0.0555252730846405,0.0021304660476744175,0.0778951644897461
1696958471486741800,1.70074169921875,-0.057655736804008484,-0.0021304660476744175,0.026763979345560074
1696958471496755200,1.710755126953125,-0.06511236727237701,0.07882724702358246,0.08961272984743118
1696958471506768600,1.7207685546875,-0.058720968663692474,0.03089175745844841,0.03848154470324516
1696958471516782000,1.730781982421875,-0.05232957378029823,0.004260932095348835,0.07363422960042953
1696958471526795500,1.74079541015625,-0.05659050494432449,0.01384802907705307,0.04274247586727142
1696958471536809000,1.75080908203125,-0.058720968663692474,0.05752258375287056,0.0778951644897461
1696958471546822400,1.760822509765625,-0.05232957378029823,-0.04367455467581749,0.013981183059513569
1696958471556835800,1.7708359375,-0.0555252730846405,0.04793548583984375,0.06298190355300903
1696958471566849300,1.780849365234375,-0.051264338195323944,-0.02236989326775074,0.029959678649902344
1696958471576862700,1.79086279296875,-0.053394805639982224,-0.02982652559876442,0.044872939586639404
1696958471586876200,1.800876220703125,-0.051264338195323944,0.007456631399691105,0.04274247586727142
1696958471596889600,1.8108896484375,-0.044872939586639404,-0.05645735189318657,0.053394805639982224
1696958471606903000,1.820903076171875,-0.0555252730846405,-0.04687025398015976,0.00226362026296556
1696958471616916500,1.83091650390625,-0.051264338195323944,-0.03941362351179123,0.061916667968034744
1696958471626930000,1.840929931640625,-0.053394805639982224,-0.04687025398015976,-0.004127778112888336
1696958471636943400,1.850943359375,-0.053394805639982224,-0.05432688444852829,0.066177599132061
1696958471646956800,1.860956787109375,-0.061916667968034744,-0.02876129187643528,0.017176883295178413
1696958471656970500,1.870970458984375,-0.05659050494432449,-0.06604444980621338,0.0778951644897461
1696958471666984000,1.88098388671875,-0.061916667968034744,-0.06604444980621338,0.013981183059513569
1696958471676997400,1.890997314453125,-0.061916667968034744,-0.10332760214805603,0.11198262125253677
1696958471687010800,1.9010107421875,-0.0555252730846405,-0.23754696547985077,0.047003407031297684
1696958471697024300,1.911024169921875,-0.040612008422613144,-0.2684387266635895,0.13648298382759094
1696958471707038000,1.921037841796875,-0.054460037499666214,-0.20985090732574463,0.031024912372231483
1696958471717051400,1.931051513671875,-0.066177599132061,-0.08734910935163498,0.12156971544027328
1696958471727064800,1.94106494140625,-0.048068638890981674,-0.20985090732574463,0.06937330216169357
1696958471737078300,1.951078369140625,-0.03848154470324516,-0.2236989289522171,0.051264338195323944
1696958471747091700,1.961091796875,-0.06404713541269302,0.009587096981704235,0.051264338195323944
1696958471757105400,1.97110546875,-0.048068638890981674,-0.11824086308479309,0.1311568170785904
1696958471767118800,1.981118896484375,-0.054460037499666214,-0.17576344311237335,-0.058454662561416626
1696958471777132300,1.99113232421875,-0.05659050494432449,0.0021304660476744175,0.10559122264385223
1696958471787145700,2.001145751953125,-0.05232957378029823,-0.09800143539905548,-0.022236740216612816
1696958471797159200,2.0111591796875,-0.041677240282297134,-0.04047885537147522,0.047003407031297684
1696958471807172900,2.0211728515625,-0.037416309118270874,-0.08202294260263443,0.015046416781842709
1696958471817186300,2.031186279296875,-0.03848154470324516,-0.06497921794652939,-0.015845341607928276
1696958471827199700,2.04119970703125,-0.027829213067889214,-0.06497921794652939,0.013981183059513569
1696958471837213200,2.051213134765625,-0.020372580736875534,-0.10865376889705658,-0.005193010903894901
1696958471847226600,2.0612265625,-0.028894444927573204,-0.04154408723115921,-0.052063263952732086
1696958471857240300,2.071240234375,-0.027829213067889214,-0.04154408723115921,0.0001331541279796511
1696958471867253800,2.081253662109375,-0.022503048181533813,-0.00852186419069767,-0.035019535571336746
1696958471877267200,2.09126708984375,-0.026763979345560074,-0.02450035884976387,-0.06910699605941772
1696958471887280600,2.10128076171875,-0.033155377954244614,0.04367455467581749,-0.035019535571336746
1696958471897294000,2.111294189453125,-0.022503048181533813,-0.007456631399691105,-0.054193731397390366
1696958471907307500,2.1213076171875,-0.024633513763546944,0.0745663121342659,-0.08508548885583878
1696958471917321200,2.1313212890625,-0.03528584539890289,0.07243584841489792,-0.060585130006074905
1696958471927334700,2.141334716796875,-0.040612008422613144,0.10865376889705658,-0.10958584398031235
1696958471937348000,2.15134814453125,-0.036351077258586884,0.1374150663614273,-0.07656362652778625
1696958471947361500,2.161361572265625,-0.044872939586639404,0.1491326242685318,-0.13834713399410248
1696958471957375000,2.171375,-0.051264338195323944,0.1693720519542694,-0.07549838721752167
1696958471967388700,2.181388671875,-0.03528584539890289,0.14700216054916382,-0.12449911236763
1696958471977402000,2.191402099609375,-0.036351077258586884,0.11930610239505768,-0.12449911236763
1696958471987415600,2.20141552734375,-0.0555252730846405,0.13528458774089813,-0.12876003980636597
1696958471997429000,2.211428955078125,-0.043807707726955414,0.1384802907705307,-0.07869409024715424
1696958472007442400,2.2214423828125,-0.03954677656292915,0.10013190656900406,-0.14154283702373505
1696958472017456000,2.2314560546875,-0.05232957378029823,0.13208889961242676,-0.12449911236763
1696958472027469600,2.241469482421875,-0.053394805639982224,0.09693620353937149,-0.08721595257520676
1696958472037483000,2.25148291015625,-0.04274247586727142,0.07030537724494934,-0.10745538026094437
1696958472047496400,2.261496337890625,-0.04593817517161369,0.05113118514418602,-0.09680305421352386
1696958472057510000,2.271510009765625,-0.057655736804008484,0.09800143539905548,-0.08828118443489075
1696958472067523600,2.281523681640625,-0.047003407031297684,0.02769605815410614,-0.061650361865758896
1696958472077537000,2.291537109375,-0.053394805639982224,0.05752258375287056,-0.10639014840126038
1696958472087550500,2.301550537109375,-0.057655736804008484,0.09374050796031952,-0.06591129302978516
1696958472097564000,2.31156396484375,-0.0555252730846405,0.05858781561255455,-0.040345702320337296
1696958472107577300,2.321577392578125,-0.054460037499666214,0.04047885537147522,-0.05632419511675835
1696958472117591000,2.331591064453125,-0.05659050494432449,0.1288931965827942,-0.05632419511675835
1696958472127604500,2.3416044921875,-0.060851436108350754,0.07563154399394989,-0.008388710208237171
1696958472137618000,2.351617919921875,-0.048068638890981674,0.0213046595454216,-0.04993279650807381
1696958472147631400,2.36163134765625,-0.05232957378029823,0.10226237028837204,-0.021171506494283676
1696958472157644800,2.371644775390625,-0.047003407031297684,0.05965305119752884,-0.021171506494283676
1696958472167658500,2.381658447265625,-0.037416309118270874,0.02450035884976387,0.0001331541279796511
1696958472177672000,2.391671875,-0.028894444927573204,0.007456631399691105,-0.022236740216612816
1696958472187685400,2.401685302734375,-0.033155377954244614,0.03621792420744896,-0.029693370684981346
1696958472197698800,2.41169873046875,-0.020372580736875534,-0.009587096981704235,0.03954677656292915
1696958472207712300,2.421712158203125,-0.019307348877191544,-0.01917419396340847,-0.041410934180021286
1696958472217725700,2.4317255859375,-0.011850717477500439,0.02982652559876442,0.026763979345560074
1696958472227739400,2.441739501953125,-0.017176883295178413,-0.01704372838139534,0.0001331541279796511
1696958472237752800,2.4517529296875,-0.006524552125483751,-0.0063913981430232525,0.006524552125483751
1696958472247766300,2.461766357421875,-0.004394086077809334,0.012782796286046505,0.028894444927573204
1696958472257779700,2.47177978515625,-0.011850717477500439,0.004260932095348835,0.0033288532868027687
1696958472267793200,2.481793212890625,-0.009720250964164734,0.07137060910463333,0.03209014609456062
1696958472277806800,2.491806884765625,0.0030625448562204838,0.02769605815410614,0.04274247586727142
1696958472287820300,2.5018203125,-0.010785484686493874,0.07030537724494934,-0.026497671380639076
1696958472297833700,2.511833740234375,-0.006524552125483751,0.06710968166589737,0.07043853402137756
1696958472307847200,2.52184716796875,0.006258244160562754,0.03408745676279068,0.011850717477500439
1696958472317860600,2.531860595703125,0.0030625448562204838,0.01917419396340847,0.025698747485876083
1696958472327874300,2.541874267578125,-0.0011983871227130294,0.0063913981430232525,0.044872939586639404
1696958472337887700,2.5518876953125,0.011584409512579441,-0.01917419396340847,0.019307348877191544
1696958472347901200,2.561901123046875,0.013714875094592571,-0.0063913981430232525,0.029959678649902344
1696958472357914600,2.57191455078125,0.005193010903894901,-0.05006595328450203,0.025698747485876083
1696958472367928000,2.581927978515625,0.008388710208237171,-0.02450035884976387,0.018242115154862404
1696958472377941800,2.591941650390625,0.015845341607928276,-0.0010652330238372087,0.050199106335639954
1696958472387955200,2.601955078125,0.006258244160562754,-0.04580501839518547,-0.03608476743102074
1696958472397968600,2.61196875,0.004127778112888336,0.01704372838139534,0.06511236727237701
1696958472407982000,2.621982177734375,0.009453942999243736,-0.03621792420744896,-0.007323476951569319
1696958472417995500,2.63199560546875,0.009453942999243736,0.0021304660476744175,0.0001331541279796511
1696958472428009200,2.64200927734375,0.001997311832383275,-0.02556559257209301,0.015046416781842709
1696958472438022700,2.652022705078125,0.008388710208237171,-0.0010652330238372087,0.006524552125483751
1696958472448036000,2.6620361328125,0.009453942999243736,-0.03834838792681694,0.010785484686493874
1696958472458049500,2.672049560546875,0.001997311832383275,-0.01171756349503994,-0.037150003015995026
1696958472468063000,2.68206298828125,0.012649642303586006,-0.0010652330238372087,0.067242830991745
1696958472478076700,2.69207666015625,0.010519175790250301,-0.06178351491689682,-0.05632419511675835
1696958472488090000,2.702090087890625,0.008388710208237171,0.007456631399691105,0.015046416781842709
1696958472498103600,2.712103515625,0.023301972076296806,-0.0745663121342659,0.017176883295178413
1696958472508117000,2.722116943359375,0.023301972076296806,-0.02982652559876442,-0.031823836266994476
1696958472518130400,2.73213037109375,0.012649642303586006,-0.01917419396340847,0.006524552125483751
1696958472528144000,2.742143798828125,0.022236740216612816,-0.03834838792681694,0.0011983871227130294
1696958472538157600,2.752157470703125,0.029693370684981346,-0.00852186419069767,-0.0030625448562204838
1696958472548171000,2.7621708984375,0.019041040912270546,0.02982652559876442,-0.030758604407310486
1696958472558184400,2.772184326171875,0.027562905102968216,-0.06710968166589737,0.029959678649902344
1696958472568198000,2.782197998046875,0.03288906812667847,-0.007456631399691105,-0.022236740216612816
1696958472578211300,2.79221142578125,0.020106272771954536,-0.01810896210372448,-0.0009320789249613881
1696958472588225000,2.80222509765625,0.03928046673536301,-0.05006595328450203,0.004394086077809334
1696958472598238500,2.812238525390625,0.035019535571336746,-0.0319569893181324,0.026763979345560074
1696958472608252000,2.822251953125,0.026497671380639076,-0.04580501839518547,-0.05632419511675835
1696958472618265300,2.832265380859375,0.048867564648389816,-0.02663082629442215,0.0991998240351677
1696958472628278800,2.84227880859375,0.03288906812667847,-0.03089175745844841,-0.07975932210683823
1696958472638292500,2.85229248046875,0.035019535571336746,-0.01810896210372448,0.07150376588106155
1696958472648306000,2.862305908203125,0.040345702320337296,-0.06178351491689682,-0.026497671380639076
1696958472658319400,2.8723193359375,0.033954303711652756,0.05432688444852829,0.018242115154862404
1696958472668332800,2.882332763671875,0.040345702320337296,-0.06924014538526535,0.023568280041217804
1696958472678346200,2.89234619140625,0.03288906812667847,0.004260932095348835,0.00226362026296556
1696958472688360000,2.90235986328125,0.041410934180021286,-0.03302222490310669,0.026763979345560074
1696958472698373400,2.912373291015625,0.027562905102968216,0.03408745676279068,-0.004127778112888336
1696958472708386800,2.92238671875,0.044606633484363556,-0.05752258375287056,0.08109086751937866
1696958472718400300,2.932400146484375,0.026497671380639076,-0.0053261648863554,-0.08828118443489075
1696958472728413700,2.94241357421875,0.033954303711652756,0.0426093190908432,0.12476541846990585
1696958472738427400,2.952427490234375,0.028628136962652206,-0.04473978653550148,-0.07869409024715424
1696958472748440800,2.96244091796875,0.03928046673536301,0.01917419396340847,0.08109086751937866
1696958472758454300,2.972454345703125,0.033954303711652756,-0.05006595328450203,-0.040345702320337296
1696958472768467700,2.9824677734375,0.038215234875679016,0.02769605815410614,0.047003407031297684
1696958472778481200,2.992481201171875,0.035019535571336746,-0.01704372838139534,-0.014780107885599136
1696958472788494800,3.002494873046875,0.035019535571336746,0.0053261648863554,0.022503048181533813
1696958472798508300,3.01250830078125,0.041410934180021286,-0.01810896210372448,0.018242115154862404
1696958472808521700,3.022521728515625,0.03288906812667847,0.03515268862247467,-0.031823836266994476
1696958472818535200,3.03253515625,0.041410934180021286,0.02876129187643528,0.08002562820911407
1696958472828548600,3.042548583984375,0.033954303711652756,-0.01704372838139534,-0.041410934180021286
1696958472838562300,3.052562255859375,0.03288906812667847,0.07882724702358246,0.03848154470324516
1696958472848575700,3.06257568359375,0.033954303711652756,-0.0010652330238372087,0.008655018173158169
1696958472858589200,3.072589111328125,0.03288906812667847,0.0639139786362648,-0.007323476951569319
1696958472868602600,3.0826025390625,0.031823836266994476,0.05432688444852829,0.029959678649902344
1696958472878616000,3.092615966796875,0.037150003015995026,-0.0031956990715116262,-0.023301972076296806
1696958472888629500,3.10262939453125,0.037150003015995026,0.06817491352558136,0.033155377954244614
1696958472898643200,3.112643310546875,0.03608476743102074,-0.0010652330238372087,-0.019041040912270546
1696958472908656600,3.12265673828125,0.03608476743102074,0.04047885537147522,0.008655018173158169
1696958472918670000,3.132670166015625,0.038215234875679016,0.02023942768573761,0.0033288532868027687
1696958472928683500,3.14268359375,0.035019535571336746,0.06924014538526535,-0.010519175790250301
1696958472938697000,3.152697021484375,0.043541401624679565,-0.0106523297727108,0.0011983871227130294
1696958472948710700,3.162710693359375,0.03608476743102074,0.01384802907705307,-0.019041040912270546
1696958472958724000,3.17272412109375,0.044606633484363556,-0.0010652330238372087,0.027829213067889214
1696958472968737500,3.182737548828125,0.03928046673536301,-0.0021304660476744175,-0.038215234875679016
1696958472978751000,3.1927509765625,0.040345702320337296,0.0021304660476744175,0.019307348877191544
1696958472988764400,3.202764404296875,0.037150003015995026,-0.01171756349503994,-0.019041040912270546
1696958472998778000,3.212778076171875,0.043541401624679565,-0.02236989326775074,0.005459319334477186
1696958473008791600,3.22279150390625,0.035019535571336746,-0.0063913981430232525,-0.007323476951569319
1696958473018805000,3.232804931640625,0.03608476743102074,-0.00852186419069767,0.0011983871227130294
1696958473028818400,3.242818359375,0.03288906812667847,-0.0021304660476744175,-0.004127778112888336
1696958473038831900,3.252831787109375,0.038215234875679016,-0.0053261648863554,0.0001331541279796511
1696958473048845600,3.262845458984375,0.033954303711652756,0.0021304660476744175,0.016111649572849274
1696958473058859000,3.27285888671875,0.037150003015995026,-0.03941362351179123,-0.005193010903894901
1696958473068872400,3.28287255859375,0.03608476743102074,-0.0010652330238372087,0.009720250964164734
1696958473078886000,3.292885986328125,0.042476166039705276,-0.02343512699007988,0.027829213067889214
1696958473088899300,3.3028994140625,0.03608476743102074,-0.04154408723115921,-0.016910573467612267
1696958473098913000,3.3129130859375,0.044606633484363556,-0.01384802907705307,0.047003407031297684
1696958473108926500,3.322926513671875,0.042476166039705276,-0.06710968166589737,-0.0009320789249613881
1696958473118940000,3.33293994140625,0.043541401624679565,-0.004260932095348835,0.023568280041217804
1696958473128953300,3.342953369140625,0.040345702320337296,-0.02343512699007988,0.025698747485876083
1696958473138966800,3.352966796875,0.040345702320337296,-0.02982652559876442,0.009720250964164734
1696958473148980500,3.36298046875,0.040345702320337296,0.007456631399691105,0.028894444927573204
1696958473158994000,3.372993896484375,0.042476166039705276,-0.04793548583984375,0.020372580736875534
1696958473169007400,3.38300732421875,0.037150003015995026,0.01810896210372448,-0.006258244160562754
1696958473179020800,3.393020751953125,0.040345702320337296,0,0.054460037499666214
1696958473189034200,3.4030341796875,0.038215234875679016,-0.02769605815410614,-0.024367205798625946
1696958473199047700,3.413047607421875,0.04673709720373154,0.0106523297727108,0.0555252730846405
1696958473209061000,3.42306103515625,0.03608476743102074,-0.02023942768573761,-0.017975807189941406
1696958473219074600,3.433074462890625,0.045671865344047546,0.02236989326775074,0.033155377954244614
1696958473229088000,3.443087890625,0.041410934180021286,-0.0319569893181324,0.004394086077809334
1696958473239101400,3.453101318359375,0.042476166039705276,0.04793548583984375,0.0011983871227130294
1696958473249115000,3.463114990234375,0.038215234875679016,0.0053261648863554,0.03528584539890289
1696958473259128300,3.47312841796875,0.038215234875679016,0.01384802907705307,-0.025432437658309937
1696958473269141800,3.483141845703125,0.037150003015995026,0.04154408723115921,0.037416309118270874
1696958473279155200,3.4931552734375,0.042476166039705276,-0.0031956990715116262,-0.022236740216612816
1696958473289168600,3.503168701171875,0.03288906812667847,0.0319569893181324,0.013981183059513569
1696958473299182000,3.51318212890625,0.03928046673536301,0.007456631399691105,-0.005193010903894901
1696958473309195500,3.523195556640625,0.03608476743102074,0.02556559257209301,-0.010519175790250301
1696958473319209000,3.533208984375,0.044606633484363556,-0.02450035884976387,0.016111649572849274
1696958473329222400,3.543222412109375,0.030758604407310486,0.009587096981704235,-0.026497671380639076
1696958473339235800,3.55323583984375,0.043541401624679565,-0.0106523297727108,0.011850717477500439
1696958473349249300,3.563249267578125,0.038215234875679016,0,-0.008388710208237171
1696958473359262700,3.5732626953125,0.042476166039705276,-0.0010652330238372087,0.0001331541279796511
1696958473369276200,3.583276123046875,0.033954303711652756,-0.0021304660476744175,-0.0030625448562204838
1696958473379289600,3.59328955078125,0.044606633484363556,0.0010652330238372087,0.005459319334477186
1696958473389303000,3.603302978515625,0.037150003015995026,-0.01491326279938221,-0.015845341607928276
1696958473399316500,3.61331640625,0.040345702320337296,0.0053261648863554,0.020372580736875534
1696958473409330000,3.623329833984375,0.037150003015995026,0.0010652330238372087,-0.023301972076296806
1696958473419343400,3.63334326171875,0.044606633484363556,0.0010652330238372087,0.011850717477500439
1696958473429356800,3.643356689453125,0.038215234875679016,0,-0.0030625448562204838
1696958473439370200,3.653370361328125,0.043541401624679565,-0.00852186419069767,-0.010519175790250301
1696958473449383700,3.6633837890625,0.033954303711652756,0.04793548583984375,0.012915950268507004
1696958473459397000,3.673397216796875,0.042476166039705276,-0.0063913981430232525,-0.012649642303586006
1696958473469410600,3.68341064453125,0.03608476743102074,0.03515268862247467,0.0001331541279796511
1696958473479424000,3.693424072265625,0.043541401624679565,0.0010652330238372087,0.015046416781842709
1696958473489437400,3.7034375,0.03608476743102074,0.03941362351179123,-0.024367205798625946
1696958473499451000,3.713450927734375,0.047802332788705826,-0.007456631399691105,0.033155377954244614
1696958473509464600,3.723464599609375,0.035019535571336746,0.04047885537147522,-0.023301972076296806
1696958473519478000,3.73347802734375,0.045671865344047546,0.009587096981704235,0.037416309118270874
1696958473529491500,3.743491455078125,0.040345702320337296,0.0010652330238372087,-0.019041040912270546
1696958473539505000,3.7535048828125,0.040345702320337296,0.04473978653550148,0.033155377954244614
1696958473549518300,3.763518310546875,0.038215234875679016,0.00852186419069767,-0.012649642303586006
1696958473559532000,3.773531982421875,0.045671865344047546,-0.004260932095348835,0.03848154470324516
1696958473569545500,3.78354541015625,0.03608476743102074,0.03089175745844841,-0.033954303711652756
1696958473579559000,3.793558837890625,0.045671865344047546,0.004260932095348835,0.07043853402137756
1696958473589572400,3.803572265625,0.035019535571336746,-0.0010652330238372087,-0.048867564648389816
1696958473599585800,3.813585693359375,0.044606633484363556,0.03941362351179123,0.067242830991745
1696958473609599500,3.823599609375,0.037150003015995026,0.0031956990715116262,-0.025432437658309937
1696958473619613000,3.833613037109375,0.041410934180021286,0.0213046595454216,0.024633513763546944
1696958473629626400,3.84362646484375,0.037150003015995026,0.0053261648863554,0.010785484686493874
1696958473639639800,3.853639892578125,0.044606633484363556,0.0159784946590662,0.009720250964164734
1696958473649653200,3.8636533203125,0.035019535571336746,0.02450035884976387,0.019307348877191544
1696958473659666700,3.873666748046875,0.037150003015995026,-0.012782796286046505,0.006524552125483751
1696958473669680400,3.883680419921875,0.033954303711652756,0.05858781561255455,0.005459319334477186
1696958473679693800,3.89369384765625,0.03928046673536301,-0.004260932095348835,0.029959678649902344
1696958473689707300,3.903707275390625,0.035019535571336746,-0.02343512699007988,-0.016910573467612267
1696958473699720700,3.913720703125,0.035019535571336746,0.03941362351179123,0.040612008422613144
1696958473709734100,3.923734130859375,0.037150003015995026,-0.01384802907705307,-0.024367205798625946
1696958473719747800,3.933747802734375,0.037150003015995026,0.009587096981704235,0.051264338195323944
1696958473729761300,3.94376123046875,0.03608476743102074,-0.01384802907705307,-0.020106272771954536
1696958473739774700,3.953774658203125,0.037150003015995026,0.01704372838139534,0.018242115154862404
1696958473749788200,3.9637880859375,0.038215234875679016,-0.004260932095348835,0.015046416781842709
1696958473759801600,3.973801513671875,0.03608476743102074,-0.0106523297727108,0.0001331541279796511
1696958473769815300,3.983815185546875,0.038215234875679016,0.0053261648863554,0.015046416781842709
1696958473779828700,3.993828857421875,0.037150003015995026,-0.02023942768573761,0.009720250964164734
1696958473789842200,4.00384228515625,0.033954303711652756,0.03302222490310669,-0.001997311832383275
1696958473799855600,4.013855712890625,0.03928046673536301,-0.03941362351179123,0.031024912372231483
1696958473809869000,4.023869140625,0.03608476743102074,0.01171756349503994,-0.024367205798625946
1696958473819882800,4.0338828125,0.035019535571336746,0.0213046595454216,0.048068638890981674
1696958473829896200,4.043896240234375,0.033954303711652756,-0.01917419396340847,-0.026497671380639076
1696958473839909600,4.05390966796875,0.033954303711652756,0.02876129187643528,0.040612008422613144
1696958473849923000,4.063923095703125,0.038215234875679016,-0.00852186419069767,-0.013714875094592571
1696958473859936500,4.0739365234375,0.03608476743102074,0.0053261648863554,0.025698747485876083
1696958473869950200,4.0839501953125,0.03288906812667847,0.01491326279938221,-0.017975807189941406
1696958473879963600,4.093963623046875,0.038215234875679016,0.0010652330238372087,0.036351077258586884
1696958473889977000,4.10397705078125,0.03928046673536301,-0.03728315606713295,-0.040345702320337296
1696958473899990500,4.113990478515625,0.037150003015995026,0.02343512699007988,0.041677240282297134
1696958473910004000,4.12400390625,0.038215234875679016,-0.04047885537147522,-0.03928046673536301
1696958473920017700,4.134017578125,0.03608476743102074,0.01917419396340847,0.019307348877191544
1696958473930031000,4.144031005859375,0.03928046673536301,-0.05752258375287056,-0.008388710208237171
1696958473940044500,4.15404443359375,0.029693370684981346,-0.0021304660476744175,-0.037150003015995026
1696958473950058000,4.16405810546875,0.03608476743102074,-0.0021304660476744175,0.026763979345560074
1696958473960071400,4.174071533203125,0.028628136962652206,-0.02876129187643528,-0.05632419511675835
1696958473970084900,4.1840849609375,0.030758604407310486,0.02343512699007988,0.022503048181533813
1696958473980098600,4.1940986328125,0.024367205798625946,-0.02450035884976387,-0.027562905102968216
1696958473990112000,4.204112060546875,0.024367205798625946,0.05645735189318657,-0.028628136962652206
1696958474000125400,4.21412548828125,0.025432437658309937,0.007456631399691105,0.028894444927573204
1696958474010139000,4.224138916015625,0.024367205798625946,-0.01384802907705307,-0.0712374597787857
1696958474020152300,4.23415234375,0.016910573467612267,0.08947957307100296,0.023568280041217804
1696958474030166000,4.244166015625,0.025432437658309937,-0.03834838792681694,-0.040345702320337296
1696958474040179500,4.254179443359375,0.011584409512579441,0.07350108027458191,-0.015845341607928276
1696958474050193000,4.26419287109375,0.017975807189941406,0.0031956990715116262,-0.001997311832383275
1696958474060206300,4.274206298828125,0.009453942999243736,0.03408745676279068,-0.052063263952732086
1696958474070219800,4.2842197265625,0.019041040912270546,-0.02236989326775074,0.029959678649902344
1696958474080233500,4.2942333984375,0.004127778112888336,0.01810896210372448,-0.0723026916384697
1696958474090247000,4.304246826171875,0.017975807189941406,-0.009587096981704235,0.04274247586727142
1696958474100260400,4.31426025390625,0.006258244160562754,-0.04580501839518547,-0.06271559745073318
1696958474110273800,4.324273681640625,0.012649642303586006,0.0010652330238372087,0.034220609813928604
1696958474120287200,4.334287353515625,0.009453942999243736,-0.04793548583984375,-0.029693370684981346
1696958474130301000,4.344301025390625,0.010519175790250301,-0.03515268862247467,0.008655018173158169
1696958474140314400,4.354314453125,-0.0001331541279796511,-0.01491326279938221,0.0011983871227130294
1696958474150327800,4.364327880859375,0.008388710208237171,-0.03515268862247467,-0.004127778112888336
1696958474160341200,4.37434130859375,-0.004394086077809334,-0.00852186419069767,0.010785484686493874
1696958474170354700,4.384354736328125,-0.0001331541279796511,-0.02982652559876442,0.007589785382151604
1696958474180368400,4.394368408203125,-0.009720250964164734,0.00852186419069767,-0.001997311832383275
1696958474190381800,4.4043818359375,-0.004394086077809334,-0.0021304660476744175,0.012915950268507004
1696958474200395300,4.414395263671875,-0.013981183059513569,0.009587096981704235,-0.0030625448562204838
1696958474210408700,4.42440869140625,-0.008655018173158169,0.007456631399691105,0.022503048181533813
1696958474220422100,4.434422119140625,-0.020372580736875534,0.0213046595454216,-0.014780107885599136
1696958474230435800,4.444435791015625,-0.008655018173158169,0.0063913981430232525,0.021437814459204674
1696958474240449300,4.45444921875,-0.016111649572849274,-0.0053261648863554,0.0001331541279796511
1696958474250462700,4.464462646484375,-0.010785484686493874,-0.01704372838139534,-0.012649642303586006
1696958474260476200,4.47447607421875,-0.015046416781842709,0.01384802907705307,0.005459319334477186
1696958474270489600,4.484489501953125,-0.008655018173158169,-0.03089175745844841,-0.006258244160562754
1696958474280503000,4.4945029296875,-0.017176883295178413,-0.0063913981430232525,-0.010519175790250301
1696958474290516700,4.504516845703125,-0.008655018173158169,-0.03941362351179123,0.011850717477500439
1696958474300530200,4.5145302734375,-0.020372580736875534,0.004260932095348835,-0.037150003015995026
1696958474310543600,4.524543701171875,-0.010785484686493874,-0.03834838792681694,0.010785484686493874
1696958474320557000,4.53455712890625,-0.020372580736875534,-0.02663082629442215,-0.027562905102968216
1696958474330570500,4.544570556640625,-0.015046416781842709,0.004260932095348835,-0.014780107885599136
1696958474340584200,4.554584228515625,-0.020372580736875534,-0.02982652559876442,-0.011584409512579441
1696958474350597600,4.56459765625,-0.019307348877191544,-0.01917419396340847,-0.009453942999243736
1696958474360611000,4.574611083984375,-0.024633513763546944,0.02023942768573761,-0.022236740216612816
1696958474370624500,4.58462451171875,-0.018242115154862404,-0.0213046595454216,-0.001997311832383275
1696958474380638000,4.594637939453125,-0.029959678649902344,0.02343512699007988,-0.023301972076296806
1696958474390651600,4.604651611328125,-0.021437814459204674,-0.01171756349503994,0.008655018173158169
1696958474400665000,4.6146650390625,-0.031024912372231483,0.03302222490310669,-0.027562905102968216
1696958474410678500,4.624678466796875,-0.025698747485876083,0,0.026763979345560074
1696958474420692000,4.63469189453125,-0.03528584539890289,0.0159784946590662,-0.035019535571336746
1696958474430705400,4.644705322265625,-0.026763979345560074,0.0021304660476744175,0.037416309118270874
1696958474440719000,4.654718994140625,-0.03209014609456062,-0.0159784946590662,-0.037150003015995026
1696958474450732500,4.664732666015625,-0.026763979345560074,-0.01704372838139534,0.050199106335639954
1696958474460746000,4.67474609375,-0.033155377954244614,-0.009587096981704235,-0.04993279650807381
1696958474470759400,4.684759521484375,-0.022503048181533813,-0.04047885537147522,0.057655736804008484
1696958474480772900,4.69477294921875,-0.029959678649902344,-0.04473978653550148,-0.042476166039705276
1696958474490786600,4.70478662109375,-0.021437814459204674,-0.03515268862247467,0.043807707726955414
1696958474500800000,4.714800048828125,-0.031024912372231483,-0.03728315606713295,-0.035019535571336746
1696958474510813400,4.7248134765625,-0.022503048181533813,-0.03621792420744896,0.047003407031297684
1696958474520827000,4.734826904296875,-0.033155377954244614,-0.02769605815410614,-0.042476166039705276
1696958474530840300,4.74484033203125,-0.025698747485876083,0.007456631399691105,0.051264338195323944
1696958474540854000,4.75485400390625,-0.033155377954244614,-0.03302222490310669,-0.027562905102968216
1696958474550867500,4.764867431640625,-0.03209014609456062,0.012782796286046505,0.004394086077809334
1696958474560881000,4.774880859375,-0.033155377954244614,0.02023942768573761,0.026763979345560074
1696958474570894300,4.784894287109375,-0.031024912372231483,-0.00852186419069767,-0.025432437658309937
1696958474580907800,4.79490771484375,-0.03528584539890289,0.04793548583984375,0.04593817517161369
1696958474590921200,4.804921142578125,-0.03528584539890289,-0.0010652330238372087,-0.017975807189941406
1696958474600935000,4.814934814453125,-0.034220609813928604,0.07137060910463333,0.015046416781842709
1696958474610948400,4.8249482421875,-0.026763979345560074,-0.02982652559876442,0.026763979345560074
1696958474620961800,4.8349619140625,-0.036351077258586884,0.03302222490310669,-0.024367205798625946
1696958474630975200,4.844975341796875,-0.024633513763546944,0.01171756349503994,0.054460037499666214
1696958474640988700,4.85498876953125,-0.033155377954244614,-0.01384802907705307,-0.022236740216612816
1696958474651002400,4.86500244140625,-0.023568280041217804,-0.0213046595454216,0.04274247586727142
1696958474661015800,4.875015869140625,-0.029959678649902344,-0.01491326279938221,-0.008388710208237171
1696958474671029200,4.885029296875,-0.021437814459204674,-0.03834838792681694,0.021437814459204674
1696958474681042700,4.895042724609375,-0.026763979345560074,-0.01704372838139534,0.025698747485876083
1696958474691056000,4.90505615234375,-0.022503048181533813,-0.02556559257209301,0.008655018173158169
1696958474701069800,4.91506982421875,-0.028894444927573204,-0.0106523297727108,0.023568280041217804
1696958474711083300,4.925083251953125,-0.025698747485876083,-0.0063913981430232525,0.013981183059513569
1696958474721096700,4.9350966796875,-0.031024912372231483,0.02769605815410614,0.033155377954244614
1696958474731110100,4.945110107421875,-0.026763979345560074,-0.01384802907705307,0.019307348877191544
1696958474741123600,4.95512353515625,-0.03209014609456062,0.03089175745844841,0.015046416781842709
1696958474751137300,4.96513720703125,-0.031024912372231483,0.007456631399691105,0.03848154470324516
1696958474761150700,4.975150634765625,-0.037416309118270874,0.03408745676279068,-0.016910573467612267
1696958474771164200,4.9851640625,-0.025698747485876083,0.012782796286046505,0.07256899774074554
1696958474781177600,4.995177490234375,-0.036351077258586884,-0.0021304660476744175,-0.048867564648389816
1696958474791191000,5.00519091796875,-0.028894444927573204,0.03515268862247467,0.05978620424866676
1696958474801204700,5.015204833984375,-0.033155377954244614,-0.03302222490310669,-0.014780107885599136
1696958474811218200,5.02521826171875,-0.026763979345560074,-0.0031956990715116262,0.006524552125483751
1696958474821231600,5.035231689453125,-0.028894444927573204,-0.007456631399691105,0.017176883295178413
1696958474831245000,5.0452451171875,-0.025698747485876083,-0.05219641700387001,-0.016910573467612267
1696958474841258500,5.055258544921875,-0.028894444927573204,-0.0106523297727108,0.005459319334477186
1696958474851272200,5.065272216796875,-0.021437814459204674,-0.04687025398015976,0.007589785382151604
1696958474861285600,5.07528564453125,-0.033155377954244614,-0.0021304660476744175,-0.030758604407310486
1696958474871299000,5.085299072265625,-0.027829213067889214,-0.0031956990715116262,0.025698747485876083
1696958474881312500,5.0953125,-0.034220609813928604,-0.0213046595454216,-0.027562905102968216
1696958474891326000,5.105325927734375,-0.029959678649902344,0.01917419396340847,0.004394086077809334
1696958474901339600,5.115339599609375,-0.03209014609456062,-0.004260932095348835,0.013981183059513569
1696958474911353000,5.12535302734375,-0.033155377954244614,-0.007456631399691105,-0.03288906812667847
1696958474921366500,5.135366455078125,-0.036351077258586884,0.06071828305721283,0.026763979345560074
1696958474931380000,5.1453798828125,-0.026763979345560074,-0.05965305119752884,0.0033288532868027687
1696958474941393400,5.155393310546875,-0.034220609813928604,0.01810896210372448,-0.028628136962652206
1696958474951406800,5.16540673828125,-0.026763979345560074,0.004260932095348835,0.0555252730846405
1696958474961420500,5.175420654296875,-0.029959678649902344,-0.0426093190908432,-0.043541401624679565
1696958474971434000,5.18543408203125,-0.022503048181533813,-0.02236989326775074,0.061916667968034744
1696958474981447400,5.195447509765625,-0.029959678649902344,-0.0213046595454216,-0.027562905102968216
1696958474991460900,5.2054609375,-0.022503048181533813,-0.03089175745844841,0.047003407031297684
1696958475001474300,5.215474365234375,-0.03209014609456062,-0.007456631399691105,-0.015845341607928276
1696958475011488000,5.225488037109375,-0.017176883295178413,-0.0426093190908432,0.07150376588106155
1696958475021501400,5.23550146484375,-0.033155377954244614,-0.0031956990715116262,-0.043541401624679565
1696958475031515000,5.245514892578125,-0.021437814459204674,0.0010652330238372087,0.08535179495811462
1696958475041528300,5.2555283203125,-0.029959678649902344,-0.04154408723115921,-0.023301972076296806
1696958475051541800,5.265541748046875,-0.022503048181533813,0.0319569893181324,0.04274247586727142
1696958475061555500,5.275555419921875,-0.029959678649902344,-0.007456631399691105,0.019307348877191544
1696958475071569000,5.28556884765625,-0.029959678649902344,0.012782796286046505,-0.001997311832383275
1696958475081582300,5.295582275390625,-0.025698747485876083,0.04687025398015976,0.03209014609456062
1696958475091595800,5.305595703125,-0.025698747485876083,-0.00852186419069767,0.024633513763546944
1696958475101609200,5.315609130859375,-0.03209014609456062,0.03834838792681694,-0.021171506494283676
1696958475111623000,5.325622802734375,-0.025698747485876083,0.02876129187643528,0.050199106335639954
1696958475121636400,5.33563623046875,-0.03209014609456062,0.02343512699007988,-0.043541401624679565
1696958475131649800,5.34564990234375,-0.021437814459204674,0.0010652330238372087,0.041677240282297134
1696958475141663200,5.355663330078125,-0.031024912372231483,0.01171756349503994,-0.042476166039705276
1696958475151676700,5.3656767578125,-0.022503048181533813,0.009587096981704235,0.016111649572849274
1696958475161690000,5.375690185546875,-0.024633513763546944,-0.03728315606713295,-0.03288906812667847
1696958475171703600,5.38570361328125,-0.021437814459204674,0.0031956990715116262,-0.007323476951569319
1696958475181717000,5.395717041015625,-0.021437814459204674,-0.04900071769952774,-0.026497671380639076
1696958475191730400,5.40573046875,-0.026763979345560074,-0.0010652330238372087,-0.022236740216612816
1696958475201744000,5.415743896484375,-0.024633513763546944,-0.01491326279938221,-0.014780107885599136
1696958475211757300,5.42575732421875,-0.028894444927573204,-0.0063913981430232525,-0.047802332788705826
1696958475221770800,5.435770751953125,-0.024633513763546944,0.012782796286046505,0.010785484686493874
1696958475231784200,5.4457841796875,-0.033155377954244614,-0.0063913981430232525,-0.061650361865758896
1696958475241797600,5.455797607421875,-0.025698747485876083,0.007456631399691105,-0.004127778112888336
1696958475251811000,5.46581103515625,-0.031024912372231483,0.0031956990715116262,-0.023301972076296806
1696958475261824500,5.475824462890625,-0.033155377954244614,0.0010652330238372087,-0.03288906812667847
1696958475271838000,5.485837890625,-0.026763979345560074,0.01171756349503994,0.004394086077809334
1696958475281851400,5.495851318359375,-0.033155377954244614,-0.03089175745844841,-0.040345702320337296
1696958475291864800,5.50586474609375,-0.024633513763546944,0.01810896210372448,0.004394086077809334
1696958475301878300,5.515878173828125,-0.025698747485876083,-0.0426093190908432,0.0011983871227130294
1696958475311891700,5.5258916015625,-0.025698747485876083,-0.0010652330238372087,-0.033954303711652756
1696958475321905200,5.5359052734375,-0.021437814459204674,-0.00852186419069767,0.054460037499666214
1696958475331918600,5.545918701171875,-0.029959678649902344,-0.05219641700387001,-0.06591129302978516
1696958475341932000,5.55593212890625,-0.020372580736875534,0.04047885537147522,0.06404713541269302
1696958475351945500,5.565945556640625,-0.025698747485876083,-0.05219641700387001,-0.019041040912270546
1696958475361959000,5.575958984375,-0.027829213067889214,0.02769605815410614,-0.011584409512579441
1696958475371972400,5.585972412109375,-0.017176883295178413,-0.01171756349503994,0.06511236727237701
1696958475381985800,5.59598583984375,-0.034220609813928604,0,-0.061650361865758896
1696958475391999200,5.605999267578125,-0.021437814459204674,0.02982652559876442,0.06298190355300903
1696958475402012700,5.6160126953125,-0.025698747485876083,-0.03302222490310669,-0.009453942999243736
1696958475412026000,5.626026123046875,-0.033155377954244614,0.05113118514418602,-0.020106272771954536
1696958475422039600,5.63603955078125,-0.018242115154862404,-0.03515268862247467,0.04274247586727142
1696958475432053000,5.646052978515625,-0.028894444927573204,-0.00852186419069767,-0.007323476951569319
1696958475442066400,5.65606640625,-0.03528584539890289,0.03515268862247467,-0.03288906812667847
1696958475452080000,5.666080078125,-0.015046416781842709,-0.02343512699007988,0.061916667968034744
1696958475462093600,5.676093505859375,-0.031024912372231483,-0.0213046595454216,-0.07656362652778625
1696958475472107000,5.68610693359375,-0.027829213067889214,0.03302222490310669,0.020372580736875534
1696958475482120400,5.696120361328125,-0.018242115154862404,-0.06071828305721283,0.006524552125483751
1696958475492134000,5.7061337890625,-0.034220609813928604,0.02663082629442215,-0.07975932210683823
1696958475502147600,5.716147705078125,-0.022503048181533813,-0.02236989326775074,0.043807707726955414
1696958475512161000,5.7261611328125,-0.021437814459204674,-0.06178351491689682,-0.06378082931041718
1696958475522174500,5.736174560546875,-0.029959678649902344,0.03302222490310669,-0.016910573467612267
1696958475532188000,5.74618798828125,-0.021437814459204674,-0.07137060910463333,-0.007323476951569319
1696958475542201300,5.756201416015625,-0.019307348877191544,-0.02023942768573761,-0.03288906812667847
1696958475552215000,5.766215087890625,-0.031024912372231483,0.00852186419069767,-0.012649642303586006
1696958475562228500,5.776228515625,-0.026763979345560074,-0.03089175745844841,-0.026497671380639076
1696958475572242000,5.786241943359375,-0.019307348877191544,-0.02663082629442215,0.011850717477500439
1696958475582255400,5.79625537109375,-0.034220609813928604,0.04047885537147522,-0.059519894421100616
1696958475592268800,5.806268798828125,-0.025698747485876083,-0.02982652559876442,0.03954677656292915
1696958475602282500,5.816282470703125,-0.024633513763546944,0.0010652330238372087,-0.04673709720373154
1696958475612296000,5.8262958984375,-0.03209014609456062,0.05219641700387001,0.020372580736875534
1696958475622309400,5.836309326171875,-0.026763979345560074,-0.05858781561255455,-0.03288906812667847
1696958475632322800,5.84632275390625,-0.020372580736875534,0.03408745676279068,0.04913387447595596
1696958475642336300,5.856336181640625,-0.026763979345560074,-0.04154408723115921,-0.048867564648389816
1696958475652350000,5.866349853515625,-0.027829213067889214,0.01704372838139534,0.031024912372231483
1696958475662363400,5.87636328125,-0.011850717477500439,-0.05858781561255455,0.034220609813928604
1696958475672376800,5.886376953125,-0.025698747485876083,-0.0319569893181324,-0.058454662561416626
1696958475682390300,5.896390380859375,-0.025698747485876083,0.0213046595454216,0.07043853402137756
1696958475692403700,5.90640380859375,-0.016111649572849274,-0.07776200771331787,-0.011584409512579441
1696958475702417400,5.91641748046875,-0.022503048181533813,0.02876129187643528,0.0033288532868027687
1696958475712430800,5.926430908203125,-0.028894444927573204,-0.02343512699007988,0.040612008422613144
1696958475722444300,5.9364443359375,-0.028894444927573204,-0.0063913981430232525,-0.038215234875679016
1696958475732457700,5.946457763671875,-0.021437814459204674,0.03728315606713295,0.07576470077037811
1696958475742471200,5.95647119140625,-0.034220609813928604,-0.03408745676279068,-0.06591129302978516
1696958475752484600,5.966484619140625,-0.03209014609456062,0.05006595328450203,0.060851436108350754
1696958475762498300,5.976498291015625,-0.024633513763546944,-0.00852186419069767,-0.017975807189941406
1696958475772511700,5.98651171875,-0.034220609813928604,0.04154408723115921,-0.011584409512579441
1696958475782525200,5.996525146484375,-0.034220609813928604,0.01171756349503994,0.017176883295178413
1696958475792538600,6.00653857421875,-0.031024912372231483,0.05006595328450203,-0.022236740216612816
1696958475802552000,6.016552001953125,-0.023568280041217804,-0.0031956990715116262,0.007589785382151604
1696958475812565800,6.026565673828125,-0.034220609813928604,0.03302222490310669,-0.038215234875679016
1696958475822579200,6.0365791015625,-0.021437814459204674,0.01384802907705307,0.061916667968034744
1696958475832592600,6.046592529296875,-0.028894444927573204,-0.03834838792681694,-0.09893351793289185
1696958475842606000,6.056606201171875,-0.025698747485876083,0.06710968166589737,0.07150376588106155
1696958475852619500,6.06661962890625,-0.023568280041217804,-0.10545806586742401,-0.06484606117010117
1696958475862633200,6.07663330078125,-0.020372580736875534,0.02236989326775074,0.010785484686493874
1696958475872646700,6.086646728515625,-0.018242115154862404,-0.06284874677658081,-0.009453942999243736
1696958475882660000,6.09666015625,-0.024633513763546944,-0.02982652559876442,-0.038215234875679016
1696958475892673500,6.106673583984375,-0.010785484686493874,-0.05006595328450203,0.008655018173158169
1696958475902687000,6.11668701171875,-0.018242115154862404,-0.03515268862247467,-0.024367205798625946
1696958475912700700,6.12670068359375,-0.025698747485876083,-0.009587096981704235,-0.041410934180021286
1696958475922714000,6.136714111328125,-0.019307348877191544,0.0053261648863554,0.047003407031297684
1696958475932727600,6.1467275390625,-0.022503048181533813,-0.01917419396340847,-0.07975932210683823
1696958475942741000,6.156740966796875,-0.019307348877191544,0.02663082629442215,0.043807707726955414
1696958475952754400,6.16675439453125,-0.025698747485876083,-0.0106523297727108,-0.05312849581241608
1696958475962768100,6.17676806640625,-0.020372580736875534,0.04473978653550148,0.026763979345560074
1696958475972781600,6.186781494140625,-0.007589785382151604,-0.0319569893181324,-0.011584409512579441
1696958475982795500,6.19679541015625,-0.024633513763546944,0.00852186419069767,-0.010519175790250301
1696958475992809700,6.206809814453125,-0.013981183059513569,0.01810896210372448,0.0001331541279796511
1696958476002823200,6.2168232421875,-0.0011983871227130294,-0.0426093190908432,0.024633513763546944
1696958476012836600,6.226836669921875,-0.012915950268507004,-0.0159784946590662,-0.047802332788705826
1696958476022850300,6.236850341796875,-0.011850717477500439,-0.0053261648863554,0.03954677656292915
1696958476032863700,6.24686376953125,0.0009320789249613881,-0.0031956990715116262,-0.001997311832383275
1696958476042877200,6.256877197265625,-0.005459319334477186,-0.04900071769952774,-0.013714875094592571
1696958476052890600,6.266890625,-0.012915950268507004,0.03834838792681694,-0.007323476951569319
1696958476062904000,6.276904052734375,-0.006524552125483751,-0.0063913981430232525,0.028894444927573204
1696958476072917800,6.286917724609375,-0.00226362026296556,0.01384802907705307,-0.03928046673536301
1696958476082931200,6.29693115234375,-0.006524552125483751,0.004260932095348835,0.033155377954244614
1696958476092944600,6.306944580078125,-0.016111649572849274,0.04793548583984375,-0.044606633484363556
1696958476102958000,6.3169580078125,-0.005459319334477186,0.0639139786362648,0.037416309118270874
1696958476112971500,6.326971435546875,0.0030625448562204838,-0.04047885537147522,-0.022236740216612816
1696958476122985200,6.336985107421875,-0.012915950268507004,0.06817491352558136,-0.015845341607928276
1696958476132998700,6.34699853515625,0.0009320789249613881,0.0021304660476744175,0.037416309118270874
1696958476143012000,6.35701220703125,0.0030625448562204838,-0.01171756349503994,-0.047802332788705826
1696958476153025500,6.367025634765625,0.001997311832383275,-0.00852186419069767,0.047003407031297684
1696958476163039000,6.3770390625,-0.006524552125483751,-0.03834838792681694,-0.0723026916384697
1696958476173052400,6.387052490234375,0.012649642303586006,0.0010652330238372087,0.08535179495811462
1696958476183066000,6.397066162109375,0.0009320789249613881,-0.09054480493068695,-0.08508548885583878
1696958476193079600,6.40707958984375,-0.004394086077809334,0.03302222490310669,0.048068638890981674
1696958476203093000,6.417093017578125,0.006258244160562754,-0.07243584841489792,-0.012649642303586006
1696958476213106400,6.4271064453125,0.0030625448562204838,0.02769605815410614,-0.009453942999243736
1696958476223120000,6.437119873046875,-0.004394086077809334,-0.03408745676279068,-0.004127778112888336
1696958476233134000,6.447134033203125,-0.005459319334477186,0.02450035884976387,0.007589785382151604
1696958476243147000,6.45714697265625,-0.004394086077809334,0.04047885537147522,-0.016910573467612267
1696958476253160000,6.467159912109375,-0.0011983871227130294,0.0159784946590662,0.004394086077809334
1696958476263173000,6.477173095703125,-0.008655018173158169,0.0159784946590662,-0.011584409512579441
1696958476273186000,6.48718603515625,-0.0001331541279796511,0.04473978653550148,-0.006258244160562754
1696958476283199200,6.49719921875,-0.0033288532868027687,0.0319569893181324,0.006524552125483751
1696958476293212400,6.50721240234375,-0.00226362026296556,-0.0021304660476744175,-0.025432437658309937
1696958476303225600,6.5172255859375,-0.0033288532868027687,0.04154408723115921,0.0033288532868027687
1696958476313239000,6.527239013671875,0.007323476951569319,-0.0053261648863554,0.016111649572849274
1696958476323252500,6.53725244140625,0.005193010903894901,-0.10226237028837204,-0.040345702320337296
1696958476333266000,6.547265869140625,0.006258244160562754,0.01171756349503994,0.022503048181533813
1696958476343279600,6.557279541015625,0.017975807189941406,-0.02663082629442215,0.026763979345560074
1696958476353293300,6.567293212890625,0.007323476951569319,-0.06710968166589737,-0.05632419511675835
1696958476363307000,6.57730712890625,-0.00226362026296556,0.02023942768573761,0.0555252730846405
1696958476373320700,6.58732080078125,0.004127778112888336,-0.02450035884976387,-0.041410934180021286
1696958476383334400,6.59733447265625,0.005193010903894901,0.03089175745844841,0.024633513763546944
1696958476393348400,6.607348388671875,-0.0033288532868027687,-0.0319569893181324,-0.024367205798625946
1696958476403362000,6.617362060546875,-0.0011983871227130294,0.02023942768573761,0.017176883295178413
1696958476413376000,6.6273759765625,0.0030625448562204838,0.0053261648863554,-0.028628136962652206
1696958476423389700,6.6373896484375,-0.004394086077809334,0.04793548583984375,-0.005193010903894901
1696958476433403400,6.6474033203125,-0.00226362026296556,-0.02450035884976387,-0.004127778112888336
1696958476443416800,6.657416748046875,-0.0011983871227130294,0.02556559257209301,-0.026497671380639076
1696958476453430500,6.667430419921875,-0.0001331541279796511,0.06178351491689682,0.010785484686493874
1696958476463444000,6.67744384765625,0.001997311832383275,-0.03941362351179123,-0.041410934180021286
1696958476473457400,6.68745751953125,0.0030625448562204838,-0.0053261648863554,0.009720250964164734
1696958476483470800,6.697470947265625,0.009453942999243736,0.0053261648863554,-0.013714875094592571
1696958476493484300,6.707484375,0.0009320789249613881,-0.02876129187643528,-0.019041040912270546
1696958476503497700,6.717497802734375,0.006258244160562754,-0.02343512699007988,-0.004127778112888336
1696958476513511400,6.727511474609375,0.011584409512579441,-0.05006595328450203,0.020372580736875534
1696958476523524900,6.73752490234375,0.0009320789249613881,-0.0106523297727108,-0.06271559745073318
1696958476533538300,6.747538330078125,0.009453942999243736,-0.02663082629442215,0.06937330216169357
1696958476543551700,6.7575517578125,0.011584409512579441,-0.04047885537147522,-0.054193731397390366
1696958476553565200,6.767565185546875,0.005193010903894901,0.02663082629442215,0.033155377954244614
1696958476563579000,6.777578857421875,-0.0011983871227130294,-0.02236989326775074,-0.021171506494283676
1696958476573592300,6.78759228515625,0.009453942999243736,0.03302222490310669,0.018242115154862404
1696958476583605800,6.797605712890625,0.005193010903894901,0,-0.015845341607928276
1696958476593619200,6.807619140625,-0.0001331541279796511,0.02236989326775074,-0.010519175790250301
1696958476603632600,6.817632568359375,0.015845341607928276,-0.004260932095348835,0.029959678649902344
1696958476613646300,6.827646240234375,0.008388710208237171,0.012782796286046505,-0.052063263952732086
1696958476623659800,6.83765966796875,0.005193010903894901,0.02343512699007988,0.012915950268507004
1696958476633673200,6.847673095703125,0.013714875094592571,-0.04367455467581749,-0.017975807189941406
1696958476643686700,6.857686767578125,0.020106272771954536,0.02982652559876442,-0.005193010903894901
1696958476653700000,6.8677001953125,0.013714875094592571,-0.05858781561255455,-0.03288906812667847
1696958476663713800,6.8777138671875,0.016910573467612267,-0.01171756349503994,0.008655018173158169
1696958476673727200,6.887727294921875,0.023301972076296806,-0.03941362351179123,-0.013714875094592571
1696958476683740700,6.89774072265625,0.013714875094592571,0.0021304660476744175,-0.042476166039705276
1696958476693754000,6.907754150390625,0.016910573467612267,-0.02663082629442215,0.023568280041217804
1696958476703767600,6.917767578125,0.017975807189941406,0.0010652330238372087,-0.03288906812667847
1696958476713781200,6.92778125,0.013714875094592571,0.02663082629442215,-0.010519175790250301
1696958476723794700,6.937794677734375,0.008388710208237171,-0.01491326279938221,-0.014780107885599136
1696958476733809000,6.947808837890625,0.013714875094592571,0.02023942768573761,-0.001997311832383275
1696958476743821800,6.95782177734375,0.012649642303586006,0.01810896210372448,-0.014780107885599136
1696958476753835000,6.9678349609375,0.0009320789249613881,0.02769605815410614,-0.042476166039705276
1696958476763848200,6.97784814453125,0.008388710208237171,0.0010652330238372087,0.012915950268507004
1696958476773861400,6.987861328125,0.009453942999243736,0.05006595328450203,-0.042476166039705276
1696958476783874600,6.99787451171875,0.004127778112888336,-0.02023942768573761,-0.020106272771954536
1696958476793887700,7.0078876953125,0.007323476951569319,-0.01384802907705307,-0.027562905102968216
1696958476803901000,7.01790087890625,0.011584409512579441,0.004260932095348835,0.0001331541279796511
1696958476813914400,7.027914306640625,0.005193010903894901,-0.02982652559876442,-0.06271559745073318
1696958476823927800,7.037927734375,0.005193010903894901,-0.01917419396340847,0.011850717477500439
1696958476833941200,7.047941162109375,0.012649642303586006,-0.01704372838139534,-0.009453942999243736
1696958476843954700,7.05795458984375,0.004127778112888336,-0.01491326279938221,-0.027562905102968216
1696958476853968100,7.067968017578125,-0.0001331541279796511,-0.01704372838139534,0.009720250964164734
1696958476863981800,7.07798193359375,0.010519175790250301,-0.0213046595454216,0.018242115154862404
1696958476873995500,7.08799560546875,0.006258244160562754,-0.02876129187643528,-0.008388710208237171
1696958476884009200,7.09800927734375,-0.004394086077809334,-0.0053261648863554,0.006524552125483751
1696958476894023000,7.10802294921875,0.010519175790250301,-0.012782796286046505,0.03954677656292915
1696958476904036600,7.11803662109375,0.008388710208237171,-0.02343512699007988,-0.0030625448562204838
1696958476914050600,7.128050537109375,0.004127778112888336,-0.009587096981704235,0.009720250964164734
1696958476924064300,7.138064208984375,0.001997311832383275,-0.0063913981430232525,0.03528584539890289
1696958476934078000,7.148077880859375,0.008388710208237171,0.02023942768573761,-0.011584409512579441
1696958476944092000,7.158091796875,0.007323476951569319,-0.0159784946590662,0.031024912372231483
1696958476954105300,7.168105224609375,0.0009320789249613881,0.0063913981430232525,-0.026497671380639076
1696958476964119000,7.178119140625,0.011584409512579441,0.01171756349503994,0.04593817517161369
1696958476974132500,7.188132568359375,0.007323476951569319,-0.04473978653550148,-0.050998032093048096
1696958476984146700,7.198146728515625,0.006258244160562754,0.01810896210372448,0.028894444927573204
1696958476994159400,7.208159423828125,0.012649642303586006,-0.03834838792681694,-0.007323476951569319
1696958477004172300,7.21817236328125,0.012649642303586006,-0.03728315606713295,-0.017975807189941406
1696958477014185000,7.22818505859375,0.009453942999243736,-0.01384802907705307,-0.001997311832383275
1696958477024198000,7.238197998046875,0.008388710208237171,-0.0159784946590662,-0.007323476951569319
1696958477034210800,7.2482109375,0.013714875094592571,-0.03089175745844841,-0.004127778112888336
1696958477044224000,7.25822412109375,0.006258244160562754,-0.03515268862247467,-0.009453942999243736
1696958477054237200,7.2682373046875,-0.0001331541279796511,-0.0010652330238372087,-0.014780107885599136
1696958477064250400,7.27825048828125,0.009453942999243736,-0.012782796286046505,0.03528584539890289
1696958477074263800,7.288263916015625,0.0009320789249613881,-0.02556559257209301,-0.035019535571336746
1696958477084277200,7.29827734375,-0.010785484686493874,0.007456631399691105,0.018242115154862404
1696958477094291000,7.308291015625,-0.0011983871227130294,-0.02450035884976387,0.007589785382151604
1696958477104304600,7.3183046875,-0.0033288532868027687,0.012782796286046505,0.024633513763546944
1696958477114318300,7.328318359375,-0.016111649572849274,-0.01384802907705307,-0.012649642303586006
1696958477124332300,7.338332275390625,-0.017176883295178413,0.012782796286046505,0.037416309118270874
1696958477134346200,7.34834619140625,-0.010785484686493874,0.01810896210372448,0.017176883295178413
1696958477144360200,7.358360107421875,-0.015046416781842709,-0.02023942768573761,0.0033288532868027687
1696958477154374100,7.3683740234375,-0.027829213067889214,0.01917419396340847,0.040612008422613144
1696958477164388400,7.378388427734375,-0.019307348877191544,0.0063913981430232525,0.015046416781842709
1696958477174402300,7.38840234375,-0.015046416781842709,-0.0031956990715116262,0.03528584539890289
1696958477184416000,7.398416015625,-0.025698747485876083,-0.03302222490310669,0.007589785382151604
1696958477194429400,7.408429443359375,-0.022503048181533813,0.01917419396340847,0.044872939586639404
1696958477204443100,7.418443115234375,-0.015046416781842709,-0.03302222490310669,0.03209014609456062
1696958477214456600,7.42845654296875,-0.018242115154862404,-0.02236989326775074,0.006524552125483751
1696958477224470000,7.438469970703125,-0.022503048181533813,-0.02876129187643528,0.053394805639982224
1696958477234483500,7.4484833984375,-0.015046416781842709,-0.009587096981704235,0.022503048181533813
1696958477244497000,7.458496826171875,-0.016111649572849274,-0.03941362351179123,0.023568280041217804
1696958477254510300,7.46851025390625,-0.019307348877191544,-0.02023942768573761,0.040612008422613144
1696958477264524000,7.47852392578125,-0.018242115154862404,-0.02556559257209301,0.023568280041217804
1696958477274537500,7.488537353515625,-0.011850717477500439,0.0021304660476744175,0.03848154470324516
1696958477284551000,7.498551025390625,-0.015046416781842709,-0.04473978653550148,0.020372580736875534
1696958477294564400,7.508564453125,-0.018242115154862404,0.01171756349503994,0.028894444927573204
1696958477304577800,7.518577880859375,-0.013981183059513569,-0.01491326279938221,0.03848154470324516
1696958477314591500,7.528591552734375,-0.012915950268507004,0.00852186419069767,-0.0030625448562204838
1696958477324605000,7.53860498046875,-0.019307348877191544,0,0.057655736804008484
1696958477334618400,7.548618408203125,-0.017176883295178413,0.01810896210372448,-0.013714875094592571
1696958477344631800,7.5586318359375,-0.008655018173158169,0.05965305119752884,0.07896039634943008
1696958477354645200,7.568645263671875,-0.016111649572849274,-0.05645735189318657,-0.048867564648389816
1696958477364659000,7.578658935546875,-0.021437814459204674,0.11184946447610855,0.07150376588106155
1696958477374672400,7.58867236328125,-0.006524552125483751,-0.05432688444852829,-0.0009320789249613881
1696958477384685800,7.598685791015625,-0.008655018173158169,-0.0063913981430232525,-0.026497671380639076
1696958477394699300,7.60869921875,-0.015046416781842709,0.0532616525888443,0.051264338195323944
1696958477404712700,7.618712646484375,-0.0001331541279796511,-0.10439283400774002,-0.028628136962652206
1696958477414726400,7.628726318359375,-0.00226362026296556,0.02769605815410614,-0.005193010903894901
1696958477424739800,7.63873974609375,-0.0033288532868027687,-0.05965305119752884,0.004394086077809334
1696958477434753300,7.648753173828125,-0.0033288532868027687,-0.01917419396340847,-0.023301972076296806
1696958477444766700,7.6587666015625,0.001997311832383275,-0.02556559257209301,0.017176883295178413
1696958477454780200,7.6687802734375,-0.004394086077809334,-0.03089175745844841,-0.03288906812667847
1696958477464793900,7.6787939453125,-0.007589785382151604,-0.0021304660476744175,0.011850717477500439
1696958477474807300,7.688807373046875,-0.011850717477500439,0.0213046595454216,-0.020106272771954536
1696958477484820700,7.69882080078125,-0.0011983871227130294,-0.02556559257209301,0.021437814459204674
1696958477494834200,7.708834228515625,-0.017176883295178413,-0.01810896210372448,-0.057389430701732635
1696958477504848600,7.7188486328125,-0.016111649572849274,0.07882724702358246,0.06298190355300903
1696958477514861800,7.72886181640625,-0.006524552125483751,-0.10013190656900406,-0.029693370684981346
1696958477524875000,7.738875,-0.016111649572849274,0.04367455467581749,-0.016910573467612267
1696958477534888000,7.748887939453125,-0.019307348877191544,0.004260932095348835,0.061916667968034744
1696958477544901000,7.758901123046875,-0.015046416781842709,-0.02769605815410614,-0.0723026916384697
1696958477554914600,7.76891455078125,-0.015046416781842709,0.02236989326775074,0.07256899774074554
1696958477564927700,7.778927734375,-0.019307348877191544,-0.03089175745844841,-0.033954303711652756
1696958477574941200,7.788941162109375,-0.021437814459204674,0.0010652330238372087,0.0011983871227130294
1696958477584954400,7.798954345703125,-0.009720250964164734,-0.03621792420744896,0.03528584539890289
1696958477594967800,7.8089677734375,-0.016111649572849274,-0.03408745676279068,-0.017975807189941406
1696958477604981500,7.8189814453125,-0.018242115154862404,-0.01917419396340847,0.004394086077809334
1696958477614995000,7.828994873046875,-0.012915950268507004,-0.02556559257209301,0.036351077258586884
1696958477625008600,7.839008544921875,-0.011850717477500439,-0.04687025398015976,-0.021171506494283676
1696958477635022000,7.84902197265625,-0.021437814459204674,0.0213046595454216,0.021437814459204674
1696958477645035800,7.859035888671875,-0.013981183059513569,-0.05219641700387001,0.022503048181533813
1696958477655049500,7.869049560546875,-0.012915950268507004,0.01171756349503994,-0.009453942999243736
1696958477665063200,7.879063232421875,-0.009720250964164734,-0.04793548583984375,0.03848154470324516
1696958477675076900,7.889076904296875,-0.025698747485876083,0.009587096981704235,-0.033954303711652756
1696958477685090600,7.899090576171875,-0.004394086077809334,0.01491326279938221,0.05978620424866676
1696958477695104300,7.909104248046875,-0.012915950268507004,-0.06497921794652939,-0.05632419511675835
1696958477705118000,7.919117919921875,-0.013981183059513569,0.02769605815410614,0.031024912372231483
1696958477715131600,7.929131591796875,-0.010785484686493874,-0.04154408723115921,-0.015845341607928276
1696958477725145300,7.939145263671875,-0.004394086077809334,0.01917419396340847,0.0001331541279796511
1696958477735158800,7.94915869140625,-0.009720250964164734,-0.06284874677658081,-0.028628136962652206
1696958477745172200,7.959172119140625,-0.008655018173158169,0.0031956990715116262,0.004394086077809334
1696958477755186000,7.96918603515625,-0.005459319334477186,-0.02982652559876442,-0.027562905102968216
1696958477765199400,7.979199462890625,-0.006524552125483751,-0.012782796286046505,-0.030758604407310486
1696958477775212800,7.989212890625,-0.006524552125483751,-0.01491326279938221,0.00226362026296556
1696958477785226200,7.999226318359375,-0.005459319334477186,-0.01704372838139534,-0.041410934180021286
1696958477795239700,8.00923974609375,-0.0011983871227130294,0.0010652330238372087,-0.012649642303586006
1696958477805253400,8.01925341796875,-0.006524552125483751,-0.04687025398015976,-0.047802332788705826
1696958477815266800,8.029266845703125,-0.005459319334477186,0.02556559257209301,-0.020106272771954536
1696958477825280300,8.0392802734375,0.0009320789249613881,-0.04047885537147522,-0.015845341607928276
1696958477835293700,8.049293701171875,-0.006524552125483751,-0.0021304660476744175,-0.07869409024715424
1696958477845307100,8.05930712890625,-0.009720250964164734,-0.0031956990715116262,0.021437814459204674
1696958477855320800,8.06932080078125,-0.00226362026296556,-0.04473978653550148,-0.08615072071552277
1696958477865334300,8.079334228515625,-0.0033288532868027687,0.02769605815410614,-0.004127778112888336
1696958477875347700,8.08934765625,-0.0033288532868027687,-0.05752258375287056,-0.037150003015995026
1696958477885361200,8.099361083984375,-0.009720250964164734,0,-0.08188978582620621
1696958477895374600,8.10937451171875,-0.0001331541279796511,0.03302222490310669,0.025698747485876083
1696958477905388300,8.11938818359375,-0.00226362026296556,-0.07243584841489792,-0.08615072071552277
1696958477915401700,8.129401611328126,-0.016111649572849274,0.03302222490310669,-0.059519894421100616
1696958477925415200,8.139415283203125,0.0009320789249613881,0.01810896210372448,0.023568280041217804
1696958477935428600,8.1494287109375,-0.0033288532868027687,-0.09374050796031952,-0.09893351793289185
1696958477945442000,8.159442138671874,-0.010785484686493874,0.0106523297727108,-0.041410934180021286
1696958477955455500,8.16945556640625,-0.0033288532868027687,-0.0426093190908432,-0.009453942999243736
1696958477965469200,8.17946923828125,-0.0001331541279796511,-0.06710968166589737,-0.10745538026094437
1696958477975482600,8.189482666015625,-0.007589785382151604,0.01384802907705307,-0.008388710208237171
1696958477985496000,8.19949609375,0.011584409512579441,-0.10439283400774002,-0.07336792349815369
1696958477995509500,8.209509521484375,-0.018242115154862404,0.0852186381816864,-0.08615072071552277
1696958478005523000,8.21952294921875,-0.019307348877191544,0.07137060910463333,0.009720250964164734
1696958478015536600,8.22953662109375,-0.022503048181533813,-0.0031956990715116262,-0.12449911236763
1696958478025550000,8.239550048828125,-0.020372580736875534,0.13315412402153015,0.005459319334477186
1696958478035563500,8.2495634765625,-0.020372580736875534,0.03941362351179123,-0.052063263952732086
1696958478045577000,8.259576904296875,-0.024633513763546944,0.06178351491689682,-0.050998032093048096
1696958478055590400,8.26959033203125,-0.018242115154862404,0.00852186419069767,-0.013714875094592571
1696958478065604000,8.27960400390625,-0.012915950268507004,-0.0159784946590662,-0.004127778112888336
1696958478075617500,8.289617431640625,-0.026763979345560074,0.01704372838139534,-0.08934641629457474
1696958478085631000,8.299630859375,-0.021437814459204674,0.0063913981430232525,0.041677240282297134
1696958478095644400,8.30964453125,0.019041040912270546,-0.14167599380016327,0.008655018173158169
1696958478105657900,8.319657958984376,-0.00226362026296556,0.02023942768573761,-0.047802332788705826
1696958478115671600,8.329671630859375,-0.009720250964164734,0.03621792420744896,0.053394805639982224
1696958478125685000,8.33968505859375,0.009453942999243736,-0.11078423261642456,0.004394086077809334
1696958478135698400,8.349698486328125,0.015845341607928276,0.10119713842868805,0.025698747485876083
1696958478145711900,8.3597119140625,0.008388710208237171,-0.05113118514418602,0.050199106335639954
1696958478155725300,8.369725341796874,0.009453942999243736,0.01384802907705307,-0.019041040912270546
1696958478165739000,8.379739013671875,0.024367205798625946,0.0159784946590662,0.13435252010822296
1696958478175752400,8.38975244140625,0.016910573467612267,0.01704372838139534,-0.033954303711652756
1696958478185766000,8.399765869140625,0.011584409512579441,0.05113118514418602,0.11517832428216934
1696958478195779300,8.409779296875,0.019041040912270546,0.03089175745844841,0.034220609813928604
1696958478205792800,8.419792724609374,0.027562905102968216,0.04047885537147522,0.08002562820911407
1696958478215806500,8.429806396484375,0.010519175790250301,0.0010652330238372087,0.025698747485876083
1696958478225820000,8.43981982421875,0.005193010903894901,0.11930610239505768,0.08002562820911407
1696958478235833300,8.449833251953125,0.023301972076296806,-0.0063913981430232525,0.10026505589485168
1696958478245846800,8.4598466796875,0.013714875094592571,-0.009587096981704235,-0.024367205798625946
1696958478255860200,8.469860107421875,0.010519175790250301,0.09267527610063553,0.14287437498569489
1696958478265874000,8.4798740234375,0.015845341607928276,-0.06178351491689682,0.006524552125483751
1696958478275887400,8.489887451171874,0.023301972076296806,-0.02450035884976387,0.0778951644897461
1696958478285900800,8.49990087890625,0.012649642303586006,-0.01491326279938221,0.031024912372231483
1696958478295914200,8.509914306640624,0.015845341607928276,-0.0159784946590662,0.07043853402137756
1696958478305927700,8.519927734375,0.017975807189941406,-0.04473978653550148,0.048068638890981674
1696958478315941000,8.529941162109376,0.009453942999243736,-0.02236989326775074,0.031024912372231483
1696958478325954800,8.539954833984375,0.004127778112888336,0.0532616525888443,0.07043853402137756
1696958478335968300,8.54996826171875,0.010519175790250301,-0.05219641700387001,0.040612008422613144
1696958478345981700,8.559981689453124,0.007323476951569319,0.06178351491689682,0.022503048181533813
1696958478355995100,8.5699951171875,0.010519175790250301,-0.01171756349503994,0.08109086751937866
1696958478366008600,8.580008544921874,0.012649642303586006,-0.02023942768573761,0.006524552125483751
1696958478376022300,8.590022216796875,0.016910573467612267,0.04047885537147522,0.08109086751937866
1696958478386035700,8.60003564453125,0.017975807189941406,-0.01704372838139534,0.0001331541279796511
1696958478396049200,8.610049072265625,0.019041040912270546,0.01384802907705307,0.06830807030200958
1696958478406062600,8.6200625,0.024367205798625946,-0.01491326279938221,0.041677240282297134
1696958478416076000,8.630075927734374,0.029693370684981346,-0.02023942768573761,0.015046416781842709
1696958478426089700,8.64008984375,0.028628136962652206,-0.01491326279938221,0.06511236727237701
1696958478436103200,8.650103271484374,0.03928046673536301,-0.04367455467581749,0.03954677656292915
1696958478446116600,8.66011669921875,0.041410934180021286,-0.03408745676279068,0.03209014609456062
1696958478456130000,8.670130126953126,0.03608476743102074,-0.00852186419069767,0.043807707726955414
1696958478466143500,8.6801435546875,0.042476166039705276,-0.07137060910463333,0.048068638890981674
1696958478476157200,8.6901572265625,0.048867564648389816,0.0159784946590662,0.05232957378029823
1696958478486170600,8.700170654296874,0.047802332788705826,-0.04367455467581749,0.041677240282297134
1696958478496184000,8.71018408203125,0.042476166039705276,-0.08202294260263443,0.050199106335639954
1696958478506197500,8.720197509765624,0.05632419511675835,0.01917419396340847,0.0874822586774826
1696958478516211000,8.7302109375,0.060585130006074905,-0.08947957307100296,0.03954677656292915
1696958478526224600,8.740224609375,0.04673709720373154,-0.02982652559876442,0.05978620424866676
1696958478536238000,8.750238037109375,0.060585130006074905,-0.0106523297727108,0.11304785311222076
1696958478546251500,8.76025146484375,0.06910699605941772,0.02450035884976387,0.047003407031297684
1696958478556265000,8.770264892578124,0.06378082931041718,0.03941362351179123,0.061916667968034744
1696958478566278400,8.7802783203125,0.06378082931041718,0.0958709716796875,0.12689588963985443
1696958478576292000,8.7902919921875,0.06910699605941772,-0.02236989326775074,0.017176883295178413
1696958478586305500,8.800305419921875,0.057389430701732635,0.10332760214805603,0.08002562820911407
1696958478596319000,8.810319091796876,0.048867564648389816,0.08947957307100296,0.058720968663692474
1696958478606332400,8.82033251953125,0.055258963257074356,0.05006595328450203,0.013981183059513569
1696958478616346000,8.83034619140625,0.08188978582620621,-0.10119713842868805,0.058720968663692474
1696958478626359600,8.840359619140624,0.061650361865758896,-0.06178351491689682,-0.023301972076296806
1696958478636373000,8.850373046875,0.04993279650807381,0.0639139786362648,0.07363422960042953
1696958478646386700,8.86038671875,0.06484606117010117,-0.0159784946590662,0.023568280041217804
1696958478656400100,8.870400146484375,0.047802332788705826,-0.05006595328450203,-0.038215234875679016
1696958478666413800,8.880413818359376,0.035019535571336746,0.05752258375287056,-0.009453942999243736
1696958478676427300,8.89042724609375,0.04673709720373154,0.05113118514418602,0.036351077258586884
1696958478686440700,8.900440673828125,0.041410934180021286,-0.01704372838139534,-0.06378082931041718
1696958478696454400,8.910454345703124,0.030758604407310486,0.06178351491689682,-0.016910573467612267
1696958478706467800,8.9204677734375,0.033954303711652756,0.06604444980621338,-0.026497671380639076
1696958478716481500,8.9304814453125,0.04673709720373154,0.06604444980621338,-0.028628136962652206
1696958478726495000,8.940494873046875,0.038215234875679016,0.0031956990715116262,-0.10106398165225983
1696958478736508400,8.95050830078125,0.03288906812667847,0.0745663121342659,-0.027562905102968216
1696958478746522000,8.960522216796875,0.04673709720373154,0.02450035884976387,-0.06697652488946915
1696958478756535600,8.97053564453125,0.052063263952732086,0.03302222490310669,-0.05312849581241608
1696958478766549200,8.98054931640625,0.05312849581241608,-0.03621792420744896,-0.0925421193242073
1696958478776562700,8.990562744140625,0.052063263952732086,0.04793548583984375,-0.055258963257074356
1696958478786576100,9.000576171875,0.06591129302978516,-0.00852186419069767,-0.03608476743102074
1696958478796589800,9.01058984375,0.06271559745073318,-0.05858781561255455,-0.11597724258899689
1696958478806603300,9.020603271484376,0.061650361865758896,-0.0053261648863554,-0.023301972076296806
1696958478816617000,9.030616943359375,0.0723026916384697,-0.03941362351179123,-0.054193731397390366
1696958478826630400,9.04063037109375,0.07017222791910172,-0.02023942768573761,-0.07549838721752167
1696958478836643800,9.050643798828125,0.06271559745073318,-0.02876129187643528,-0.054193731397390366
1696958478846657500,9.060657470703125,0.06484606117010117,0.02663082629442215,-0.050998032093048096
1696958478856671000,9.0706708984375,0.07336792349815369,-0.04580501839518547,-0.020106272771954536
1696958478866684700,9.0806845703125,0.06271559745073318,0.0063913981430232525,-0.09147688746452332
1696958478876698000,9.090697998046876,0.058454662561416626,0.04900071769952774,0.019307348877191544
1696958478886711600,9.100711669921875,0.06271559745073318,-0.0021304660476744175,-0.07336792349815369
1696958478896725200,9.110725341796876,0.06804175674915314,0.0319569893181324,0.021437814459204674
1696958478906738700,9.12073876953125,0.04993279650807381,0.009587096981704235,-0.07443315535783768
1696958478916752400,9.13075244140625,0.060585130006074905,0.06817491352558136,0.051264338195323944
1696958478926765800,9.140765869140624,0.061650361865758896,-0.02663082629442215,-0.048867564648389816
1696958478936779300,9.150779296875,0.055258963257074356,0.05006595328450203,0.023568280041217804
1696958478946792700,9.160792724609376,0.05632419511675835,-0.0106523297727108,0.011850717477500439
1696958478956806100,9.17080615234375,0.05632419511675835,0.01704372838139534,-0.014780107885599136
1696958478966819800,9.18081982421875,0.06271559745073318,0.00852186419069767,0.041677240282297134
1696958478976833300,9.190833251953125,0.050998032093048096,-0.07669677585363388,-0.026497671380639076
1696958478986846700,9.2008466796875,0.058454662561416626,0.02023942768573761,0.050199106335639954
1696958478996860200,9.210860107421874,0.05632419511675835,-0.007456631399691105,0.011850717477500439
1696958479006873600,9.22087353515625,0.050998032093048096,-0.01491326279938221,0.0011983871227130294
1696958479016887300,9.23088720703125,0.042476166039705276,-0.004260932095348835,0.027829213067889214
1696958479026900700,9.240900634765625,0.054193731397390366,0.05752258375287056,0.018242115154862404
1696958479036914200,9.2509140625,0.048867564648389816,-0.04047885537147522,0.008655018173158169
1696958479046927600,9.260927734375,0.037150003015995026,0.02023942768573761,0.008655018173158169
1696958479056941000,9.270941162109375,0.03928046673536301,0.02982652559876442,0.03528584539890289
1696958479066954800,9.280954833984374,0.047802332788705826,0.02876129187643528,-0.009453942999243736
1696958479076968200,9.29096826171875,0.033954303711652756,-0.02556559257209301,0.026763979345560074
1696958479086981600,9.300981689453126,0.030758604407310486,0.0426093190908432,-0.014780107885599136
1696958479096995000,9.3109951171875,0.042476166039705276,0.05965305119752884,0.061916667968034744
1696958479107008500,9.321008544921876,0.03288906812667847,-0.04580501839518547,-0.042476166039705276
1696958479117022000,9.33102197265625,0.027562905102968216,0.08415340632200241,0.04274247586727142
1696958479127035600,9.34103564453125,0.035019535571336746,0.02556559257209301,0.006524552125483751
1696958479137049000,9.351049072265624,0.03608476743102074,0.0106523297727108,-0.0009320789249613881
1696958479147062500,9.3610625,0.024367205798625946,-0.0021304660476744175,0.008655018173158169
1696958479157076000,9.371075927734376,0.030758604407310486,0.07243584841489792,0.023568280041217804
1696958479167089400,9.38108935546875,0.044606633484363556,-0.03408745676279068,0.023568280041217804
1696958479177103000,9.39110302734375,0.024367205798625946,0.009587096981704235,-0.043541401624679565
1696958479187116500,9.401116455078125,0.03288906812667847,0.03302222490310669,0.07363422960042953
1696958479197130000,9.4111298828125,0.043541401624679565,-0.05432688444852829,-0.021171506494283676
1696958479207143400,9.421143310546874,0.035019535571336746,0.009587096981704235,0.008655018173158169
1696958479217156900,9.431156982421875,0.029693370684981346,-0.0213046595454216,0.009720250964164734
1696958479227170600,9.441170654296876,0.035019535571336746,0.01917419396340847,-0.010519175790250301
1696958479237184000,9.45118408203125,0.041410934180021286,-0.0159784946590662,0.051264338195323944
1696958479247197400,9.461197509765626,0.027562905102968216,-0.03408745676279068,-0.06271559745073318
1696958479257211000,9.4712109375,0.035019535571336746,0.03621792420744896,0.05978620424866676
1696958479267224300,9.481224365234375,0.033954303711652756,-0.0213046595454216,0.0011983871227130294
1696958479277238000,9.491238037109374,0.026497671380639076,-0.01810896210372448,-0.037150003015995026
1696958479287251500,9.50125146484375,0.026497671380639076,0.01704372838139534,0.050199106335639954
1696958479297265000,9.511264892578126,0.037150003015995026,-0.02343512699007988,-0.001997311832383275
1696958479307278300,9.5212783203125,0.023301972076296806,-0.0532616525888443,0.0011983871227130294
1696958479317291800,9.531291748046876,0.020106272771954536,0.007456631399691105,0.016111649572849274
1696958479327305500,9.541305419921875,0.03928046673536301,-0.03621792420744896,0.061916667968034744
1696958479337319000,9.55131884765625,0.016910573467612267,-0.0106523297727108,-0.057389430701732635
1696958479347332400,9.561332275390624,0.013714875094592571,0.0213046595454216,0.06937330216169357
1696958479357345800,9.571345703125,0.027562905102968216,-0.03089175745844841,0.011850717477500439
1696958479367359200,9.581359130859376,0.015845341607928276,0.04580501839518547,-0.0030625448562204838
1696958479377373000,9.591373046875,0.009453942999243736,-0.02343512699007988,0.033155377954244614
1696958479387386400,9.601386474609376,0.022236740216612816,0.0021304660476744175,0.034220609813928604
1696958479397399800,9.61139990234375,0.008388710208237171,0.03728315606713295,-0.017975807189941406
1696958479407413200,9.621413330078125,0.011584409512579441,-0.02023942768573761,0.051264338195323944
1696958479417426700,9.6314267578125,0.015845341607928276,-0.01384802907705307,0.0033288532868027687
1696958479427440000,9.641440185546875,0.005193010903894901,0.01171756349503994,0.011850717477500439
1696958479437453800,9.651453857421876,0.016910573467612267,-0.05113118514418602,0.008655018173158169
1696958479447467300,9.66146728515625,0.011584409512579441,-0.00852186419069767,0.031024912372231483
1696958479457480700,9.671480712890625,0.001997311832383275,-0.0159784946590662,-0.03928046673536301
1696958479467494100,9.681494140625,0.012649642303586006,0.007456631399691105,0.061916667968034744
1696958479477507600,9.691507568359375,0.005193010903894901,-0.02023942768573761,-0.03288906812667847
1696958479487521300,9.701521240234374,-0.0011983871227130294,0.012782796286046505,0.006524552125483751
1696958479497534700,9.71153466796875,0.006258244160562754,-0.0031956990715116262,0.019307348877191544
1696958479507548200,9.721548095703126,-0.0033288532868027687,0.0021304660476744175,-0.029693370684981346
1696958479517561600,9.7315615234375,-0.00226362026296556,0.03834838792681694,0.018242115154862404
1696958479527575000,9.741574951171875,-0.008655018173158169,-0.03089175745844841,0.010785484686493874
1696958479537588700,9.751588623046874,-0.0001331541279796511,0.04580501839518547,-0.007323476951569319
1696958479547602200,9.761602294921875,-0.010785484686493874,0.01491326279938221,0.017176883295178413
1696958479557615600,9.77161572265625,-0.004394086077809334,0,0.009720250964164734
1696958479567629000,9.781629150390625,-0.012915950268507004,0.0159784946590662,0.006524552125483751
1696958479577642500,9.791642578125,-0.005459319334477186,0.01171756349503994,0.013981183059513569
1696958479587656200,9.80165625,-0.0033288532868027687,-0.02663082629442215,0.03954677656292915
1696958479597669600,9.811669677734375,-0.011850717477500439,-0.0159784946590662,-0.026497671380639076
1696958479607683000,9.82168310546875,0.0009320789249613881,0.0021304660476744175,0.066177599132061
1696958479617696500,9.831696533203125,-0.007589785382151604,-0.03941362351179123,-0.004127778112888336
1696958479627710000,9.8417099609375,0.001997311832383275,-0.009587096981704235,0.028894444927573204
1696958479637723600,9.8517236328125,-0.010785484686493874,-0.0426093190908432,0.024633513763546944
1696958479647737000,9.861737060546876,-0.0011983871227130294,0.02450035884976387,0.018242115154862404
1696958479657750500,9.87175048828125,-0.006524552125483751,-0.04793548583984375,0.025698747485876083
1696958479667764000,9.881763916015625,-0.006524552125483751,-0.0010652330238372087,-0.004127778112888336
1696958479677777400,9.89177734375,-0.011850717477500439,0.0213046595454216,0.044872939586639404
1696958479687791000,9.901791015625,-0.004394086077809334,-0.05006595328450203,-0.023301972076296806
1696958479697804500,9.911804443359374,-0.011850717477500439,0.08628387749195099,0.040612008422613144
1696958479707818000,9.92181787109375,-0.008655018173158169,-0.02876129187643528,0.018242115154862404
1696958479717831400,9.93183154296875,-0.013981183059513569,0.02236989326775074,-0.010519175790250301
1696958479727844900,9.941844970703125,-0.016111649572849274,0.0532616525888443,0.03848154470324516
1696958479737858300,9.9518583984375,-0.011850717477500439,0.06604444980621338,-0.015845341607928276
1696958479747872000,9.9618720703125,-0.019307348877191544,0.03834838792681694,0.057655736804008484
1696958479757885400,9.971885498046875,-0.012915950268507004,-0.0053261648863554,-0.026497671380639076
1696958479767899000,9.98189892578125,-0.019307348877191544,0.07030537724494934,0.053394805639982224
1696958479777912300,9.991912353515625,-0.009720250964164734,0.012782796286046505,-0.012649642303586006
1696958479787925800,10.00192578125,-0.022503048181533813,0.0031956990715116262,0.04274247586727142
1696958479797939500,10.011939453125,-0.013981183059513569,-0.004260932095348835,-0.024367205798625946
1696958479807953000,10.021952880859375,-0.018242115154862404,0.04580501839518547,0.034220609813928604
1696958479817966300,10.03196630859375,-0.013981183059513569,-0.0159784946590662,-0.008388710208237171
1696958479827979800,10.041979736328125,-0.025698747485876083,0.009587096981704235,0.0033288532868027687
1696958479837993200,10.0519931640625,-0.019307348877191544,0.012782796286046505,-0.010519175790250301
1696958479848007000,10.0620068359375,-0.018242115154862404,0.02450035884976387,0.018242115154862404
1696958479858020400,10.072020263671876,-0.021437814459204674,-0.01810896210372448,-0.040345702320337296
1696958479868033800,10.08203369140625,-0.019307348877191544,-0.012782796286046505,0.03209014609456062
1696958479878047200,10.092047119140625,-0.021437814459204674,-0.0426093190908432,-0.048867564648389816
1696958479888060700,10.102060791015624,-0.012915950268507004,0.03728315606713295,0.033155377954244614
1696958479898074400,10.112074462890625,-0.023568280041217804,-0.07669677585363388,-0.052063263952732086
1696958479908087800,10.122087890625,-0.019307348877191544,0.01171756349503994,0.033155377954244614
1696958479918101200,10.132101318359375,-0.018242115154862404,-0.03728315606713295,-0.030758604407310486
1696958479928115000,10.142114990234376,-0.019307348877191544,0.04793548583984375,0.0033288532868027687
1696958479938128400,10.15212841796875,-0.023568280041217804,-0.00852186419069767,0.006524552125483751
1696958479948141800,10.162141845703125,-0.021437814459204674,0.004260932095348835,-0.026497671380639076
1696958479958155500,10.172155517578124,-0.020372580736875534,0.04473978653550148,0.028894444927573204
1696958479968169000,10.1821689453125,-0.015046416781842709,0.0031956990715116262,0.0011983871227130294
1696958479978182700,10.1921826171875,-0.023568280041217804,-0.0021304660476744175,0.00226362026296556
1696958479988196000,10.202196044921875,-0.012915950268507004,0.0010652330238372087,-0.004127778112888336
1696958479998209500,10.21220947265625,-0.013981183059513569,0.0426093190908432,0.034220609813928604
1696958480008223200,10.22222314453125,-0.007589785382151604,-0.0745663121342659,-0.015845341607928276
1696958480018236700,10.232236572265625,-0.013981183059513569,0.05113118514418602,0.024633513763546944
1696958480028250400,10.24225048828125,-0.004394086077809334,-0.04900071769952774,0.016111649572849274
1696958480038263800,10.252263916015625,-0.017176883295178413,0.007456631399691105,-0.019041040912270546
1696958480048277200,10.26227734375,-0.007589785382151604,-0.01917419396340847,0.04593817517161369
1696958480058291000,10.272291015625,-0.012915950268507004,0.00852186419069767,-0.026497671380639076
1696958480068304400,10.282304443359376,-0.007589785382151604,-0.01491326279938221,0.010785484686493874
1696958480078318000,10.292318115234375,-0.015046416781842709,0.0053261648863554,0.00226362026296556
1696958480088331500,10.30233154296875,-0.005459319334477186,-0.02236989326775074,0.005459319334477186
1696958480098345000,10.312344970703125,-0.016111649572849274,0.04900071769952774,-0.024367205798625946
1696958480108358700,10.322358642578125,-0.009720250964164734,-0.01810896210372448,0.029959678649902344
1696958480118372000,10.3323720703125,-0.011850717477500439,-0.02343512699007988,-0.054193731397390366
1696958480128385800,10.3423857421875,-0.009720250964164734,0.03834838792681694,0.024633513763546944
1696958480138399200,10.352399169921876,-0.009720250964164734,-0.05006595328450203,-0.04993279650807381
1696958480148412700,10.36241259765625,-0.010785484686493874,-0.01171756349503994,0.021437814459204674
1696958480158426400,10.37242626953125,-0.018242115154862404,0.00852186419069767,-0.060585130006074905
1696958480168439800,10.382439697265625,-0.007589785382151604,0.004260932095348835,0.031024912372231483
1696958480178453200,10.392453369140625,-0.015046416781842709,-0.03408745676279068,-0.06484606117010117
1696958480188467000,10.402467041015624,-0.020372580736875534,0.0159784946590662,0.005459319334477186
1696958480198480400,10.41248046875,-0.011850717477500439,-0.007456631399691105,-0.040345702320337296
1696958480208494000,10.422494140625,-0.013981183059513569,0.00852186419069767,0.010785484686493874
1696958480218507500,10.432507568359375,-0.018242115154862404,-0.012782796286046505,-0.047802332788705826
1696958480228521000,10.44252099609375,-0.015046416781842709,0.03728315606713295,0.012915950268507004
1696958480238534700,10.45253466796875,-0.015046416781842709,0.0063913981430232525,-0.059519894421100616
1696958480248548000,10.462548095703125,-0.013981183059513569,0.0021304660476744175,0.028894444927573204
1696958480258561800,10.472561767578124,-0.015046416781842709,0.0106523297727108,-0.07656362652778625
1696958480268575200,10.4825751953125,-0.016111649572849274,0.03302222490310669,0.008655018173158169
1696958480278588700,10.492588623046874,-0.010785484686493874,0.009587096981704235,-0.031823836266994476
1696958480288602400,10.502602294921875,-0.012915950268507004,-0.01917419396340847,-0.017975807189941406
1696958480298615800,10.51261572265625,-0.011850717477500439,0.02556559257209301,-0.030758604407310486
1696958480308629200,10.522629150390625,-0.007589785382151604,-0.01171756349503994,0.007589785382151604
1696958480318642700,10.532642578125,-0.010785484686493874,-0.01491326279938221,-0.06271559745073318
1696958480328656400,10.542656494140624,-0.009720250964164734,0.02663082629442215,0.037416309118270874
1696958480338669800,10.552669921875,-0.004394086077809334,-0.03621792420744896,-0.04993279650807381
1696958480348683300,10.562683349609374,-0.008655018173158169,0.007456631399691105,0.023568280041217804
1696958480358696700,10.57269677734375,-0.005459319334477186,-0.007456631399691105,-0.009453942999243736
1696958480368710100,10.582710205078126,-0.009720250964164734,-0.00852186419069767,0.012915950268507004
1696958480378723800,10.592723876953125,-0.0033288532868027687,0.009587096981704235,-0.0009320789249613881
1696958480388737300,10.6027373046875,-0.012915950268507004,0.0010652330238372087,0.022503048181533813
1696958480398750700,10.612750732421874,-0.007589785382151604,-0.02236989326775074,-0.013714875094592571
1696958480408764200,10.62276416015625,-0.007589785382151604,0.004260932095348835,0.04274247586727142
1696958480418777600,10.632777587890626,-0.004394086077809334,-0.02982652559876442,-0.005193010903894901
1696958480428791300,10.642791259765625,-0.016111649572849274,0.05219641700387001,0.034220609813928604
1696958480438804700,10.6528046875,-0.006524552125483751,-0.04687025398015976,0.019307348877191544
1696958480448818200,10.662818115234375,-0.013981183059513569,0.07669677585363388,-0.006258244160562754
1696958480458831600,10.67283154296875,-0.004394086077809334,0.0031956990715116262,0.0555252730846405
1696958480468845000,10.682844970703124,-0.016111649572849274,0.05645735189318657,-0.03608476743102074
1696958480478858800,10.692858642578125,-0.0033288532868027687,0.0319569893181324,0.06830807030200958
1696958480488872200,10.7028720703125,-0.010785484686493874,0.03408745676279068,-0.055258963257074356
1696958480498885600,10.7128857421875,0.0009320789249613881,0.05113118514418602,0.06937330216169357
1696958480508899000,10.722899169921876,-0.007589785382151604,-0.0159784946590662,-0.041410934180021286
1696958480518912500,10.73291259765625,-0.0001331541279796511,0.04154408723115921,0.00226362026296556
1696958480528926200,10.74292626953125,-0.00226362026296556,0.01704372838139534,0.012915950268507004
1696958480538939600,10.752939697265624,0.001997311832383275,-0.0053261648863554,-0.019041040912270546
1696958480548953000,10.762953125,-0.0001331541279796511,0.0159784946590662,0.010785484686493874
1696958480558966500,10.772966552734376,-0.00226362026296556,0.0319569893181324,-0.007323476951569319
1696958480568980000,10.78297998046875,0.0030625448562204838,0.0159784946590662,0.0001331541279796511
1696958480578993400,10.792993408203126,0.0009320789249613881,-0.02023942768573761,0.0011983871227130294
1696958480589007000,10.803007080078125,-0.0001331541279796511,0.02982652559876442,-0.026497671380639076
1696958480599020500,10.8130205078125,-0.0001331541279796511,0.00852186419069767,0.019307348877191544
1696958480609034000,10.823033935546874,0.005193010903894901,0.00852186419069767,-0.041410934180021286
1696958480619047400,10.83304736328125,0.0009320789249613881,0.0021304660476744175,0.025698747485876083
1696958480629060900,10.843060791015626,0.004127778112888336,0.012782796286046505,-0.058454662561416626
1696958480639074600,10.853074462890625,0.006258244160562754,-0.0031956990715116262,0.04274247586727142
1696958480649088000,10.863087890625,0.0009320789249613881,-0.004260932095348835,-0.07762885838747025
1696958480659101400,10.873101318359375,0.008388710208237171,0.05432688444852829,0.047003407031297684
1696958480669115000,10.883114990234375,0.007323476951569319,-0.05539211630821228,-0.054193731397390366
1696958480679128300,10.89312841796875,0.011584409512579441,0.04473978653550148,0.007589785382151604
1696958480689142000,10.90314208984375,0.009453942999243736,-0.03408745676279068,-0.017975807189941406
1696958480699155500,10.913155517578126,0.017975807189941406,0.012782796286046505,-0.011584409512579441
1696958480709169000,10.9231689453125,0.012649642303586006,-0.02343512699007988,0.005459319334477186
1696958480719182300,10.933182373046876,0.020106272771954536,-0.0213046595454216,-0.013714875094592571
1696958480729195800,10.94319580078125,0.021171506494283676,-0.0031956990715116262,0.013981183059513569
1696958480739209500,10.95320947265625,0.013714875094592571,-0.0319569893181324,-0.024367205798625946
1696958480749223000,10.963222900390624,0.025432437658309937,0.0031956990715116262,0.036351077258586884
1696958480759236400,10.973236328125,0.017975807189941406,-0.02982652559876442,-0.004127778112888336
1696958480769249800,10.983249755859376,0.019041040912270546,0.01917419396340847,-0.006258244160562754
1696958480779263200,10.99326318359375,0.028628136962652206,-0.02876129187643528,0.07256899774074554
1696958480789277000,11.00327685546875,0.010519175790250301,0,-0.06804175674915314
1696958480799290400,11.013290283203125,0.026497671380639076,0.05965305119752884,0.09174319356679916
1696958480809303800,11.0233037109375,0.025432437658309937,-0.06710968166589737,0.00226362026296556
1696958480819317200,11.033317138671874,0.009453942999243736,0.07350108027458191,-0.026497671380639076
1696958480829330700,11.04333056640625,0.030758604407310486,0.00852186419069767,0.10985215753316879
1696958480839344400,11.053344482421876,0.013714875094592571,-0.0106523297727108,-0.08402025699615479
1696958480849357800,11.06335791015625,0.016910573467612267,0.1065233051776886,0.06937330216169357
1696958480859371300,11.073371337890626,0.025432437658309937,-0.05539211630821228,0.013981183059513569
1696958480869384700,11.083384765625,0.010519175790250301,0.09054480493068695,-0.059519894421100616
1696958480879398100,11.093398193359375,0.029693370684981346,0.0063913981430232525,0.08961272984743118
1696958480889411600,11.10341162109375,0.016910573467612267,0.007456631399691105,-0.08082455396652222
1696958480899425300,11.11342529296875,0.014780107885599136,0.08202294260263443,0.024633513763546944
1696958480909438700,11.123438720703126,0.026497671380639076,-0.009587096981704235,0.006524552125483751
1696958480919452200,11.1334521484375,0.012649642303586006,0.07137060910463333,-0.04673709720373154
1696958480929465600,11.143465576171875,0.013714875094592571,0.06710968166589737,0.005459319334477186
1696958480939479000,11.15347900390625,0.030758604407310486,-0.009587096981704235,0.013981183059513569
1696958480949492700,11.16349267578125,0.010519175790250301,0.06284874677658081,-0.07017222791910172
1696958480959506200,11.173506103515624,0.015845341607928276,0.05858781561255455,0.03528584539890289
1696958480969519600,11.18351953125,0.029693370684981346,-0.04687025398015976,-0.009453942999243736
1696958480979533300,11.193533203125,0.014780107885599136,0.04580501839518547,-0.057389430701732635
1696958480989546800,11.203546630859375,0.016910573467612267,0.02343512699007988,0.036351077258586884
1696958480999560200,11.213560302734376,0.028628136962652206,-0.02663082629442215,-0.027562905102968216
1696958481009574000,11.223573974609375,0.021171506494283676,0.009587096981704235,-0.017975807189941406
1696958481019587300,11.23358740234375,0.014780107885599136,0.0213046595454216,-0.011584409512579441
1696958481029601000,11.24360107421875,0.028628136962652206,-0.01384802907705307,0.012915950268507004
1696958481039614500,11.253614501953125,0.016910573467612267,0.03621792420744896,-0.03928046673536301
1696958481049628000,11.2636279296875,0.015845341607928276,0.0159784946590662,0.011850717477500439
1696958481059641600,11.2736416015625,0.026497671380639076,0.01704372838139534,0.007589785382151604
1696958481069655000,11.283655029296876,0.019041040912270546,0.04900071769952774,-0.010519175790250301
1696958481079668700,11.293668701171875,0.012649642303586006,0.0159784946590662,0.0011983871227130294
1696958481089682200,11.30368212890625,0.028628136962652206,0.01384802907705307,0.034220609813928604
1696958481099695600,11.313695556640624,0.025432437658309937,0.012782796286046505,0.006524552125483751
1696958481109709300,11.323709228515625,0.010519175790250301,0.02450035884976387,0.0033288532868027687
1696958481119722800,11.33372265625,0.026497671380639076,0.0213046595454216,0.066177599132061
1696958481129736400,11.343736328125,0.027562905102968216,-0.02023942768573761,0.0011983871227130294
1696958481139750000,11.35375,0.016910573467612267,0.0213046595454216,0.021437814459204674
1696958481149763300,11.363763427734375,0.017975807189941406,0.0021304660476744175,0.06404713541269302
1696958481159777000,11.373777099609375,0.023301972076296806,0.01171756349503994,0.012915950268507004
1696958481169790500,11.38379052734375,0.020106272771954536,0.01917419396340847,0.057655736804008484
1696958481179804200,11.39380419921875,0.009453942999243736,-0.01171756349503994,0.00226362026296556
1696958481189817600,11.403817626953124,0.019041040912270546,0.05858781561255455,0.06404713541269302
1696958481199831000,11.4138310546875,0.020106272771954536,-0.03089175745844841,0.018242115154862404
1696958481209844700,11.4238447265625,0.006258244160562754,0.04687025398015976,-0.0009320789249613881
1696958481219858200,11.433858154296875,0.019041040912270546,0.0031956990715116262,0.07363422960042953
1696958481229871900,11.443871826171875,0.014780107885599136,0.01704372838139534,-0.03288906812667847
1696958481239885300,11.45388525390625,0.017975807189941406,-0.009587096981704235,0.036351077258586884
1696958481249898800,11.463898681640625,0.014780107885599136,0.0021304660476744175,-0.009453942999243736
1696958481259912400,11.473912353515624,0.022236740216612816,0.01917419396340847,0.034220609813928604
1696958481269926000,11.48392578125,0.019041040912270546,-0.03302222490310669,-0.031823836266994476
1696958481279939600,11.493939697265626,0.016910573467612267,0.012782796286046505,0.03528584539890289
1696958481289953000,11.503953125,0.020106272771954536,-0.0053261648863554,-0.008388710208237171
1696958481299966500,11.513966552734376,0.023301972076296806,-0.0021304660476744175,0.008655018173158169
1696958481309980200,11.523980224609375,0.015845341607928276,-0.01171756349503994,-0.0030625448562204838
1696958481319993600,11.53399365234375,0.017975807189941406,0.04687025398015976,0.0033288532868027687
1696958481330007300,11.54400732421875,0.024367205798625946,0.00852186419069767,0.024633513763546944
1696958481340020700,11.554020751953125,0.019041040912270546,0.004260932095348835,-0.025432437658309937
1696958481350034200,11.5640341796875,0.014780107885599136,0.03941362351179123,0.019307348877191544
1696958481360047900,11.5740478515625,0.021171506494283676,0.03515268862247467,0.013981183059513569
1696958481370061300,11.584061279296876,0.024367205798625946,0.0021304660476744175,-0.022236740216612816
1696958481380074800,11.59407470703125,0.016910573467612267,0.03302222490310669,0.017176883295178413
1696958481390088400,11.60408837890625,0.022236740216612816,0.04473978653550148,-0.0030625448562204838
1696958481400102000,11.614101806640624,0.027562905102968216,0.0106523297727108,0.010785484686493874
1696958481410115300,11.624115234375,0.026497671380639076,0.0053261648863554,-0.016910573467612267
1696958481420128800,11.634128662109376,0.021171506494283676,0.0319569893181324,0.011850717477500439
1696958481430142200,11.64414208984375,0.033954303711652756,-0.0010652330238372087,0.006524552125483751
1696958481440155600,11.65415576171875,0.03288906812667847,-0.02769605815410614,-0.008388710208237171
1696958481450169300,11.66416943359375,0.026497671380639076,-0.0031956990715116262,0.016111649572849274
1696958481460182800,11.674182861328125,0.028628136962652206,0.0031956990715116262,0.00226362026296556
1696958481470196200,11.6841962890625,0.035019535571336746,-0.009587096981704235,0.036351077258586884
1696958481480209700,11.694209716796875,0.024367205798625946,-0.02663082629442215,-0.023301972076296806
1696958481490223000,11.70422314453125,0.019041040912270546,0.04473978653550148,0.057655736804008484
1696958481500236800,11.71423681640625,0.024367205798625946,0.04367455467581749,0.0033288532868027687
1696958481510250200,11.724250244140626,0.024367205798625946,0.01171756349503994,0.037416309118270874
1696958481520263700,11.734263671875,0.010519175790250301,0.03515268862247467,-0.009453942999243736
1696958481530277000,11.744277099609375,0.017975807189941406,0.11078423261642456,0.053394805639982224
1696958481540290600,11.75429052734375,0.023301972076296806,0.01917419396340847,0.004394086077809334
1696958481550304300,11.76430419921875,0.012649642303586006,0.04367455467581749,0.006524552125483751
1696958481560317700,11.774317626953126,0.013714875094592571,0.09480573982000351,0.022503048181533813
1696958481570331100,11.7843310546875,0.021171506494283676,0.0426093190908432,0.010785484686493874
1696958481580344600,11.794344482421875,0.024367205798625946,0.01171756349503994,-0.0030625448562204838
1696958481590358000,11.80435791015625,0.017975807189941406,0.00852186419069767,0.005459319334477186
1696958481600371700,11.814371826171875,0.023301972076296806,0.03941362351179123,-0.001997311832383275
1696958481610385200,11.82438525390625,0.033954303711652756,-0.01917419396340847,0.024633513763546944
1696958481620398600,11.834398681640625,0.022236740216612816,-0.04047885537147522,-0.04673709720373154
1696958481630412000,11.844412109375,0.023301972076296806,0.03089175745844841,0.036351077258586884
1696958481640425500,11.854425537109375,0.031823836266994476,-0.02236989326775074,-0.012649642303586006
1696958481650439200,11.864439208984376,0.025432437658309937,-0.01810896210372448,-0.027562905102968216
1696958481660452600,11.87445263671875,0.022236740216612816,-0.0010652330238372087,0.023568280041217804
1696958481670466000,11.884466064453125,0.020106272771954536,0.01704372838139534,-0.03928046673536301
1696958481680479500,11.8944794921875,0.026497671380639076,0.03728315606713295,0.028894444927573204
1696958481690493000,11.904492919921875,0.022236740216612816,-0.02769605815410614,-0.041410934180021286
1696958481700506600,11.914506591796876,0.016910573467612267,0.05113118514418602,0.0011983871227130294
1696958481710520000,11.92452001953125,0.027562905102968216,0.02236989326775074,0.016111649572849274
1696958481720533500,11.934533447265625,0.023301972076296806,-0.0031956990715116262,-0.04993279650807381
1696958481730547000,11.944546875,0.020106272771954536,0.01704372838139534,0.031024912372231483
1696958481740560400,11.954560302734375,0.030758604407310486,-0.02876129187643528,-0.016910573467612267
1696958481750573800,11.96457373046875,0.029693370684981346,0.01171756349503994,0.011850717477500439
1696958481760587500,11.97458740234375,0.019041040912270546,-0.02343512699007988,-0.019041040912270546
1696958481770601000,11.98460107421875,0.026497671380639076,-0.0010652330238372087,0.019307348877191544
1696958481780614400,11.994614501953125,0.03288906812667847,-0.01384802907705307,0.017176883295178413
1696958481790627800,12.0046279296875,0.021171506494283676,-0.02450035884976387,-0.026497671380639076
1696958481800641300,12.014641357421874,0.017975807189941406,0.0213046595454216,0.04274247586727142
1696958481810655000,12.024655029296875,0.026497671380639076,0,0.0011983871227130294
1696958481820668400,12.03466845703125,0.022236740216612816,0.0031956990715116262,0.013981183059513569
1696958481830681900,12.044681884765625,0.011584409512579441,0.01171756349503994,0.008655018173158169
1696958481840695300,12.0546953125,0.017975807189941406,0.04367455467581749,0.027829213067889214
1696958481850708700,12.064708740234375,0.022236740216612816,0.01491326279938221,0.025698747485876083
1696958481860722400,12.074722412109375,0.012649642303586006,-0.0053261648863554,-0.014780107885599136
1696958481870736000,12.08473583984375,0.012649642303586006,0.03515268862247467,0.040612008422613144
1696958481880749300,12.094749267578125,0.022236740216612816,0.009587096981704235,0.018242115154862404
1696958481890762800,12.1047626953125,0.015845341607928276,-0.0106523297727108,-0.011584409512579441
