time,seconds_elapsed,z,y,x
1696958188936290300,0.148290283203125,-0.03528584539890289,0.0053261648863554,0.0001331541279796511
1696958188946185200,0.158185302734375,-0.028894444927573204,0.01491326279938221,0.0001331541279796511
1696958188956113700,0.16811376953125,-0.023568280041217804,0.0063913981430232525,0.0033288532868027687
1696958188966077700,0.17807763671875,-0.036351077258586884,-0.02556559257209301,-0.026497671380639076
1696958188976078000,0.188078125,-0.03528584539890289,0.04900071769952774,0.024633513763546944
1696958188986113800,0.19811376953125,-0.023568280041217804,-0.02769605815410614,0.0033288532868027687
1696958188996182300,0.208182373046875,-0.033155377954244614,-0.01704372838139534,-0.027562905102968216
1696958189006280400,0.218280517578125,-0.040612008422613144,0.02023942768573761,0.04913387447595596
1696958189016403500,0.228403564453125,-0.027829213067889214,-0.0031956990715116262,-0.025432437658309937
1696958189026546000,0.2385458984375,-0.027829213067889214,-0.02556559257209301,0.036351077258586884
1696958189036702000,0.248701904296875,-0.03848154470324516,0.0106523297727108,-0.029693370684981346
1696958189046865400,0.258865478515625,-0.034220609813928604,-0.004260932095348835,0.054460037499666214
1696958189057029600,0.269029541015625,-0.03209014609456062,0.01384802907705307,-0.029693370684981346
1696958189067068200,0.279068115234375,-0.033155377954244614,0.02236989326775074,0.04593817517161369
1696958189077081600,0.28908154296875,-0.04274247586727142,-0.03408745676279068,-0.045671865344047546
1696958189087095000,0.299094970703125,-0.03848154470324516,0.07989247888326645,0.061916667968034744
1696958189097108200,0.309108154296875,-0.03209014609456062,0.007456631399691105,-0.030758604407310486
1696958189107121700,0.31912158203125,-0.037416309118270874,-0.0213046595454216,-0.0009320789249613881
1696958189117135000,0.329135009765625,-0.04274247586727142,0.04900071769952774,0.015046416781842709
1696958189127148300,0.339148193359375,-0.025698747485876083,0.02450035884976387,-0.0030625448562204838
1696958189137161700,0.34916162109375,-0.03209014609456062,-0.04580501839518547,-0.014780107885599136
1696958189147175000,0.3591748046875,-0.04274247586727142,0.02663082629442215,0.0001331541279796511
1696958189157188400,0.369188232421875,-0.029959678649902344,0.02556559257209301,0.010785484686493874
1696958189167201800,0.379201904296875,-0.027829213067889214,-0.012782796286046505,-0.004127778112888336
1696958189177215000,0.389215087890625,-0.03954677656292915,-0.01704372838139534,-0.027562905102968216
1696958189187228400,0.399228515625,-0.03848154470324516,0.05113118514418602,0.017176883295178413
1696958189197241600,0.40924169921875,-0.027829213067889214,0.0063913981430232525,0.013981183059513569
1696958189207255000,0.419255126953125,-0.037416309118270874,-0.01810896210372448,-0.035019535571336746
1696958189217268200,0.429268310546875,-0.044872939586639404,0.02343512699007988,0.015046416781842709
1696958189227281700,0.43928173828125,-0.03209014609456062,0.03302222490310669,0.0033288532868027687
1696958189237295000,0.449295166015625,-0.03528584539890289,-0.03089175745844841,-0.024367205798625946
1696958189247308300,0.459308349609375,-0.036351077258586884,0.0010652330238372087,0.012915950268507004
1696958189257321700,0.46932177734375,-0.036351077258586884,-0.02769605815410614,-0.007323476951569319
1696958189267335000,0.4793349609375,-0.033155377954244614,0.01384802907705307,-0.0030625448562204838
1696958189277348400,0.489348388671875,-0.036351077258586884,-0.04047885537147522,-0.010519175790250301
1696958189287361800,0.49936181640625,-0.043807707726955414,-0.0159784946590662,-0.005193010903894901
1696958189297375000,0.509375,-0.034220609813928604,0.01384802907705307,0.0011983871227130294
1696958189307388400,0.519388427734375,-0.033155377954244614,-0.03089175745844841,0.0033288532868027687
1696958189317401600,0.529401611328125,-0.041677240282297134,-0.01384802907705307,-0.028628136962652206
1696958189327415000,0.5394150390625,-0.040612008422613144,0.01917419396340847,0.03528584539890289
1696958189337428200,0.54942822265625,-0.033155377954244614,-0.012782796286046505,-0.035019535571336746
1696958189347441700,0.559441650390625,-0.03528584539890289,0.0106523297727108,0.005459319334477186
1696958189357455000,0.569455078125,-0.043807707726955414,-0.0213046595454216,-0.017975807189941406
1696958189367468300,0.57946826171875,-0.03209014609456062,0.02769605815410614,0.013981183059513569
1696958189377481700,0.589481689453125,-0.031024912372231483,-0.03728315606713295,-0.019041040912270546
1696958189387495000,0.599494873046875,-0.036351077258586884,-0.02769605815410614,-0.023301972076296806
1696958189397508400,0.60950830078125,-0.03209014609456062,-0.012782796286046505,0.027829213067889214
1696958189407521800,0.619521728515625,-0.025698747485876083,-0.0159784946590662,-0.038215234875679016
1696958189417535000,0.629534912109375,-0.029959678649902344,-0.0319569893181324,0.00226362026296556
1696958189427548400,0.63954833984375,-0.036351077258586884,-0.02023942768573761,-0.012649642303586006
1696958189437561900,0.649561767578125,-0.029959678649902344,0.02450035884976387,-0.004127778112888336
1696958189447575300,0.6595751953125,-0.026763979345560074,-0.02450035884976387,0.00226362026296556
1696958189457588500,0.66958837890625,-0.034220609813928604,-0.03834838792681694,-0.035019535571336746
1696958189467602000,0.679601806640625,-0.034220609813928604,0.02556559257209301,0.033155377954244614
1696958189477615400,0.689615478515625,-0.027829213067889214,-0.01704372838139534,-0.03288906812667847
1696958189487628800,0.69962890625,-0.029959678649902344,-0.012782796286046505,0.017176883295178413
1696958189497642200,0.709642333984375,-0.03954677656292915,-0.02023942768573761,-0.026497671380639076
1696958189507655400,0.719655517578125,-0.028894444927573204,0.0159784946590662,0.034220609813928604
1696958189517668900,0.7296689453125,-0.026763979345560074,-0.04900071769952774,-0.016910573467612267
1696958189527682300,0.739682373046875,-0.03848154470324516,-0.0106523297727108,0.0001331541279796511
1696958189537695700,0.74969580078125,-0.03528584539890289,-0.009587096981704235,0.017176883295178413
1696958189547709200,0.759709228515625,-0.027829213067889214,0.0010652330238372087,0.009720250964164734
1696958189557722400,0.769722412109375,-0.033155377954244614,-0.04154408723115921,-0.0030625448562204838
1696958189567735800,0.77973583984375,-0.03954677656292915,-0.02769605815410614,0.020372580736875534
1696958189577749200,0.789749267578125,-0.03209014609456062,0.009587096981704235,0.015046416781842709
1696958189587762700,0.7997626953125,-0.027829213067889214,-0.02236989326775074,0.010785484686493874
1696958189597776000,0.80977587890625,-0.03848154470324516,-0.03408745676279068,0.006524552125483751
1696958189607789300,0.819789306640625,-0.037416309118270874,0.02876129187643528,0.020372580736875534
1696958189617802800,0.829802734375,-0.029959678649902344,-0.0031956990715116262,0.023568280041217804
1696958189627816200,0.839816162109375,-0.031024912372231483,-0.03834838792681694,0.005459319334477186
1696958189637829600,0.84982958984375,-0.043807707726955414,0.02663082629442215,0.012915950268507004
1696958189647842800,0.8598427734375,-0.031024912372231483,0.01810896210372448,0.025698747485876083
1696958189657856300,0.869856201171875,-0.027829213067889214,-0.02343512699007988,0.015046416781842709
1696958189667869700,0.87986962890625,-0.03848154470324516,-0.01704372838139534,-0.008388710208237171
1696958189677883100,0.889883056640625,-0.03528584539890289,0.05006595328450203,0.04913387447595596
1696958189687896600,0.899896484375,-0.023568280041217804,-0.03621792420744896,-0.001997311832383275
1696958189697910000,0.909909912109375,-0.033155377954244614,-0.007456631399691105,0.0033288532868027687
1696958189707923500,0.91992333984375,-0.03528584539890289,0.007456631399691105,0.043807707726955414
1696958189717937000,0.92993701171875,-0.027829213067889214,0.01810896210372448,-0.020106272771954536
1696958189727950300,0.939950439453125,-0.025698747485876083,-0.02556559257209301,0.04913387447595596
1696958189737963800,0.9499638671875,-0.033155377954244614,0.0021304660476744175,-0.022236740216612816
1696958189747977200,0.959977294921875,-0.029959678649902344,0.02343512699007988,0.041677240282297134
1696958189757990700,0.96999072265625,-0.025698747485876083,0.0021304660476744175,-0.010519175790250301
1696958189768004000,0.980004150390625,-0.025698747485876083,-0.0063913981430232525,0.037416309118270874
1696958189778017500,0.990017578125,-0.031024912372231483,-0.004260932095348835,-0.021171506494283676
1696958189788031000,1.000031005859375,-0.022503048181533813,0.05432688444852829,0.057655736804008484
1696958189798044400,1.01004443359375,-0.020372580736875534,-0.04900071769952774,-0.024367205798625946
1696958189808057900,1.020057861328125,-0.024633513763546944,0.02023942768573761,0.017176883295178413
1696958189818071300,1.0300712890625,-0.023568280041217804,0.02450035884976387,0.018242115154862404
1696958189828084700,1.040084716796875,-0.016111649572849274,0.0159784946590662,0.0011983871227130294
1696958189838098200,1.05009814453125,-0.015046416781842709,-0.007456631399691105,0.015046416781842709
1696958189848111600,1.060111572265625,-0.027829213067889214,0.03089175745844841,-0.021171506494283676
1696958189858125000,1.070125,-0.011850717477500439,0.08095771074295044,0.03954677656292915
1696958189868138500,1.080138427734375,-0.009720250964164734,-0.02876129187643528,-0.020106272771954536
1696958189878152000,1.09015185546875,-0.016111649572849274,-0.01171756349503994,0.005459319334477186
1696958189888165400,1.100165283203125,-0.016111649572849274,0.00852186419069767,0.016111649572849274
1696958189898178800,1.1101787109375,-0.004394086077809334,0.04154408723115921,0.008655018173158169
1696958189908192300,1.120192138671875,-0.005459319334477186,-0.03728315606713295,0.018242115154862404
1696958189918205700,1.130205810546875,-0.021437814459204674,-0.03302222490310669,-0.027562905102968216
1696958189928219100,1.14021923828125,-0.00226362026296556,0.03941362351179123,0.06298190355300903
1696958189938232600,1.150232666015625,-0.006524552125483751,-0.02343512699007988,-0.023301972076296806
1696958189948246000,1.16024609375,-0.010785484686493874,-0.02023942768573761,0.03848154470324516
1696958189958259500,1.170259521484375,-0.018242115154862404,-0.009587096981704235,-0.017975807189941406
1696958189968273000,1.18027294921875,-0.0033288532868027687,0.08202294260263443,0.06937330216169357
1696958189978286000,1.1902861328125,-0.012915950268507004,-0.05858781561255455,-0.026497671380639076
1696958189988299500,1.200299560546875,-0.019307348877191544,0.02236989326775074,0.027829213067889214
1696958189998313000,1.21031298828125,-0.012915950268507004,0.09480573982000351,0.053394805639982224
1696958190008326400,1.220326416015625,-0.005459319334477186,-0.03302222490310669,-0.004127778112888336
1696958190018339800,1.23033984375,-0.022503048181533813,0.03941362351179123,0.03209014609456062
1696958190028353000,1.24035302734375,-0.015046416781842709,0.04687025398015976,0.051264338195323944
1696958190038366500,1.250366455078125,-0.006524552125483751,0.00852186419069767,-0.008388710208237171
1696958190048380000,1.2603798828125,-0.008655018173158169,0.0021304660476744175,0.07150376588106155
1696958190058393300,1.270393310546875,-0.019307348877191544,-0.01384802907705307,-0.029693370684981346
1696958190068406800,1.28040673828125,-0.004394086077809334,0.02343512699007988,0.0778951644897461
1696958190078420000,1.290419921875,0.0009320789249613881,-0.04047885537147522,0.011850717477500439
1696958190088433400,1.300433349609375,-0.009720250964164734,-0.04047885537147522,-0.007323476951569319
1696958190098446800,1.31044677734375,-0.006524552125483751,0.01704372838139534,0.066177599132061
1696958190108460300,1.320460205078125,-0.0001331541279796511,-0.03834838792681694,-0.010519175790250301
1696958190118473500,1.330473388671875,-0.0011983871227130294,-0.0031956990715116262,0.022503048181533813
1696958190128487000,1.34048681640625,-0.009720250964164734,-0.01384802907705307,0.013981183059513569
1696958190138500400,1.350500244140625,-0.00226362026296556,0.0159784946590662,0.024633513763546944
1696958190148513800,1.360513671875,-0.0001331541279796511,0.012782796286046505,0.012915950268507004
1696958190158527200,1.37052734375,-0.00226362026296556,-0.0106523297727108,0.010785484686493874
1696958190168540400,1.38054052734375,-0.007589785382151604,0.00852186419069767,0.006524552125483751
1696958190178553900,1.390553955078125,-0.0033288532868027687,0.04793548583984375,0.031024912372231483
1696958190188567300,1.4005673828125,0.004127778112888336,-0.02236989326775074,-0.006258244160562754
1696958190198580700,1.410580810546875,-0.004394086077809334,-0.02663082629442215,0.006524552125483751
1696958190208594200,1.42059423828125,0.0030625448562204838,0.02876129187643528,0.037416309118270874
1696958190218607400,1.430607421875,0.007323476951569319,-0.05113118514418602,-0.026497671380639076
1696958190228620800,1.440620849609375,0.001997311832383275,-0.0213046595454216,0.018242115154862404
1696958190238634200,1.45063427734375,0.001997311832383275,-0.02769605815410614,0.010785484686493874
1696958190248647700,1.460647705078125,0.009453942999243736,0.01704372838139534,0.00226362026296556
1696958190258660900,1.470660888671875,0.007323476951569319,-0.07030537724494934,-0.001997311832383275
1696958190268674300,1.48067431640625,-0.004394086077809334,0.02556559257209301,-0.009453942999243736
1696958190278687700,1.490687744140625,0.006258244160562754,0.02236989326775074,0.024633513763546944
1696958190288701200,1.500701171875,0.009453942999243736,-0.01384802907705307,-0.029693370684981346
1696958190298714600,1.510714599609375,0.001997311832383275,0.0053261648863554,0.013981183059513569
1696958190308727800,1.520727783203125,-0.006524552125483751,0.05113118514418602,-0.020106272771954536
1696958190318741200,1.5307412109375,0.012649642303586006,0.03302222490310669,0.013981183059513569
1696958190328754700,1.540754638671875,0.011584409512579441,-0.02556559257209301,-0.016910573467612267
1696958190338768100,1.55076806640625,-0.0033288532868027687,0.0106523297727108,-0.013714875094592571
1696958190348781600,1.560781494140625,0.008388710208237171,0.05432688444852829,0.020372580736875534
1696958190358794800,1.570794677734375,0.016910573467612267,-0.01917419396340847,-0.019041040912270546
1696958190368808200,1.58080810546875,0.007323476951569319,-0.02343512699007988,-0.010519175790250301
1696958190378821600,1.590821533203125,0.0009320789249613881,0.0106523297727108,-0.005193010903894901
1696958190388835000,1.6008349609375,0.012649642303586006,0.02236989326775074,0.006524552125483751
1696958190398848500,1.6108486328125,0.015845341607928276,-0.04900071769952774,-0.013714875094592571
1696958190408861700,1.62086181640625,0.004127778112888336,-0.04580501839518547,-0.0030625448562204838
1696958190418875100,1.630875244140625,0.004127778112888336,0.03834838792681694,-0.006258244160562754
1696958190428888600,1.640888671875,0.013714875094592571,0.0063913981430232525,0.019307348877191544
1696958190438902000,1.650902099609375,0.006258244160562754,-0.03621792420744896,-0.035019535571336746
1696958190448915200,1.660915283203125,-0.006524552125483751,0.03089175745844841,0.016111649572849274
1696958190458928600,1.6709287109375,0.006258244160562754,0.06604444980621338,0.013981183059513569
1696958190468942000,1.680942138671875,0.001997311832383275,0.01171756349503994,-0.020106272771954536
1696958190478955500,1.69095556640625,-0.007589785382151604,0.02450035884976387,0.017176883295178413
1696958190488969000,1.700968994140625,-0.007589785382151604,0.0745663121342659,0.006524552125483751
1696958190498982400,1.710982421875,0.004127778112888336,0.06604444980621338,0.016111649572849274
1696958190508995800,1.720995849609375,-0.0033288532868027687,-0.04154408723115921,-0.0009320789249613881
1696958190519009300,1.73100927734375,-0.012915950268507004,0.10865376889705658,0.018242115154862404
1696958190529022700,1.741022705078125,0.006258244160562754,0.012782796286046505,0.031024912372231483
1696958190539036200,1.7510361328125,0.005193010903894901,-0.02023942768573761,-0.001997311832383275
1696958190549049600,1.761049560546875,-0.006524552125483751,0.01171756349503994,0.03848154470324516
1696958190559063000,1.77106298828125,-0.0011983871227130294,0.01491326279938221,-0.013714875094592571
1696958190569076500,1.781076416015625,0.015845341607928276,0.004260932095348835,0.07150376588106155
1696958190579090000,1.79108984375,0.0030625448562204838,-0.09267527610063553,-0.057389430701732635
1696958190589103400,1.801103271484375,-0.007589785382151604,0.04900071769952774,0.07150376588106155
1696958190599116800,1.81111669921875,0.010519175790250301,-0.01171756349503994,-0.0030625448562204838
1696958190609130200,1.821130126953125,0.006258244160562754,-0.0532616525888443,-0.006258244160562754
1696958190619143700,1.831143798828125,-0.0001331541279796511,-0.02556559257209301,0.024633513763546944
1696958190629157000,1.8411572265625,0.0009320789249613881,0.01810896210372448,-0.005193010903894901
1696958190639170600,1.851170654296875,0.008388710208237171,0.01171756349503994,0.019307348877191544
1696958190649184000,1.86118408203125,0.0030625448562204838,-0.05645735189318657,-0.022236740216612816
1696958190659197400,1.871197509765625,-0.007589785382151604,0.02769605815410614,0.0001331541279796511
1696958190669211000,1.8812109375,0.0009320789249613881,0.06924014538526535,0.022503048181533813
1696958190679224300,1.891224365234375,0.005193010903894901,-0.02343512699007988,-0.059519894421100616
1696958190689237800,1.90123779296875,-0.004394086077809334,0.01171756349503994,0.024633513763546944
1696958190699251200,1.911251220703125,-0.0001331541279796511,0.0213046595454216,-0.031823836266994476
1696958190709264600,1.9212646484375,0.010519175790250301,0.02982652559876442,0.0001331541279796511
1696958190719278000,1.931278076171875,0.0030625448562204838,-0.04900071769952774,-0.058454662561416626
1696958190729291500,1.94129150390625,-0.0001331541279796511,0.02023942768573761,0.03848154470324516
1696958190739305000,1.951304931640625,0.013714875094592571,-0.03089175745844841,-0.0723026916384697
1696958190749318400,1.961318359375,0.006258244160562754,0.0213046595454216,0.015046416781842709
1696958190759331800,1.971331787109375,0.006258244160562754,-0.07243584841489792,-0.04673709720373154
1696958190769345300,1.98134521484375,0.011584409512579441,0.02663082629442215,0.018242115154862404
1696958190779358700,1.991358642578125,0.013714875094592571,-0.03834838792681694,-0.03608476743102074
1696958190789372000,2.001371826171875,0.0030625448562204838,0.009587096981704235,-0.014780107885599136
1696958190799385300,2.01138525390625,0.009453942999243736,0.01171756349503994,0.013981183059513569
1696958190809398800,2.021398681640625,0.014780107885599136,-0.007456631399691105,-0.028628136962652206
1696958190819412200,2.031412109375,0.005193010903894901,0.02556559257209301,0.004394086077809334
1696958190829425700,2.04142578125,0.001997311832383275,-0.0106523297727108,-0.019041040912270546
1696958190839439000,2.051439208984375,0.012649642303586006,0.01704372838139534,0.026763979345560074
1696958190849452500,2.06145263671875,0.008388710208237171,0.007456631399691105,-0.019041040912270546
1696958190859466000,2.071466064453125,0.0030625448562204838,-0.0063913981430232525,-0.0009320789249613881
1696958190869479400,2.0814794921875,0.006258244160562754,-0.004260932095348835,0.010785484686493874
1696958190879492900,2.091492919921875,0.015845341607928276,0.00852186419069767,0.011850717477500439
1696958190889506300,2.10150634765625,0.004127778112888336,-0.05965305119752884,-0.03608476743102074
1696958190899519700,2.111519775390625,-0.0001331541279796511,0.03515268862247467,0.04274247586727142
1696958190909533200,2.121533203125,0.012649642303586006,0.0106523297727108,0.0011983871227130294
1696958190919546600,2.131546630859375,0.007323476951569319,-0.04580501839518547,-0.029693370684981346
1696958190929560000,2.14156005859375,-0.005459319334477186,0.0426093190908432,0.022503048181533813
1696958190939573500,2.151573486328125,0.007323476951569319,0.02343512699007988,-0.004127778112888336
1696958190949587000,2.1615869140625,0.007323476951569319,0.004260932095348835,0.0001331541279796511
1696958190959600400,2.171600341796875,-0.0011983871227130294,0.0010652330238372087,-0.014780107885599136
1696958190969613800,2.18161376953125,-0.0001331541279796511,0.04154408723115921,0.00226362026296556
1696958190979627300,2.191627197265625,0.014780107885599136,0.0021304660476744175,0.007589785382151604
1696958190989640700,2.201640625,0.001997311832383275,-0.00852186419069767,-0.055258963257074356
1696958190999654100,2.211654052734375,0.004127778112888336,0.01810896210372448,0.04593817517161369
1696958191009667600,2.22166748046875,0.017975807189941406,-0.01810896210372448,-0.038215234875679016
1696958191019681000,2.231680908203125,0.008388710208237171,0.0021304660476744175,0.00226362026296556
1696958191029694500,2.241694580078125,0.010519175790250301,-0.02343512699007988,-0.005193010903894901
1696958191039708000,2.2517080078125,0.017975807189941406,-0.04154408723115921,-0.010519175790250301
1696958191049721300,2.261721435546875,0.016910573467612267,0.0021304660476744175,0.004394086077809334
1696958191059734800,2.27173486328125,0.015845341607928276,-0.03515268862247467,-0.0009320789249613881
1696958191069748200,2.281748291015625,0.011584409512579441,-0.009587096981704235,-0.019041040912270546
1696958191079761700,2.29176171875,0.026497671380639076,-0.02343512699007988,0.053394805639982224
1696958191089775000,2.301775146484375,0.014780107885599136,-0.01917419396340847,-0.07549838721752167
1696958191099788500,2.31178857421875,0.011584409512579441,0.02023942768573761,0.06404713541269302
1696958191109802000,2.321802001953125,0.023301972076296806,-0.02236989326775074,-0.028628136962652206
1696958191119815400,2.3318154296875,0.022236740216612816,-0.0021304660476744175,0.005459319334477186
1696958191129828900,2.341828857421875,0.011584409512579441,0.02876129187643528,-0.005193010903894901
1696958191139842300,2.35184228515625,0.020106272771954536,-0.02663082629442215,-0.014780107885599136
1696958191149855700,2.361855712890625,0.029693370684981346,0.0031956990715116262,0.009720250964164734
1696958191159869200,2.371869140625,0.019041040912270546,-0.03408745676279068,-0.040345702320337296
1696958191169882600,2.381882568359375,0.017975807189941406,-0.0106523297727108,-0.007323476951569319
1696958191179896000,2.39189599609375,0.028628136962652206,-0.02343512699007988,-0.007323476951569319
1696958191189909500,2.401909423828125,0.025432437658309937,-0.01917419396340847,-0.033954303711652756
1696958191199923000,2.4119228515625,0.016910573467612267,-0.0213046595454216,-0.008388710208237171
1696958191209936400,2.421936279296875,0.021171506494283676,-0.012782796286046505,-0.033954303711652756
1696958191219949800,2.43194970703125,0.024367205798625946,0.02982652559876442,0.015046416781842709
1696958191229963500,2.441963623046875,0.017975807189941406,-0.03834838792681694,-0.07656362652778625
1696958191239977200,2.451977294921875,0.016910573467612267,0.03408745676279068,0.040612008422613144
1696958191249990700,2.46199072265625,0.026497671380639076,-0.01491326279938221,-0.048867564648389816
1696958191260004000,2.472004150390625,0.015845341607928276,0.03941362351179123,-0.027562905102968216
1696958191270017500,2.482017578125,0.016910573467612267,-0.01917419396340847,0.017176883295178413
1696958191280031000,2.492031005859375,0.024367205798625946,-0.00852186419069767,-0.04673709720373154
1696958191290044400,2.50204443359375,0.021171506494283676,0.02876129187643528,0.008655018173158169
1696958191300057900,2.512057861328125,0.017975807189941406,-0.07030537724494934,-0.048867564648389816
1696958191310071300,2.5220712890625,0.021171506494283676,0.03728315606713295,0.009720250964164734
1696958191320084700,2.532084716796875,0.027562905102968216,-0.07030537724494934,-0.03928046673536301
1696958191330098200,2.54209814453125,0.019041040912270546,-0.0053261648863554,-0.044606633484363556
1696958191340111600,2.552111572265625,0.023301972076296806,-0.03834838792681694,0.005459319334477186
1696958191350125000,2.562125,0.022236740216612816,-0.03408745676279068,-0.0712374597787857
1696958191360138500,2.572138427734375,0.020106272771954536,0.01384802907705307,-0.0030625448562204838
1696958191370152000,2.58215185546875,0.020106272771954536,-0.05219641700387001,-0.060585130006074905
1696958191380165400,2.592165283203125,0.019041040912270546,0.01704372838139534,-0.008388710208237171
1696958191390178800,2.6021787109375,0.019041040912270546,-0.00852186419069767,-0.06378082931041718
1696958191400192300,2.612192138671875,0.022236740216612816,-0.0159784946590662,-0.010519175790250301
1696958191410205700,2.622205810546875,0.012649642303586006,-0.0031956990715116262,-0.047802332788705826
1696958191420219100,2.63221923828125,0.022236740216612816,-0.0031956990715116262,-0.020106272771954536
1696958191430232600,2.642232666015625,0.024367205798625946,-0.03941362351179123,-0.033954303711652756
1696958191440246000,2.65224609375,0.013714875094592571,-0.0021304660476744175,-0.028628136962652206
1696958191450259500,2.662259521484375,0.022236740216612816,-0.02450035884976387,-0.008388710208237171
1696958191460273000,2.67227294921875,0.027562905102968216,-0.03408745676279068,-0.021171506494283676
1696958191470286300,2.682286376953125,0.015845341607928276,-0.007456631399691105,-0.025432437658309937
1696958191480300300,2.69230029296875,0.011584409512579441,0.01704372838139534,-0.0030625448562204838
1696958191490313200,2.702313232421875,0.025432437658309937,-0.01171756349503994,0.012915950268507004
1696958191500326100,2.712326171875,0.019041040912270546,-0.0063913981430232525,-0.035019535571336746
1696958191510339000,2.722339111328125,0.011584409512579441,0.004260932095348835,0.029959678649902344
1696958191520352000,2.73235205078125,0.026497671380639076,-0.03089175745844841,-0.013714875094592571
1696958191530365000,2.742364990234375,0.025432437658309937,0.01171756349503994,0.034220609813928604
1696958191540377900,2.7523779296875,0.019041040912270546,-0.03834838792681694,-0.020106272771954536
1696958191550391000,2.76239111328125,0.023301972076296806,-0.03515268862247467,0.044872939586639404
1696958191560404500,2.772404541015625,0.029693370684981346,-0.0053261648863554,0.008655018173158169
1696958191570417700,2.782417724609375,0.027562905102968216,-0.02556559257209301,0.03848154470324516
1696958191580431400,2.792431396484375,0.016910573467612267,-0.03941362351179123,-0.004127778112888336
1696958191590444800,2.80244482421875,0.025432437658309937,0.02023942768573761,0.06511236727237701
1696958191600458500,2.81245849609375,0.028628136962652206,-0.02343512699007988,0.017176883295178413
1696958191610472200,2.82247216796875,0.021171506494283676,-0.04154408723115921,0.021437814459204674
1696958191620486100,2.832486083984375,0.017975807189941406,0.0031956990715116262,0.053394805639982224
1696958191630499800,2.842499755859375,0.028628136962652206,0.0213046595454216,0.015046416781842709
1696958191640513800,2.852513671875,0.026497671380639076,-0.06924014538526535,0.037416309118270874
1696958191650527700,2.86252783203125,0.012649642303586006,-0.0106523297727108,0.007589785382151604
1696958191660541400,2.87254150390625,0.024367205798625946,0.02450035884976387,0.044872939586639404
1696958191670555100,2.88255517578125,0.026497671380639076,-0.0426093190908432,-0.007323476951569319
1696958191680568600,2.892568603515625,0.019041040912270546,-0.02663082629442215,0.013981183059513569
1696958191690582000,2.90258203125,0.014780107885599136,0,0.007589785382151604
1696958191700595500,2.912595458984375,0.020106272771954536,0.02023942768573761,-0.010519175790250301
1696958191710609000,2.92260888671875,0.023301972076296806,-0.05006595328450203,-0.0009320789249613881
1696958191720622300,2.932622314453125,0.017975807189941406,-0.03621792420744896,-0.028628136962652206
1696958191730635800,2.9426357421875,0.019041040912270546,0.01704372838139534,-0.014780107885599136
1696958191740649200,2.952649169921875,0.020106272771954536,-0.01491326279938221,-0.04993279650807381
1696958191750662700,2.96266259765625,0.025432437658309937,-0.05432688444852829,-0.03928046673536301
1696958191760676000,2.972676025390625,0.023301972076296806,-0.01491326279938221,-0.0712374597787857
1696958191770689500,2.982689453125,0.025432437658309937,-0.0213046595454216,-0.07017222791910172
1696958191780703000,2.992702880859375,0.024367205798625946,-0.10226237028837204,-0.10532491654157639
1696958191790716400,3.00271630859375,0.03928046673536301,-0.1501978635787964,-0.17136935889720917
1696958191800729900,3.012729736328125,0.030758604407310486,0.03941362351179123,-0.1031944528222084
1696958191810743300,3.022743408203125,0.030758604407310486,-0.01917419396340847,-0.15006470680236816
1696958191820756700,3.0327568359375,0.047802332788705826,0.0063913981430232525,-0.10106398165225983
1696958191830770200,3.042770263671875,0.028628136962652206,0.01917419396340847,-0.13408620655536652
1696958191840783600,3.05278369140625,0.04993279650807381,0.01491326279938221,-0.11810771375894547
1696958191850797000,3.062797119140625,0.023301972076296806,0.14061075448989868,-0.18202169239521027
1696958191860810500,3.072810546875,0.014780107885599136,0.10332760214805603,-0.14260807633399963
1696958191870824000,3.082823974609375,0.020106272771954536,0.02663082629442215,-0.028628136962652206
1696958191880837400,3.09283740234375,0.004127778112888336,0.10865376889705658,-0.14367330074310303
1696958191890850800,3.102850830078125,0.013714875094592571,0.07137060910463333,-0.024367205798625946
1696958191900864300,3.1128642578125,0.009453942999243736,-0.0426093190908432,-0.1585865616798401
1696958191910877700,3.122877685546875,0.016910573467612267,0.05858781561255455,0.021437814459204674
1696958191920891100,3.13289111328125,0.012649642303586006,-0.05752258375287056,-0.06697652488946915
1696958191930904600,3.142904541015625,-0.012915950268507004,0.04793548583984375,-0.057389430701732635
1696958191940918000,3.15291796875,-0.0001331541279796511,0.02982652559876442,0.07043853402137756
1696958191950931500,3.162931396484375,0.010519175790250301,-0.01704372838139534,-0.015845341607928276
1696958191960945000,3.17294482421875,-0.006524552125483751,0.01704372838139534,-0.001997311832383275
1696958191970958300,3.182958251953125,-0.0011983871227130294,-0.05432688444852829,0.060851436108350754
1696958191980971800,3.1929716796875,0.014780107885599136,-0.0159784946590662,0.06830807030200958
1696958191990985200,3.202985107421875,0.0009320789249613881,0.03515268862247467,0.03954677656292915
1696958192000998700,3.21299853515625,-0.0033288532868027687,0.0021304660476744175,0.09067796170711517
1696958192011012000,3.22301220703125,-0.007589785382151604,0.02876129187643528,0.028894444927573204
1696958192021025500,3.233025634765625,0.006258244160562754,0.04047885537147522,0.12370018661022186
1696958192031039000,3.2430390625,0.001997311832383275,-0.04580501839518547,0.050199106335639954
1696958192041052400,3.253052490234375,-0.0011983871227130294,0.03621792420744896,0.12263495475053787
1696958192051065900,3.26306591796875,0.011584409512579441,0.01491326279938221,0.09387365728616714
1696958192061079300,3.273079345703125,0.023301972076296806,-0.02663082629442215,0.09706936031579971
1696958192071092700,3.2830927734375,0.0030625448562204838,-0.01384802907705307,0.08854749798774719
1696958192081106200,3.293106201171875,0.007323476951569319,0.03941362351179123,0.1087869256734848
1696958192091119600,3.30311962890625,0.031823836266994476,-0.03302222490310669,0.13541774451732635
1696958192101133000,3.313133056640625,0.026497671380639076,-0.03941362351179123,0.07256899774074554
1696958192111146500,3.323146484375,0.015845341607928276,0.004260932095348835,0.1311568170785904
1696958192121160000,3.333159912109375,0.023301972076296806,0.0063913981430232525,0.10026505589485168
1696958192131173400,3.34317333984375,0.031823836266994476,-0.01384802907705307,0.11837401986122131
1696958192141186800,3.353186767578125,0.030758604407310486,-0.0958709716796875,0.08109086751937866
1696958192151200300,3.3632001953125,0.022236740216612816,-0.0031956990715116262,0.1205044835805893
1696958192161213700,3.373213623046875,0.03608476743102074,-0.06178351491689682,0.10559122264385223
1696958192171227100,3.38322705078125,0.03928046673536301,-0.10013190656900406,0.07469946891069412
1696958192181240600,3.393240478515625,0.024367205798625946,-0.04367455467581749,0.10026505589485168
1696958192191254000,3.40325390625,0.028628136962652206,-0.04580501839518547,0.06404713541269302
1696958192201267500,3.413267333984375,0.035019535571336746,-0.0745663121342659,0.09493889659643173
1696958192211281000,3.423281005859375,0.025432437658309937,-0.10758853703737259,0.007589785382151604
1696958192221294300,3.43329443359375,0.017975807189941406,-0.00852186419069767,0.10452599078416824
1696958192231307800,3.443307861328125,0.023301972076296806,-0.04687025398015976,-0.008388710208237171
1696958192241321200,3.4533212890625,0.024367205798625946,-0.06710968166589737,0.057655736804008484
1696958192251334700,3.463334716796875,0.020106272771954536,-0.08841434121131897,-0.005193010903894901
1696958192261348000,3.47334814453125,0.017975807189941406,-0.0106523297727108,0.044872939586639404
1696958192271361500,3.483361572265625,0.023301972076296806,-0.08308817446231842,-0.014780107885599136
1696958192281375000,3.493375,0.020106272771954536,-0.06284874677658081,0.005459319334477186
1696958192291388400,3.503388427734375,0.016910573467612267,-0.04687025398015976,0.006524552125483751
1696958192301401900,3.51340185546875,0.019041040912270546,-0.04900071769952774,-0.021171506494283676
1696958192311415300,3.523415283203125,0.021171506494283676,-0.02343512699007988,-0.011584409512579441
1696958192321428700,3.5334287109375,0.015845341607928276,-0.06178351491689682,-0.015845341607928276
1696958192331442200,3.543442138671875,0.015845341607928276,-0.02556559257209301,-0.03608476743102074
1696958192341455600,3.55345556640625,0.021171506494283676,-0.0021304660476744175,0.010785484686493874
1696958192351469000,3.563468994140625,0.022236740216612816,-0.07882724702358246,-0.059519894421100616
1696958192361482500,3.573482421875,0.006258244160562754,0.0010652330238372087,-0.008388710208237171
1696958192371496000,3.583495849609375,0.026497671380639076,-0.007456631399691105,0.00226362026296556
1696958192381509400,3.59350927734375,0.022236740216612816,-0.08734910935163498,-0.052063263952732086
1696958192391522800,3.603522705078125,0.009453942999243736,0.01384802907705307,-0.013714875094592571
1696958192401536300,3.613536376953125,0.015845341607928276,-0.0319569893181324,0.016111649572849274
1696958192411549700,3.6235498046875,0.017975807189941406,0.0106523297727108,-0.040345702320337296
1696958192421563100,3.633563232421875,0.015845341607928276,-0.02343512699007988,0.020372580736875534
1696958192431576600,3.64357666015625,0.006258244160562754,-0.02769605815410614,-0.03608476743102074
1696958192441590000,3.653590087890625,0.014780107885599136,0.05858781561255455,0.048068638890981674
1696958192451603500,3.663603515625,0.013714875094592571,-0.02023942768573761,-0.014780107885599136
1696958192461617000,3.673616943359375,0.005193010903894901,0.009587096981704235,0.03209014609456062
1696958192471630300,3.68363037109375,0.009453942999243736,0.0213046595454216,0.024633513763546944
1696958192481643800,3.693643798828125,0.009453942999243736,0.04580501839518547,0.047003407031297684
1696958192491657200,3.7036572265625,0.009453942999243736,-0.02236989326775074,0.016111649572849274
1696958192501670700,3.713670654296875,0.004127778112888336,0.01704372838139534,0.07150376588106155
1696958192511684000,3.72368408203125,0.016910573467612267,0.01704372838139534,0.07363422960042953
1696958192521697500,3.733697509765625,0.005193010903894901,-0.007456631399691105,0.03954677656292915
1696958192531711000,3.7437109375,0.004127778112888336,0.0106523297727108,0.12796111404895782
1696958192541724400,3.753724365234375,0.009453942999243736,-0.02876129187643528,0.07896039634943008
1696958192551737900,3.76373779296875,0.013714875094592571,0.03089175745844841,0.1524614691734314
1696958192561751300,3.773751220703125,0.005193010903894901,-0.06924014538526535,0.14713531732559204
1696958192571764700,3.7837646484375,0.011584409512579441,-0.012782796286046505,0.15778763592243195
1696958192581778200,3.793778076171875,0.021171506494283676,-0.0063913981430232525,0.22809302806854248
1696958192591791600,3.80379150390625,0.006258244160562754,0.012782796286046505,0.11091738939285278
1696958192601805000,3.81380517578125,0.015845341607928276,0.10439283400774002,0.22063638269901276
1696958192611818500,3.823818603515625,0.022236740216612816,0.0213046595454216,0.14500483870506287
1696958192621832000,3.83383203125,0.008388710208237171,0.12356702983379364,0.10559122264385223
1696958192631845400,3.843845458984375,0.025432437658309937,0.07350108027458191,0.1940055638551712
1696958192641858800,3.85385888671875,0.025432437658309937,0.03302222490310669,0.05659050494432449
1696958192651872300,3.863872314453125,0.021171506494283676,0.13634982705116272,0.13328728079795837
1696958192661885700,3.8738857421875,0.014780107885599136,0.02236989326775074,0.04593817517161369
1696958192671899100,3.883899169921875,0.020106272771954536,0.09161003679037094,0.08535179495811462
1696958192681912300,3.893912353515625,0.024367205798625946,0.08947957307100296,0.053394805639982224
1696958192691925800,3.90392578125,0.014780107885599136,0.004260932095348835,-0.029693370684981346
1696958192701939200,3.913939208984375,-0.0033288532868027687,0.06497921794652939,0.034220609813928604
1696958192711952600,3.92395263671875,0.0030625448562204838,0.03515268862247467,-0.025432437658309937
1696958192721966000,3.933966064453125,0.015845341607928276,0.02876129187643528,-0.059519894421100616
1696958192731979500,3.9439794921875,0.001997311832383275,0.02450035884976387,-0.058454662561416626
1696958192741993000,3.953992919921875,0.0030625448562204838,0.0021304660476744175,-0.08828118443489075
1696958192752006400,3.96400634765625,0.016910573467612267,-0.0159784946590662,-0.08508548885583878
1696958192762019800,3.974019775390625,-0.0001331541279796511,0.0063913981430232525,-0.15006470680236816
1696958192772033300,3.984033203125,-0.0001331541279796511,0.01384802907705307,-0.047802332788705826
1696958192782046700,3.994046630859375,0.006258244160562754,0.02023942768573761,-0.15006470680236816
1696958192792060400,4.004060302734375,0.007323476951569319,0.01384802907705307,-0.11917294561862946
1696958192802073900,4.014073974609375,-0.0033288532868027687,0.0053261648863554,-0.11065108329057693
1696958192812087300,4.02408740234375,0.006258244160562754,0.04154408723115921,-0.11065108329057693
1696958192822100700,4.034100830078125,0.004127778112888336,0.01917419396340847,-0.11704248189926147
1696958192832114200,4.0441142578125,-0.0033288532868027687,0.0159784946590662,-0.1031944528222084
1696958192842128000,4.0541279296875,0.010519175790250301,0.012782796286046505,-0.09573781490325928
1696958192852141300,4.064141357421875,0.012649642303586006,0.01171756349503994,-0.11917294561862946
1696958192862154800,4.07415478515625,0.006258244160562754,-0.03089175745844841,-0.10106398165225983
1696958192872168200,4.084168212890625,0.011584409512579441,0.02023942768573761,-0.07975932210683823
1696958192882181600,4.094181640625,0.021171506494283676,0,-0.07017222791910172
1696958192892195300,4.1041953125,0.013714875094592571,-0.04047885537147522,-0.11917294561862946
1696958192902208800,4.114208740234375,0.011584409512579441,0.02343512699007988,-0.042476166039705276
1696958192912222200,4.12422216796875,0.025432437658309937,-0.01171756349503994,-0.08721595257520676
1696958192922235600,4.134235595703125,0.023301972076296806,-0.004260932095348835,-0.06378082931041718
1696958192932249000,4.1442490234375,0.013714875094592571,-0.02450035884976387,-0.07017222791910172
1696958192942262800,4.1542626953125,0.021171506494283676,0.0159784946590662,-0.04673709720373154
1696958192952276200,4.164276123046875,0.025432437658309937,-0.004260932095348835,-0.045671865344047546
1696958192962289700,4.17428955078125,0.014780107885599136,-0.03408745676279068,-0.0712374597787857
1696958192972303000,4.18430322265625,0.014780107885599136,-0.0021304660476744175,-0.014780107885599136
1696958192982316500,4.194316650390625,0.022236740216612816,-0.0021304660476744175,-0.048867564648389816
1696958192992330000,4.204330078125,0.017975807189941406,-0.02769605815410614,-0.030758604407310486
1696958193002343700,4.21434375,0.008388710208237171,-0.03941362351179123,-0.033954303711652756
1696958193012357000,4.224357177734375,0.016910573467612267,0.0159784946590662,-0.001997311832383275
1696958193022370600,4.23437060546875,0.012649642303586006,-0.03089175745844841,-0.04673709720373154
1696958193032384000,4.244384033203125,0.008388710208237171,-0.01810896210372448,0.00226362026296556
1696958193042397400,4.2543974609375,0.010519175790250301,-0.03834838792681694,-0.0009320789249613881
1696958193052411100,4.2644111328125,0.009453942999243736,0.01384802907705307,-0.027562905102968216
1696958193062424600,4.274424560546875,0.006258244160562754,-0.02876129187643528,0.007589785382151604
1696958193072438000,4.28443798828125,0.001997311832383275,-0.01171756349503994,-0.009453942999243736
1696958193082451500,4.294451416015625,0.011584409512579441,0.0053261648863554,0.028894444927573204
1696958193092465000,4.30446484375,0.0030625448562204838,-0.03302222490310669,-0.031823836266994476
1696958193102478600,4.314478515625,0.001997311832383275,0.03408745676279068,0.043807707726955414
1696958193112492000,4.324491943359375,0.006258244160562754,-0.02236989326775074,-0.013714875094592571
1696958193122505500,4.33450537109375,0.004127778112888336,0.02769605815410614,0.021437814459204674
1696958193132519000,4.344518798828125,-0.0001331541279796511,0.01171756349503994,-0.001997311832383275
1696958193142532400,4.354532470703125,0.005193010903894901,0.012782796286046505,0.029959678649902344
1696958193152545800,4.3645458984375,0.007323476951569319,0.02023942768573761,0.013981183059513569
1696958193162559200,4.374559326171875,0.001997311832383275,0.0106523297727108,-0.020106272771954536
1696958193172572700,4.38457275390625,0.0009320789249613881,0.02876129187643528,0.047003407031297684
1696958193182586000,4.394586181640625,0.011584409512579441,0.02556559257209301,0.00226362026296556
1696958193192599600,4.404599609375,0.004127778112888336,0,-0.0030625448562204838
1696958193202613000,4.414613037109375,0.001997311832383275,0.03089175745844841,0.025698747485876083
1696958193212626400,4.42462646484375,0.015845341607928276,-0.0063913981430232525,0.018242115154862404
1696958193222639900,4.434639892578125,0.011584409512579441,0.0021304660476744175,0.0001331541279796511
1696958193232653300,4.4446533203125,0.001997311832383275,-0.02556559257209301,0.010785484686493874
1696958193242666800,4.454666748046875,0.023301972076296806,-0.02982652559876442,0.03848154470324516
1696958193252680200,4.46468017578125,0.013714875094592571,-0.0213046595454216,-0.004127778112888336
1696958193262693600,4.474693603515625,0.004127778112888336,-0.00852186419069767,-0.0030625448562204838
1696958193272707000,4.48470703125,0.017975807189941406,-0.03515268862247467,0.050199106335639954
1696958193282720500,4.494720458984375,0.015845341607928276,-0.01491326279938221,-0.012649642303586006
1696958193292734000,4.50473388671875,0.0030625448562204838,0.004260932095348835,0.008655018173158169
1696958193302747400,4.514747314453125,0.014780107885599136,-0.01384802907705307,0.023568280041217804
1696958193312760800,4.5247607421875,0.014780107885599136,0.02982652559876442,0.005459319334477186
1696958193322774300,4.534774169921875,-0.0011983871227130294,0.0106523297727108,-0.022236740216612816
1696958193332787700,4.54478759765625,0.009453942999243736,0.01704372838139534,0.051264338195323944
1696958193342801200,4.55480126953125,0.013714875094592571,0.01810896210372448,-0.008388710208237171
1696958193352814600,4.564814697265625,-0.0011983871227130294,0.03089175745844841,-0.03608476743102074
1696958193362828000,4.574828125,0.014780107885599136,-0.00852186419069767,0.08322133123874664
1696958193372841500,4.584841552734375,0.011584409512579441,-0.0213046595454216,-0.07443315535783768
1696958193382855000,4.59485498046875,0.006258244160562754,0.04367455467581749,0.051264338195323944
1696958193392868400,4.604868408203125,0.013714875094592571,-0.05219641700387001,-0.015845341607928276
1696958193402881800,4.6148818359375,0.017975807189941406,-0.0063913981430232525,0.018242115154862404
1696958193412895200,4.624895263671875,0.005193010903894901,0.02769605815410614,-0.025432437658309937
1696958193422908700,4.63490869140625,0.011584409512579441,-0.04154408723115921,0.012915950268507004
1696958193432922000,4.644922119140625,0.021171506494283676,-0.00852186419069767,0.020372580736875534
1696958193442935600,4.654935546875,0.0009320789249613881,0.02769605815410614,-0.057389430701732635
1696958193452949000,4.664948974609375,0.010519175790250301,-0.0106523297727108,0.041677240282297134
1696958193462962400,4.67496240234375,0.016910573467612267,-0.02343512699007988,-0.014780107885599136
1696958193472976000,4.684975830078125,-0.0011983871227130294,0.07137060910463333,-0.04993279650807381
1696958193482989300,4.6949892578125,0.013714875094592571,-0.03089175745844841,0.043807707726955414
1696958193493002800,4.705002685546875,0.014780107885599136,-0.01491326279938221,-0.048867564648389816
1696958193503016200,4.71501611328125,-0.0001331541279796511,0.05645735189318657,-0.011584409512579441
1696958193513029600,4.725029541015625,0.011584409512579441,-0.01704372838139534,-0.014780107885599136
1696958193523043000,4.73504296875,0.017975807189941406,-0.01491326279938221,-0.011584409512579441
1696958193533056500,4.745056396484375,-0.0011983871227130294,0.00852186419069767,-0.07549838721752167
1696958193543070000,4.755070068359375,0.015845341607928276,0.01810896210372448,0.027829213067889214
1696958193553083400,4.76508349609375,0.017975807189941406,-0.04793548583984375,-0.057389430701732635
1696958193563096800,4.775096923828125,0.001997311832383275,0.01917419396340847,-0.06484606117010117
1696958193573110300,4.7851103515625,0.016910573467612267,-0.02769605815410614,0.029959678649902344
1696958193583123700,4.795123779296875,0.020106272771954536,-0.04793548583984375,-0.09041165560483932
1696958193593137200,4.80513720703125,0.011584409512579441,-0.03834838792681694,-0.023301972076296806
1696958193603150600,4.815150634765625,0.022236740216612816,-0.12463226169347763,-0.027562905102968216
1696958193613164000,4.8251640625,0.023301972076296806,-0.09693620353937149,-0.0712374597787857
1696958193623177500,4.835177490234375,0.004127778112888336,-0.06497921794652939,-0.04993279650807381
1696958193633191000,4.84519091796875,0.016910573467612267,-0.07776200771331787,0.023568280041217804
1696958193643204400,4.855204345703125,0.026497671380639076,-0.1906767040491104,-0.11171631515026093
1696958193653217800,4.8652177734375,0.004127778112888336,-0.0063913981430232525,-0.04993279650807381
1696958193663231200,4.875231201171875,0.03288906812667847,-0.11397993564605713,0.08002562820911407
1696958193673244700,4.88524462890625,0.024367205798625946,-0.12037133425474167,-0.13089050352573395
1696958193683258000,4.895258056640625,0.004127778112888336,-0.0063913981430232525,0.043807707726955414
1696958193693271600,4.905271484375,0.017975807189941406,-0.05858781561255455,0.013981183059513569
1696958193703285000,4.915284912109375,0.007323476951569319,-0.0031956990715116262,-0.025432437658309937
1696958193713298400,4.92529833984375,0.013714875094592571,-0.07989247888326645,0.00226362026296556
1696958193723311900,4.935311767578125,0.017975807189941406,-0.04367455467581749,0.007589785382151604
1696958193733325600,4.94532568359375,0.016910573467612267,-0.03515268862247467,0.019307348877191544
1696958193743339000,4.955339111328125,0.017975807189941406,-0.09800143539905548,0.023568280041217804
1696958193753352400,4.9653525390625,0.022236740216612816,-0.0106523297727108,0.015046416781842709
1696958193763366000,4.975365966796875,0.013714875094592571,-0.00852186419069767,0.007589785382151604
1696958193773379300,4.98537939453125,0.025432437658309937,-0.01810896210372448,0.050199106335639954
1696958193783393000,4.99539306640625,0.028628136962652206,-0.02450035884976387,0.025698747485876083
1696958193793406500,5.005406494140625,0.008388710208237171,0.04047885537147522,0.024633513763546944
1696958193803420000,5.015419921875,0.019041040912270546,0.05645735189318657,0.07043853402137756
1696958193813433300,5.025433349609375,0.024367205798625946,0.02769605815410614,0.043807707726955414
1696958193823446800,5.03544677734375,0.0030625448562204838,0.10013190656900406,-0.007323476951569319
1696958193833460500,5.04546044921875,0.014780107885599136,0.0159784946590662,0.10026505589485168
1696958193843474000,5.055473876953125,0.007323476951569319,0.1384802907705307,-0.027562905102968216
1696958193853487400,5.0654873046875,0.012649642303586006,0.04793548583984375,0.08322133123874664
1696958193863500800,5.075500732421875,0.016910573467612267,0.03834838792681694,0.012915950268507004
1696958193873514200,5.08551416015625,0.010519175790250301,0.08095771074295044,0.041677240282297134
1696958193883528000,5.09552783203125,-0.0011983871227130294,0.05539211630821228,-0.031823836266994476
1696958193893541400,5.105541259765625,0.012649642303586006,0.0639139786362648,0.09600412845611572
1696958193903554800,5.115554931640625,0.0009320789249613881,0.0010652330238372087,-0.031823836266994476
1696958193913568300,5.125568359375,-0.009720250964164734,0.08628387749195099,0.016111649572849274
1696958193923581700,5.135581787109375,0.010519175790250301,0.0010652330238372087,0.08322133123874664
1696958193933595100,5.14559521484375,-0.0011983871227130294,-0.0106523297727108,-0.07762885838747025
1696958193943608800,5.15560888671875,-0.013981183059513569,0.07030537724494934,0.058720968663692474
1696958193953622300,5.165622314453125,0.0030625448562204838,-0.01810896210372448,0.03528584539890289
1696958193963635700,5.1756357421875,-0.015046416781842709,0.06071828305721283,-0.045671865344047546
1696958193973649200,5.185649169921875,-0.011850717477500439,0.06284874677658081,0.06298190355300903
1696958193983662600,5.19566259765625,-0.0033288532868027687,-0.0010652330238372087,0.013981183059513569
1696958193993676300,5.20567626953125,-0.016111649572849274,0.08095771074295044,-0.033954303711652756
1696958194003689700,5.215689697265625,-0.00226362026296556,0.03515268862247467,0.066177599132061
1696958194013703200,5.225703125,-0.0001331541279796511,0.004260932095348835,-0.006258244160562754
1696958194023716600,5.235716552734375,-0.019307348877191544,0.08202294260263443,-0.009453942999243736
1696958194033730000,5.24572998046875,0.001997311832383275,0.04687025398015976,0.07043853402137756
1696958194043743700,5.25574365234375,0.008388710208237171,-0.007456631399691105,-0.013714875094592571
1696958194053757200,5.265757080078125,-0.008655018173158169,0.06817491352558136,-0.008388710208237171
1696958194063770600,5.2757705078125,0.015845341607928276,-0.01810896210372448,0.07576470077037811
1696958194073784000,5.2857841796875,0.011584409512579441,0.00852186419069767,-0.03608476743102074
1696958194083797500,5.295797607421875,0.0030625448562204838,0.02450035884976387,0.031024912372231483
1696958194093811200,5.305811279296875,0.022236740216612816,-0.05432688444852829,0.047003407031297684
1696958194103824600,5.31582470703125,0.016910573467612267,0.02982652559876442,-0.026497671380639076
1696958194113838000,5.325838134765625,0.010519175790250301,0,0.019307348877191544
1696958194123851500,5.3358515625,0.026497671380639076,-0.0639139786362648,0.043807707726955414
1696958194133865000,5.345864990234375,0.021171506494283676,0.01171756349503994,-0.027562905102968216
1696958194143878700,5.355878662109375,0.010519175790250301,-0.00852186419069767,0.023568280041217804
1696958194153892000,5.36589208984375,0.027562905102968216,-0.02556559257209301,0.028894444927573204
1696958194163905500,5.375905517578125,0.014780107885599136,0.01704372838139534,-0.015845341607928276
1696958194173919000,5.3859189453125,0.011584409512579441,-0.01171756349503994,0.00226362026296556
1696958194183932400,5.395932373046875,0.025432437658309937,-0.0021304660476744175,0.04274247586727142
1696958194193946000,5.405946044921875,0.005193010903894901,0.007456631399691105,-0.050998032093048096
1696958194203959600,5.41595947265625,0.015845341607928276,-0.0106523297727108,0.029959678649902344
1696958194213973000,5.425972900390625,0.019041040912270546,-0.02556559257209301,0.0033288532868027687
1696958194223986400,5.435986328125,0.004127778112888336,0.02556559257209301,-0.060585130006074905
1696958194234000000,5.445999755859375,0.017975807189941406,-0.04047885537147522,0.06511236727237701
1696958194244013300,5.456013427734375,0.017975807189941406,-0.05965305119752884,-0.059519894421100616
1696958194254027000,5.466027099609375,-0.00226362026296556,0.05113118514418602,-0.033954303711652756
1696958194264040400,5.47604052734375,0.013714875094592571,-0.03515268862247467,0.026763979345560074
1696958194274054000,5.486053955078125,0.014780107885599136,-0.0426093190908432,-0.042476166039705276
1696958194284067300,5.4960673828125,-0.0001331541279796511,0.03834838792681694,-0.04673709720373154
1696958194294080800,5.506080810546875,0.012649642303586006,-0.01810896210372448,0.034220609813928604
1696958194304094500,5.516094482421875,0.009453942999243736,-0.03089175745844841,-0.06484606117010117
1696958194314108000,5.52610791015625,-0.0033288532868027687,0.06178351491689682,-0.023301972076296806
1696958194324121300,5.536121337890625,0.015845341607928276,-0.03621792420744896,0.017176883295178413
1696958194334134800,5.546134765625,0.007323476951569319,0.03408745676279068,-0.03928046673536301
1696958194344148200,5.556148193359375,-0.0001331541279796511,0.012782796286046505,-0.022236740216612816
1696958194354162000,5.566161865234375,0.015845341607928276,-0.02023942768573761,0.027829213067889214
1696958194364175400,5.57617529296875,0.007323476951569319,0.03728315606713295,-0.021171506494283676
1696958194374188800,5.586188720703125,-0.00226362026296556,0.01384802907705307,-0.019041040912270546
1696958194384202200,5.5962021484375,0.020106272771954536,0.0063913981430232525,0.09067796170711517
1696958194394215700,5.606215576171875,-0.0001331541279796511,0.0031956990715116262,-0.061650361865758896
1696958194404229400,5.6162294921875,0.0009320789249613881,0.06817491352558136,0.07043853402137756
1696958194414242800,5.626242919921875,0.019041040912270546,-0.04047885537147522,0.06404713541269302
1696958194424256300,5.63625634765625,-0.005459319334477186,0.06497921794652939,-0.029693370684981346
1696958194434269700,5.646269775390625,-0.0001331541279796511,0.009587096981704235,0.1194392517209053
1696958194444283100,5.656283203125,0.013714875094592571,-0.03728315606713295,0.036351077258586884
1696958194454296600,5.666296630859375,-0.010785484686493874,0.03941362351179123,0.023568280041217804
1696958194464310000,5.67631005859375,-0.009720250964164734,-0.01810896210372448,0.08322133123874664
1696958194474323500,5.686323486328125,0.006258244160562754,-0.07030537724494934,0.08641702681779861
1696958194484337000,5.6963369140625,-0.026763979345560074,-0.01917419396340847,-0.026497671380639076
1696958194494350300,5.706350341796875,-0.018242115154862404,-0.07137060910463333,0.15033100545406342
1696958194504363500,5.716363525390625,-0.004394086077809334,-0.1374150663614273,0.015046416781842709
1696958194514377000,5.726376953125,-0.034220609813928604,-0.04687025398015976,0.03209014609456062
1696958194524390400,5.736390380859375,-0.024633513763546944,-0.14274121820926666,0.0874822586774826
1696958194534403800,5.74640380859375,-0.015046416781842709,-0.09480573982000351,0.034220609813928604
1696958194544417300,5.756417236328125,-0.043807707726955414,-0.06284874677658081,-0.019041040912270546
1696958194554430700,5.7664306640625,-0.036351077258586884,-0.05113118514418602,0.09280842542648315
1696958194564444200,5.776444091796875,-0.023568280041217804,-0.10332760214805603,-0.052063263952732086
1696958194574457600,5.78645751953125,-0.04913387447595596,0.04900071769952774,-0.027562905102968216
1696958194584471000,5.796470947265625,-0.025698747485876083,-0.11397993564605713,0.07043853402137756
1696958194594484500,5.806484375,-0.017176883295178413,-0.15445879101753235,-0.08615072071552277
1696958194604498000,5.816497802734375,-0.028894444927573204,0.04900071769952774,0.024633513763546944
1696958194614511400,5.826511474609375,-0.008655018173158169,-0.14700216054916382,-0.005193010903894901
1696958194624524800,5.83652490234375,-0.007589785382151604,-0.12356702983379364,-0.038215234875679016
1696958194634538200,5.846538330078125,-0.016111649572849274,-0.02982652559876442,-0.017975807189941406
1696958194644551700,5.8565517578125,0.007323476951569319,-0.08415340632200241,0.0011983871227130294
1696958194654565000,5.866565185546875,-0.0001331541279796511,-0.09480573982000351,-0.055258963257074356
1696958194664578600,5.87657861328125,-0.013981183059513569,0.0021304660476744175,-0.040345702320337296
1696958194674592000,5.886592041015625,0.007323476951569319,-0.04473978653550148,-0.028628136962652206
1696958194684605400,5.89660546875,0.006258244160562754,0.01491326279938221,-0.0723026916384697
1696958194694619000,5.906618896484375,-0.0033288532868027687,-0.012782796286046505,-0.07017222791910172
1696958194704632300,5.91663232421875,0.008388710208237171,-0.03941362351179123,-0.007323476951569319
1696958194714645800,5.926645751953125,-0.00226362026296556,0.05965305119752884,-0.09147688746452332
1696958194724659200,5.9366591796875,-0.005459319334477186,0.05219641700387001,-0.025432437658309937
1696958194734673000,5.9466728515625,0.017975807189941406,-0.02876129187643528,-0.016910573467612267
1696958194744686300,5.956686279296875,0.001997311832383275,0.05645735189318657,-0.06910699605941772
1696958194754699800,5.96669970703125,-0.018242115154862404,0.11291470378637314,-0.019041040912270546
1696958194764713200,5.976713134765625,0.0009320789249613881,-0.004260932095348835,0.027829213067889214
1696958194774726700,5.9867265625,-0.019307348877191544,0.09161003679037094,-0.07656362652778625
1696958194784740400,5.996740234375,-0.020372580736875534,0.11611039936542511,0.050199106335639954
1696958194794753800,6.00675390625,0.0009320789249613881,-0.03834838792681694,-0.022236740216612816
1696958194804767200,6.016767333984375,-0.027829213067889214,0.09374050796031952,-0.040345702320337296
1696958194814780700,6.02678076171875,-0.03528584539890289,0.03621792420744896,0.027829213067889214
1696958194824794000,6.036794189453125,-0.025698747485876083,0.03089175745844841,0.025698747485876083
1696958194834807800,6.046807861328125,-0.04274247586727142,0.08628387749195099,-0.04673709720373154
1696958194844821200,6.0568212890625,-0.043807707726955414,0.04900071769952774,0.04274247586727142
1696958194854834700,6.066834716796875,-0.03528584539890289,0.02663082629442215,0.011850717477500439
1696958194864848100,6.07684814453125,-0.061916667968034744,0.07563154399394989,-0.037150003015995026
1696958194874861600,6.086861572265625,-0.051264338195323944,0.04473978653550148,0.058720968663692474
1696958194884875300,6.096875244140625,-0.048068638890981674,0.01384802907705307,0.007589785382151604
1696958194894888700,6.106888671875,-0.07150376588106155,0.11930610239505768,-0.028628136962652206
1696958194904902100,6.116902099609375,-0.05659050494432449,0.009587096981704235,0.053394805639982224
1696958194914915600,6.12691552734375,-0.053394805639982224,0.03728315606713295,-0.010519175790250301
1696958194924929000,6.136928955078125,-0.07043853402137756,0.06497921794652939,-0.001997311832383275
1696958194934942700,6.146942626953125,-0.05659050494432449,0.01384802907705307,0.037416309118270874
1696958194944956200,6.1569560546875,-0.04913387447595596,0.04580501839518547,0.020372580736875534
1696958194954969600,6.166969482421875,-0.07043853402137756,0.03515268862247467,-0.045671865344047546
1696958194964983000,6.176983154296875,-0.04913387447595596,0.04154408723115921,0.07896039634943008
1696958194974996500,6.18699658203125,-0.044872939586639404,0.01384802907705307,-0.030758604407310486
1696958194985010200,6.19701025390625,-0.0555252730846405,0.03515268862247467,-0.009453942999243736
1696958194995023600,6.207023681640625,-0.034220609813928604,0.01171756349503994,0.07043853402137756
1696958195005037000,6.217037109375,-0.037416309118270874,-0.007456631399691105,-0.055258963257074356
1696958195015050500,6.227050537109375,-0.047003407031297684,0.08415340632200241,0.023568280041217804
1696958195025064000,6.23706396484375,-0.020372580736875534,-0.06071828305721283,0.03954677656292915
1696958195035077400,6.247077392578125,-0.031024912372231483,0.04900071769952774,-0.060585130006074905
1696958195045091000,6.257091064453125,-0.031024912372231483,0.01704372838139534,0.07256899774074554
1696958195055104500,6.2671044921875,-0.016111649572849274,-0.09374050796031952,-0.027562905102968216
1696958195065118000,6.277117919921875,-0.026763979345560074,0.08841434121131897,0.016111649572849274
1696958195075131400,6.28713134765625,-0.022503048181533813,-0.02876129187643528,-0.006258244160562754
1696958195085144800,6.297144775390625,-0.011850717477500439,-0.02769605815410614,0.041677240282297134
1696958195095158500,6.307158447265625,-0.022503048181533813,-0.0010652330238372087,-0.029693370684981346
1696958195105172000,6.317171875,-0.019307348877191544,-0.02982652559876442,0.025698747485876083
1696958195115185400,6.327185302734375,-0.010785484686493874,-0.004260932095348835,0.025698747485876083
1696958195125198800,6.33719873046875,-0.029959678649902344,-0.0010652330238372087,-0.031823836266994476
1696958195135212300,6.34721240234375,-0.019307348877191544,-0.0213046595454216,0.033155377954244614
1696958195145226000,6.35722607421875,-0.016111649572849274,0.01491326279938221,0.026763979345560074
1696958195155239400,6.367239501953125,-0.034220609813928604,0.0021304660476744175,-0.03288906812667847
1696958195165252900,6.3772529296875,-0.024633513763546944,-0.0159784946590662,0.051264338195323944
1696958195175266300,6.387266357421875,-0.023568280041217804,0,0.0011983871227130294
1696958195185279700,6.39727978515625,-0.03954677656292915,0.01810896210372448,-0.016910573467612267
1696958195195293400,6.40729345703125,-0.025698747485876083,-0.0159784946590662,0.06298190355300903
1696958195205307000,6.417306884765625,-0.031024912372231483,-0.03089175745844841,-0.015845341607928276
1696958195215320300,6.4273203125,-0.044872939586639404,0.03408745676279068,-0.012649642303586006
1696958195225333800,6.437333740234375,-0.026763979345560074,-0.03408745676279068,0.09280842542648315
1696958195235347200,6.44734716796875,-0.047003407031297684,-0.02769605815410614,-0.08934641629457474
1696958195245361000,6.45736083984375,-0.044872939586639404,0.04793548583984375,0.07363422960042953
1696958195255374300,6.467374267578125,-0.029959678649902344,-0.0532616525888443,0.0033288532868027687
1696958195265387800,6.4773876953125,-0.051264338195323944,0.01917419396340847,-0.03928046673536301
1696958195275401200,6.487401123046875,-0.03954677656292915,0.0319569893181324,0.047003407031297684
1696958195285414700,6.49741455078125,-0.037416309118270874,-0.04687025398015976,-0.025432437658309937
1696958195295428400,6.507428466796875,-0.050199106335639954,0.06071828305721283,-0.014780107885599136
1696958195305441800,6.51744189453125,-0.037416309118270874,-0.02663082629442215,0.018242115154862404
1696958195315455200,6.527455322265625,-0.040612008422613144,0.01384802907705307,-0.025432437658309937
1696958195325468700,6.53746875,-0.040612008422613144,0.0063913981430232525,-0.016910573467612267
1696958195335482000,6.547482177734375,-0.028894444927573204,-0.02769605815410614,0.018242115154862404
1696958195345495600,6.55749560546875,-0.03954677656292915,-0.012782796286046505,-0.055258963257074356
1696958195355509200,6.56750927734375,-0.033155377954244614,0.01384802907705307,0.018242115154862404
1696958195365522700,6.577522705078125,-0.020372580736875534,-0.04473978653550148,-0.001997311832383275
1696958195375536000,6.5875361328125,-0.040612008422613144,0.0053261648863554,-0.059519894421100616
1696958195385549600,6.597549560546875,-0.025698747485876083,0.02450035884976387,0.028894444927573204
1696958195395563000,6.60756298828125,-0.016111649572849274,-0.04580501839518547,-0.012649642303586006
1696958195405576700,6.61757666015625,-0.04593817517161369,0.04154408723115921,-0.06910699605941772
1696958195415590100,6.627590087890625,-0.022503048181533813,0.01810896210372448,0.05232957378029823
1696958195425603600,6.637603515625,-0.016111649572849274,-0.01810896210372448,-0.030758604407310486
1696958195435617000,6.647616943359375,-0.041677240282297134,0.02556559257209301,-0.055258963257074356
1696958195445630500,6.65763037109375,-0.024633513763546944,0.0053261648863554,0.06298190355300903
1696958195455644200,6.66764404296875,-0.024633513763546944,0,-0.06697652488946915
1696958195465657600,6.67765771484375,-0.03209014609456062,0.05432688444852829,0.012915950268507004
1696958195475671000,6.687671142578125,-0.019307348877191544,-0.08308817446231842,0.028894444927573204
1696958195485684500,6.6976845703125,-0.036351077258586884,0.0319569893181324,-0.07443315535783768
1696958195495698000,6.707697998046875,-0.028894444927573204,0.04367455467581749,0.05978620424866676
1696958195505711600,6.717711669921875,-0.018242115154862404,-0.07030537724494934,-0.013714875094592571
1696958195515725000,6.72772509765625,-0.043807707726955414,0.03089175745844841,-0.029693370684981346
1696958195525738500,6.737738525390625,-0.028894444927573204,0.04367455467581749,0.037416309118270874
1696958195535752000,6.747751953125,-0.025698747485876083,-0.01917419396340847,0.004394086077809334
1696958195545765400,6.757765380859375,-0.04913387447595596,0.01171756349503994,-0.060585130006074905
1696958195555779000,6.767779052734375,-0.031024912372231483,0.07776200771331787,0.08535179495811462
1696958195565792500,6.77779248046875,-0.029959678649902344,0.0031956990715116262,-0.0723026916384697
1696958195575806000,6.787805908203125,-0.054460037499666214,0.13634982705116272,0.0001331541279796511
1696958195585819400,6.7978193359375,-0.024633513763546944,-0.0053261648863554,0.057655736804008484
1696958195595832800,6.807832763671875,-0.05978620424866676,0.11397993564605713,-0.13941237330436707
1696958195605846500,6.817846435546875,-0.047003407031297684,0.13528458774089813,0.10346075892448425
1696958195615860000,6.82785986328125,-0.048068638890981674,0.01491326279938221,-0.1031944528222084
1696958195625873400,6.837873291015625,-0.058720968663692474,0.14593692123889923,0.010785484686493874
1696958195635886800,6.847886962890625,-0.051264338195323944,0.04793548583984375,-0.033954303711652756
1696958195645900300,6.857900390625,-0.04913387447595596,0.08415340632200241,-0.005193010903894901
1696958195655913700,6.867913818359375,-0.06298190355300903,0.04793548583984375,-0.055258963257074356
1696958195665927400,6.877927490234375,-0.048068638890981674,0.06178351491689682,0.013981183059513569
1696958195675940900,6.88794091796875,-0.0555252730846405,0.0213046595454216,-0.047802332788705826
1696958195685954300,6.897954345703125,-0.06298190355300903,0.04793548583984375,-0.044606633484363556
1696958195695967700,6.9079677734375,-0.050199106335639954,0.05219641700387001,0.048068638890981674
1696958195705981200,6.917981201171875,-0.06511236727237701,0.00852186419069767,-0.10639014840126038
1696958195715995000,6.927994873046875,-0.057655736804008484,0.05965305119752884,0.029959678649902344
1696958195726008300,6.93800830078125,-0.04913387447595596,0.01384802907705307,-0.028628136962652206
1696958195736021800,6.948021728515625,-0.06937330216169357,0.0852186381816864,-0.07549838721752167
1696958195746035200,6.95803515625,-0.054460037499666214,0.05645735189318657,0.041677240282297134
1696958195756048600,6.968048583984375,-0.053394805639982224,0.05113118514418602,-0.042476166039705276
1696958195766062300,6.978062255859375,-0.066177599132061,0.09906667470932007,-0.05312849581241608
1696958195776075800,6.98807568359375,-0.041677240282297134,0.02556559257209301,0.03848154470324516
1696958195786089200,6.998089111328125,-0.05659050494432449,0.0852186381816864,-0.07975932210683823
1696958195796102700,7.0081025390625,-0.05659050494432449,0.06604444980621338,0.012915950268507004
1696958195806116000,7.0181162109375,-0.037416309118270874,0.03089175745844841,0.012915950268507004
1696958195816129800,7.0281298828125,-0.054460037499666214,0.05219641700387001,-0.059519894421100616
1696958195826143200,7.038143310546875,-0.041677240282297134,0.0021304660476744175,0.013981183059513569
1696958195836156700,7.04815673828125,-0.031024912372231483,0.009587096981704235,0.018242115154862404
1696958195846170000,7.058170166015625,-0.050199106335639954,0.02556559257209301,-0.0829550251364708
1696958195856183600,7.06818359375,-0.034220609813928604,-0.01491326279938221,0.08322133123874664
1696958195866197200,7.078197265625,-0.03528584539890289,0.03621792420744896,-0.059519894421100616
1696958195876210700,7.088210693359375,-0.03954677656292915,-0.004260932095348835,0.009720250964164734
1696958195886224100,7.09822412109375,-0.024633513763546944,0.01704372838139534,0.022503048181533813
1696958195896237600,7.108237548828125,-0.03528584539890289,0.02236989326775074,-0.019041040912270546
1696958195906251000,7.1182509765625,-0.036351077258586884,0.007456631399691105,-0.012649642303586006
1696958195916264700,7.1282646484375,-0.028894444927573204,0.02876129187643528,0.06937330216169357
1696958195926278100,7.138278076171875,-0.044872939586639404,-0.01917419396340847,-0.05632419511675835
1696958195936291600,7.14829150390625,-0.027829213067889214,0.02023942768573761,0.07576470077037811
1696958195946305000,7.158304931640625,-0.03209014609456062,-0.06497921794652939,0.006524552125483751
1696958195956318500,7.168318359375,-0.03954677656292915,-0.03941362351179123,-0.027562905102968216
1696958195966332000,7.178331787109375,-0.028894444927573204,-0.02982652559876442,0.11517832428216934
1696958195976345600,7.188345703125,-0.041677240282297134,-0.10545806586742401,-0.038215234875679016
1696958195986359000,7.198359130859375,-0.033155377954244614,0.0159784946590662,0.07363422960042953
1696958195996372500,7.20837255859375,-0.03954677656292915,-0.09800143539905548,0.019307348877191544
1696958196006386000,7.218385986328125,-0.040612008422613144,-0.05645735189318657,0.019307348877191544
1696958196016399400,7.2283994140625,-0.036351077258586884,-0.0021304660476744175,0.06937330216169357
1696958196026413000,7.2384130859375,-0.04274247586727142,-0.09161003679037094,-0.010519175790250301
1696958196036426500,7.248426513671875,-0.03209014609456062,0,0.09387365728616714
1696958196046440000,7.25843994140625,-0.041677240282297134,-0.0852186381816864,0.0001331541279796511
1696958196056453400,7.268453369140625,-0.037416309118270874,-0.03302222490310669,0.05232957378029823
1696958196066466800,7.278466796875,-0.04593817517161369,-0.02343512699007988,0.029959678649902344
1696958196076480500,7.28848046875,-0.034220609813928604,-0.10545806586742401,0.066177599132061
1696958196086494000,7.298493896484375,-0.03848154470324516,-0.04154408723115921,0.03848154470324516
1696958196096507400,7.30850732421875,-0.04274247586727142,-0.04473978653550148,0.031024912372231483
1696958196106520800,7.318520751953125,-0.031024912372231483,-0.05539211630821228,0.0768299326300621
1696958196116534300,7.3285341796875,-0.041677240282297134,-0.08734910935163498,0.009720250964164734
1696958196126548000,7.3385478515625,-0.03528584539890289,-0.03515268862247467,0.06298190355300903
1696958196136561400,7.3485615234375,-0.041677240282297134,-0.05432688444852829,0.029959678649902344
1696958196146574800,7.358574951171875,-0.040612008422613144,-0.02343512699007988,0.047003407031297684
1696958196156588300,7.36858837890625,-0.04593817517161369,0,0.031024912372231483
1696958196166601700,7.378601806640625,-0.03848154470324516,-0.03621792420744896,0.047003407031297684
1696958196176615400,7.388615478515625,-0.047003407031297684,-0.02343512699007988,0.018242115154862404
1696958196186628900,7.39862890625,-0.041677240282297134,-0.009587096981704235,0.047003407031297684
1696958196196642300,7.408642333984375,-0.044872939586639404,0.0010652330238372087,0.031024912372231483
1696958196206655700,7.41865576171875,-0.03954677656292915,-0.05965305119752884,0.026763979345560074
1696958196216669200,7.428669189453125,-0.041677240282297134,0.0053261648863554,0.034220609813928604
1696958196226683000,7.438682861328125,-0.037416309118270874,-0.08202294260263443,0.047003407031297684
1696958196236696300,7.4486962890625,-0.044872939586639404,-0.01491326279938221,-0.027562905102968216
1696958196246709800,7.458709716796875,-0.03528584539890289,-0.00852186419069767,0.11837401986122131
1696958196256723200,7.46872314453125,-0.043807707726955414,-0.08841434121131897,-0.0712374597787857
1696958196266736600,7.478736572265625,-0.04274247586727142,0.08415340632200241,0.10559122264385223
1696958196276750300,7.488750244140625,-0.03848154470324516,-0.09161003679037094,0.005459319334477186
1696958196286763800,7.498763671875,-0.04913387447595596,0.03408745676279068,0.008655018173158169
1696958196296777200,7.508777099609375,-0.034220609813928604,-0.0106523297727108,0.08428656309843063
1696958196306790700,7.518790771484375,-0.053394805639982224,-0.009587096981704235,-0.045671865344047546
1696958196316804000,7.52880419921875,-0.03848154470324516,0.06284874677658081,0.10452599078416824
1696958196326817500,7.538817626953125,-0.047003407031297684,-0.07030537724494934,-0.035019535571336746
1696958196336831200,7.548831298828125,-0.03528584539890289,0.0532616525888443,0.06298190355300903
1696958196346844700,7.5588447265625,-0.040612008422613144,-0.02876129187643528,0.024633513763546944
1696958196356858000,7.568858154296875,-0.034220609813928604,-0.01491326279938221,-0.008388710208237171
1696958196366871600,7.57887158203125,-0.036351077258586884,-0.0021304660476744175,0.0778951644897461
1696958196376885000,7.588885009765625,-0.031024912372231483,-0.04473978653550148,-0.03928046673536301
1696958196386898700,7.598898681640625,-0.036351077258586884,0.0213046595454216,0.07896039634943008
1696958196396912000,7.608912109375,-0.023568280041217804,-0.06817491352558136,-0.014780107885599136
1696958196406925600,7.618925537109375,-0.031024912372231483,0.0010652330238372087,0.03209014609456062
1696958196416939000,7.62893896484375,-0.021437814459204674,-0.03408745676279068,0.03209014609456062
1696958196426952400,7.638952392578125,-0.031024912372231483,0.0106523297727108,0.011850717477500439
1696958196436966100,7.648966064453125,-0.019307348877191544,0.01917419396340847,0.05232957378029823
1696958196446979600,7.6589794921875,-0.026763979345560074,0.02769605815410614,0.015046416781842709
1696958196456993000,7.668992919921875,-0.020372580736875534,0.06924014538526535,0.061916667968034744
1696958196467006500,7.67900634765625,-0.024633513763546944,0.08628387749195099,0.033155377954244614
1696958196477020000,7.68902001953125,-0.021437814459204674,0.07243584841489792,0.07363422960042953
1696958196487033600,7.69903369140625,-0.019307348877191544,0.08841434121131897,0.037416309118270874
1696958196497047000,7.709047119140625,-0.020372580736875534,0.1278279572725296,0.09174319356679916
1696958196507060500,7.719060546875,-0.022503048181533813,0.10013190656900406,0.03528584539890289
1696958196517074000,7.729073974609375,-0.015046416781842709,0.11611039936542511,0.08428656309843063
1696958196527087400,7.73908740234375,-0.016111649572849274,0.09267527610063553,0.047003407031297684
1696958196537101000,7.74910107421875,-0.013981183059513569,0.09800143539905548,0.06830807030200958
1696958196547114500,7.759114501953125,-0.019307348877191544,0.10758853703737259,0.040612008422613144
1696958196557128000,7.7691279296875,-0.024633513763546944,0.08095771074295044,0.036351077258586884
1696958196567141400,7.779141357421875,-0.025698747485876083,0.10439283400774002,0.066177599132061
1696958196577154800,7.78915478515625,-0.034220609813928604,0.0852186381816864,-0.0009320789249613881
1696958196587168500,7.79916845703125,-0.025698747485876083,0.03621792420744896,0.03848154470324516
1696958196597182000,7.809181884765625,-0.041677240282297134,0.11504516750574112,0.00226362026296556
1696958196607195400,7.8191953125,-0.048068638890981674,0.1501978635787964,0.033155377954244614
1696958196617208800,7.829208740234375,-0.054460037499666214,0.13634982705116272,-0.009453942999243736
1696958196627222300,7.83922216796875,-0.05232957378029823,0.18641577661037445,0.00226362026296556
1696958196637235700,7.849235595703125,-0.057655736804008484,0.2354165017604828,0.011850717477500439
1696958196647249400,7.85924951171875,-0.05232957378029823,0.1267627328634262,-0.03288906812667847
1696958196657262800,7.869262939453125,-0.06511236727237701,0.19600287079811096,-0.048867564648389816
1696958196667276300,7.8792763671875,-0.06830807030200958,0.23115555942058563,-0.014780107885599136
1696958196677289700,7.889289794921875,-0.07469946891069412,0.1800243854522705,-0.06697652488946915
1696958196687303200,7.89930322265625,-0.07469946891069412,0.14274121820926666,-0.03608476743102074
1696958196697316900,7.90931689453125,-0.06830807030200958,0.17576344311237335,-0.043541401624679565
1696958196707330300,7.919330322265625,-0.066177599132061,0.0852186381816864,-0.08721595257520676
1696958196717343700,7.92934375,-0.06937330216169357,0.12569749355316162,-0.028628136962652206
1696958196727357200,7.939357177734375,-0.06511236727237701,0.10226237028837204,-0.055258963257074356
1696958196737370600,7.94937060546875,-0.0555252730846405,0.02769605815410614,-0.07549838721752167
1696958196747384300,7.95938427734375,-0.0555252730846405,0.08947957307100296,-0.023301972076296806
1696958196757397800,7.969397705078125,-0.051264338195323944,0.04154408723115921,-0.04993279650807381
1696958196767411200,7.9794111328125,-0.04274247586727142,0.05858781561255455,-0.055258963257074356
1696958196777424600,7.989424560546875,-0.036351077258586884,0.03302222490310669,-0.030758604407310486
1696958196787438000,7.99943798828125,-0.018242115154862404,0.0213046595454216,-0.050998032093048096
1696958196797451800,8.00945166015625,-0.007589785382151604,-0.004260932095348835,-0.023301972076296806
1696958196807465200,8.01946533203125,-0.005459319334477186,0.02876129187643528,-0.044606633484363556
1696958196817478700,8.029478759765626,0.0009320789249613881,-0.04473978653550148,-0.022236740216612816
1696958196827492000,8.0394921875,0.012649642303586006,0.02450035884976387,-0.030758604407310486
1696958196837505500,8.049505615234375,0.012649642303586006,-0.02343512699007988,0.008655018173158169
1696958196847519200,8.059519287109374,0.033954303711652756,-0.07669677585363388,-0.050998032093048096
1696958196857532700,8.06953271484375,0.037150003015995026,-0.05645735189318657,0.009720250964164734
1696958196867546000,8.079546142578126,0.037150003015995026,-0.07882724702358246,-0.040345702320337296
1696958196877559600,8.0895595703125,0.030758604407310486,-0.03941362351179123,0.025698747485876083
1696958196887573000,8.099572998046876,0.050998032093048096,-0.11611039936542511,-0.03608476743102074
1696958196897586700,8.109586669921875,0.04673709720373154,-0.07350108027458191,0.013981183059513569
1696958196907600100,8.11960009765625,0.050998032093048096,-0.1278279572725296,-0.025432437658309937
1696958196917613600,8.129613525390624,0.044606633484363556,-0.06924014538526535,-0.0009320789249613881
1696958196927627000,8.139626953125,0.050998032093048096,-0.1597849577665329,-0.025432437658309937
1696958196937640400,8.149640380859376,0.042476166039705276,-0.08095771074295044,0.010785484686493874
1696958196947654000,8.15965380859375,0.03928046673536301,-0.12143656611442566,-0.017975807189941406
1696958196957667600,8.16966748046875,0.03928046673536301,-0.0745663121342659,-0.001997311832383275
1696958196967681000,8.179680908203125,0.037150003015995026,-0.16404588520526886,-0.007323476951569319
1696958196977694500,8.189694580078125,0.035019535571336746,-0.10013190656900406,-0.008388710208237171
1696958196987708000,8.1997080078125,0.024367205798625946,-0.1171756312251091,-0.009453942999243736
1696958196997721300,8.209721435546875,0.028628136962652206,-0.1267627328634262,-0.021171506494283676
1696958197007735000,8.219735107421876,0.019041040912270546,-0.07776200771331787,0.023568280041217804
1696958197017748500,8.22974853515625,0.016910573467612267,-0.12250179797410965,-0.026497671380639076
1696958197027762000,8.239761962890626,0.010519175790250301,-0.07030537724494934,0.009720250964164734
1696958197037775400,8.249775390625,0.012649642303586006,-0.1288931965827942,-0.004127778112888336
1696958197047788800,8.259788818359375,0.008388710208237171,-0.06924014538526535,0.013981183059513569
1696958197057802500,8.269802490234374,0.0009320789249613881,-0.11930610239505768,0.024633513763546944
1696958197067816000,8.27981591796875,0.0030625448562204838,-0.05858781561255455,-0.020106272771954536
1696958197077829400,8.289829345703126,0.0009320789249613881,-0.07030537724494934,0.0981345921754837
1696958197087842800,8.2998427734375,-0.007589785382151604,-0.14061075448989868,-0.0936073511838913
1696958197097856300,8.309856201171876,-0.0001331541279796511,0.0063913981430232525,0.13861344754695892
1696958197107870000,8.319869873046875,-0.0011983871227130294,-0.15445879101753235,-0.07762885838747025
1696958197117883400,8.32988330078125,0.006258244160562754,-0.02236989326775074,0.08322133123874664
1696958197127896800,8.339896728515624,0.004127778112888336,-0.11291470378637314,-0.030758604407310486
1696958197137910300,8.34991015625,0.005193010903894901,-0.05113118514418602,0.023568280041217804
1696958197147923700,8.359923828125,0.009453942999243736,-0.08841434121131897,-0.0009320789249613881
1696958197157937400,8.3699375,0.009453942999243736,-0.07989247888326645,-0.014780107885599136
1696958197167950800,8.379950927734376,0.014780107885599136,-0.06178351491689682,0.010785484686493874
1696958197177964300,8.38996435546875,0.017975807189941406,-0.09054480493068695,-0.04673709720373154
1696958197187977700,8.399977783203125,0.024367205798625946,-0.06817491352558136,0.0001331541279796511
1696958197197991200,8.4099912109375,0.015845341607928276,-0.04793548583984375,-0.038215234875679016
1696958197208004900,8.4200048828125,0.028628136962652206,-0.03834838792681694,0.008655018173158169
1696958197218018300,8.430018310546876,0.024367205798625946,-0.03408745676279068,-0.058454662561416626
1696958197228031700,8.44003173828125,0.020106272771954536,0.0319569893181324,-0.007323476951569319
1696958197238045200,8.450045166015625,0.029693370684981346,0.0031956990715116262,-0.021171506494283676
1696958197248058600,8.46005859375,0.020106272771954536,0.03941362351179123,-0.061650361865758896
1696958197258072000,8.470072021484375,0.037150003015995026,0.02769605815410614,0.036351077258586884
1696958197268085800,8.480085693359374,0.030758604407310486,-0.0031956990715116262,-0.057389430701732635
1696958197278099200,8.49009912109375,0.028628136962652206,0.06071828305721283,0.005459319334477186
1696958197288112600,8.500112548828126,0.03928046673536301,0.0021304660476744175,0.007589785382151604
1696958197298126000,8.5101259765625,0.029693370684981346,0.02663082629442215,-0.027562905102968216
1696958197308139500,8.520139404296875,0.03928046673536301,0.01917419396340847,0.03209014609456062
1696958197318153200,8.5301533203125,0.041410934180021286,0.03302222490310669,0.007589785382151604
1696958197328166700,8.540166748046875,0.033954303711652756,0.00852186419069767,-0.007323476951569319
1696958197338180000,8.55018017578125,0.038215234875679016,0.0319569893181324,0.057655736804008484
1696958197348193500,8.560193603515625,0.029693370684981346,0.04687025398015976,-0.013714875094592571
1696958197358207000,8.57020703125,0.026497671380639076,0.04687025398015976,0.022503048181533813
1696958197368220700,8.580220703125,0.03928046673536301,0.02663082629442215,0.061916667968034744
1696958197378234000,8.590234130859375,0.021171506494283676,0.08628387749195099,-0.024367205798625946
1696958197388247600,8.60024755859375,0.033954303711652756,0.0745663121342659,0.06511236727237701
1696958197398261000,8.610260986328125,0.03288906812667847,0.05858781561255455,0.054460037499666214
1696958197408274400,8.6202744140625,0.017975807189941406,0.12356702983379364,-0.008388710208237171
1696958197418288000,8.6302880859375,0.028628136962652206,0.10332760214805603,0.08961272984743118
1696958197428301600,8.640301513671876,0.037150003015995026,0.08202294260263443,0.05232957378029823
1696958197438315000,8.65031494140625,0.028628136962652206,0.0532616525888443,-0.03928046673536301
1696958197448328400,8.660328369140625,0.041410934180021286,0.0852186381816864,0.13754820823669434
1696958197458342000,8.670341796875,0.030758604407310486,0.05006595328450203,-0.041410934180021286
1696958197468355600,8.68035546875,0.027562905102968216,0.07882724702358246,0.037416309118270874
1696958197478369000,8.690369140625,0.03928046673536301,-0.0021304660476744175,0.047003407031297684
1696958197488382500,8.700382568359375,0.038215234875679016,0.03302222490310669,-0.011584409512579441
1696958197498396000,8.71039599609375,0.025432437658309937,0.05858781561255455,-0.005193010903894901
1696958197508409300,8.720409423828125,0.028628136962652206,-0.004260932095348835,0.018242115154862404
1696958197518423000,8.730423095703125,0.028628136962652206,0.03302222490310669,-0.014780107885599136
1696958197528436500,8.7404365234375,0.017975807189941406,0.02663082629442215,-0.019041040912270546
1696958197538450000,8.750449951171875,0.014780107885599136,-0.0010652330238372087,-0.009453942999243736
1696958197548463400,8.76046337890625,0.021171506494283676,0.0063913981430232525,-0.015845341607928276
1696958197558476800,8.770476806640625,0.012649642303586006,-0.0106523297727108,-0.059519894421100616
1696958197568490200,8.780490234375,0.008388710208237171,-0.0426093190908432,-0.009453942999243736
1696958197578504000,8.79050390625,0.015845341607928276,-0.0159784946590662,-0.03608476743102074
1696958197588517400,8.800517333984375,0.011584409512579441,-0.0159784946590662,-0.030758604407310486
1696958197598530800,8.81053076171875,0.006258244160562754,-0.04793548583984375,-0.057389430701732635
1696958197608544300,8.820544189453125,0.011584409512579441,-0.01171756349503994,-0.004127778112888336
1696958197618557700,8.8305576171875,0.017975807189941406,-0.03302222490310669,-0.057389430701732635
1696958197628571100,8.840571044921875,0.015845341607928276,-0.05006595328450203,-0.031823836266994476
1696958197638584600,8.85058447265625,0.010519175790250301,-0.02663082629442215,-0.03608476743102074
1696958197648598000,8.860597900390625,0.026497671380639076,0,-0.016910573467612267
1696958197658611500,8.870611572265625,0.023301972076296806,-0.05219641700387001,-0.043541401624679565
1696958197668625000,8.880625,0.019041040912270546,-0.03089175745844841,-0.031823836266994476
1696958197678638300,8.890638427734375,0.029693370684981346,-0.01704372838139534,-0.001997311832383275
1696958197688651800,8.90065185546875,0.037150003015995026,-0.03621792420744896,-0.03608476743102074
1696958197698665200,8.910665283203125,0.031823836266994476,-0.0532616525888443,-0.022236740216612816
1696958197708678700,8.9206787109375,0.029693370684981346,-0.0213046595454216,-0.008388710208237171
1696958197718692000,8.930692138671875,0.044606633484363556,-0.009587096981704235,-0.001997311832383275
1696958197728705500,8.94070556640625,0.042476166039705276,-0.08415340632200241,-0.031823836266994476
1696958197738719000,8.950718994140624,0.033954303711652756,-0.0031956990715116262,0.0011983871227130294
1696958197748732400,8.960732421875,0.040345702320337296,0.0021304660476744175,-0.012649642303586006
1696958197758745900,8.970745849609376,0.04673709720373154,-0.04473978653550148,-0.009453942999243736
1696958197768759300,8.98075927734375,0.037150003015995026,-0.04900071769952774,-0.045671865344047546
1696958197778772700,8.990772705078125,0.035019535571336746,0.01491326279938221,-0.001997311832383275
1696958197788786200,9.0007861328125,0.045671865344047546,-0.02236989326775074,-0.040345702320337296
1696958197798799600,9.010799560546875,0.040345702320337296,-0.0213046595454216,-0.041410934180021286
1696958197808813000,9.02081298828125,0.031823836266994476,-0.05539211630821228,-0.044606633484363556
1696958197818826500,9.030826416015625,0.03608476743102074,0.0213046595454216,-0.025432437658309937
1696958197828840000,9.04083984375,0.038215234875679016,-0.01171756349503994,-0.028628136962652206
1696958197838853400,9.050853271484375,0.031823836266994476,-0.05219641700387001,-0.050998032093048096
1696958197848866800,9.06086669921875,0.023301972076296806,0.03834838792681694,0.010785484686493874
1696958197858880300,9.07088037109375,0.030758604407310486,0.009587096981704235,-0.037150003015995026
1696958197868893700,9.080893798828125,0.026497671380639076,0.007456631399691105,0.020372580736875534
1696958197878907100,9.0909072265625,0.015845341607928276,0.01384802907705307,-0.011584409512579441
1696958197888920600,9.100920654296875,0.019041040912270546,0.07137060910463333,0.008655018173158169
1696958197898934000,9.11093408203125,0.028628136962652206,0.009587096981704235,0.040612008422613144
1696958197908947500,9.120947509765625,0.021171506494283676,-0.04367455467581749,-0.03288906812667847
1696958197918961000,9.1309609375,0.016910573467612267,0.02769605815410614,0.06830807030200958
1696958197928974300,9.140974365234374,0.025432437658309937,0.01810896210372448,-0.006258244160562754
1696958197938987800,9.15098779296875,0.022236740216612816,0.03515268862247467,0.03954677656292915
1696958197949001200,9.161001220703126,0.016910573467612267,-0.02982652559876442,0.0011983871227130294
1696958197959014700,9.1710146484375,0.019041040912270546,0.05858781561255455,0.029959678649902344
1696958197969028000,9.181028076171875,0.028628136962652206,0.04687025398015976,0.034220609813928604
1696958197979041500,9.19104150390625,0.024367205798625946,-0.02876129187643528,-0.006258244160562754
1696958197989055000,9.201054931640625,0.015845341607928276,0.05113118514418602,0.03209014609456062
1696958197999068400,9.211068359375,0.026497671380639076,0.04473978653550148,0.025698747485876083
1696958198009081900,9.221081787109375,0.031823836266994476,-0.01491326279938221,0.0011983871227130294
1696958198019095300,9.23109521484375,0.023301972076296806,-0.01810896210372448,0.00226362026296556
1696958198029108700,9.241108642578125,0.028628136962652206,0.007456631399691105,0.028894444927573204
1696958198039122200,9.2511220703125,0.033954303711652756,0.007456631399691105,-0.001997311832383275
1696958198049135600,9.261135498046874,0.028628136962652206,-0.0426093190908432,-0.009453942999243736
1696958198059149000,9.271149169921875,0.028628136962652206,-0.02663082629442215,0.021437814459204674
1696958198069162500,9.28116259765625,0.031823836266994476,0.02023942768573761,-0.011584409512579441
1696958198079176000,9.291176025390625,0.035019535571336746,-0.02556559257209301,0.009720250964164734
1696958198089189400,9.301189453125,0.024367205798625946,-0.04793548583984375,-0.017975807189941406
1696958198099202800,9.311202880859375,0.029693370684981346,0.03089175745844841,0.025698747485876083
1696958198109216300,9.32121630859375,0.03288906812667847,-0.004260932095348835,-0.020106272771954536
1696958198119229700,9.331229736328124,0.026497671380639076,-0.01810896210372448,-0.0009320789249613881
1696958198129243100,9.3412431640625,0.021171506494283676,0.02023942768573761,0.00226362026296556
1696958198139256600,9.351256591796876,0.031823836266994476,0.04367455467581749,0.0033288532868027687
1696958198149270000,9.36127001953125,0.028628136962652206,-0.03408745676279068,-0.019041040912270546
1696958198159283500,9.371283447265625,0.022236740216612816,0.01810896210372448,0.009720250964164734
1696958198169297000,9.381296875,0.030758604407310486,0.02023942768573761,0.0011983871227130294
1696958198179310300,9.391310302734375,0.031823836266994476,0,-0.023301972076296806
1696958198189324000,9.401323974609374,0.025432437658309937,-0.01491326279938221,0.010785484686493874
1696958198199337500,9.41133740234375,0.030758604407310486,-0.02023942768573761,-0.016910573467612267
1696958198209351000,9.421350830078126,0.037150003015995026,-0.0031956990715116262,0.020372580736875534
1696958198219364400,9.4313642578125,0.028628136962652206,-0.0532616525888443,-0.041410934180021286
1696958198229377800,9.441377685546875,0.030758604407310486,-0.02556559257209301,0.036351077258586884
1696958198239391200,9.45139111328125,0.035019535571336746,-0.04047885537147522,-0.027562905102968216
1696958198249405000,9.461405029296875,0.033954303711652756,-0.009587096981704235,0.013981183059513569
1696958198259418400,9.47141845703125,0.020106272771954536,-0.04580501839518547,-0.028628136962652206
1696958198269431800,9.481431884765625,0.029693370684981346,0.03089175745844841,0.03848154470324516
1696958198279445200,9.4914453125,0.037150003015995026,-0.04367455467581749,-0.005193010903894901
1696958198289458700,9.501458740234375,0.019041040912270546,-0.01384802907705307,-0.042476166039705276
1696958198299472400,9.511472412109375,0.027562905102968216,-0.0010652330238372087,0.06404713541269302
1696958198309485800,9.52148583984375,0.035019535571336746,-0.009587096981704235,-0.03608476743102074
1696958198319499300,9.531499267578125,0.023301972076296806,-0.02876129187643528,-0.011584409512579441
1696958198329512700,9.5415126953125,0.025432437658309937,-0.01384802907705307,0.03209014609456062
1696958198339526100,9.551526123046875,0.033954303711652756,0.01491326279938221,-0.007323476951569319
1696958198349539800,9.561539794921876,0.030758604407310486,-0.01810896210372448,-0.006258244160562754
1696958198359553300,9.57155322265625,0.025432437658309937,-0.0426093190908432,0.0033288532868027687
1696958198369566700,9.581566650390625,0.038215234875679016,0.03941362351179123,0.048068638890981674
1696958198379580200,9.591580078125,0.025432437658309937,-0.0106523297727108,-0.07017222791910172
1696958198389593600,9.601593505859375,0.021171506494283676,0.03408745676279068,0.06937330216169357
1696958198399607300,9.611607177734374,0.035019535571336746,0.0021304660476744175,-0.004127778112888336
1696958198409620700,9.621620849609375,0.025432437658309937,0.05432688444852829,-0.021171506494283676
1696958198419634200,9.63163427734375,0.022236740216612816,0.009587096981704235,0.023568280041217804
1696958198429647600,9.641647705078125,0.033954303711652756,0.01171756349503994,0.017176883295178413
1696958198439661000,9.6516611328125,0.022236740216612816,0.0639139786362648,-0.027562905102968216
1696958198449674800,9.6616748046875,0.020106272771954536,0.02556559257209301,0.016111649572849274
1696958198459688200,9.671688232421875,0.03288906812667847,0.01171756349503994,0.020372580736875534
1696958198469701600,9.68170166015625,0.025432437658309937,0.03515268862247467,-0.031823836266994476
1696958198479715000,9.691715087890625,0.022236740216612816,0.012782796286046505,0.013981183059513569
1696958198489728500,9.701728515625,0.035019535571336746,-0.0021304660476744175,0.013981183059513569
1696958198499741700,9.71174169921875,0.026497671380639076,0.01384802907705307,-0.026497671380639076
1696958198509755100,9.721755126953125,0.013714875094592571,0.03408745676279068,0.0011983871227130294
1696958198519768600,9.7317685546875,0.033954303711652756,0.0063913981430232525,0.021437814459204674
1696958198529782000,9.741781982421875,0.020106272771954536,0.02982652559876442,-0.031823836266994476
1696958198539795500,9.75179541015625,0.019041040912270546,0.02982652559876442,-0.001997311832383275
1696958198549809000,9.761808837890625,0.031823836266994476,-0.0021304660476744175,0.037416309118270874
1696958198559822300,9.771822265625,0.009453942999243736,0.05858781561255455,-0.07975932210683823
1696958198569835800,9.781835693359374,0.021171506494283676,0.04900071769952774,0.07896039634943008
1696958198579849200,9.79184912109375,0.030758604407310486,-0.05219641700387001,-0.052063263952732086
1696958198589862700,9.801862548828124,0.008388710208237171,0.09906667470932007,0.0033288532868027687
1696958198599876000,9.8118759765625,0.029693370684981346,-0.02343512699007988,0.03848154470324516
1696958198609889500,9.8218896484375,0.026497671380639076,-0.0031956990715116262,-0.030758604407310486
1696958198619903000,9.831903076171875,0.015845341607928276,0.04900071769952774,0.018242115154862404
1696958198629916400,9.84191650390625,0.03288906812667847,-0.02769605815410614,0.019307348877191544
1696958198639929900,9.851929931640624,0.028628136962652206,0.0213046595454216,0.0011983871227130294
1696958198649943300,9.861943359375,0.023301972076296806,0.0021304660476744175,0.0033288532868027687
1696958198659956700,9.871956787109376,0.035019535571336746,-0.0213046595454216,0.047003407031297684
1696958198669970200,9.88197021484375,0.020106272771954536,0.02556559257209301,-0.03928046673536301
1696958198679983600,9.891983642578126,0.035019535571336746,0.00852186419069767,0.05232957378029823
1696958198689997000,9.9019970703125,0.035019535571336746,-0.06497921794652939,0.007589785382151604
1696958198700010500,9.912010498046875,0.019041040912270546,0.06071828305721283,-0.017975807189941406
1696958198710024000,9.92202392578125,0.03928046673536301,-0.03834838792681694,0.048068638890981674
1696958198720037400,9.932037353515625,0.024367205798625946,-0.01704372838139534,-0.015845341607928276
1696958198730050800,9.94205078125,0.024367205798625946,0.03941362351179123,0.007589785382151604
1696958198740064300,9.952064208984375,0.030758604407310486,-0.03621792420744896,0.024633513763546944
1696958198750077700,9.96207763671875,0.023301972076296806,0.0031956990715116262,-0.016910573467612267
1696958198760091100,9.972091064453124,0.030758604407310486,-0.007456631399691105,0.037416309118270874
1696958198770104600,9.9821044921875,0.023301972076296806,-0.02876129187643528,-0.012649642303586006
1696958198780118000,9.992117919921874,0.020106272771954536,0.01384802907705307,0.011850717477500439
1696958198790131500,10.00213134765625,0.026497671380639076,-0.01810896210372448,0.024633513763546944
1696958198800145000,10.012144775390626,0.017975807189941406,-0.03302222490310669,-0.012649642303586006
1696958198810158300,10.022158447265625,0.026497671380639076,0.007456631399691105,0.03954677656292915
1696958198820171800,10.032171875,0.021171506494283676,-0.02450035884976387,0.0011983871227130294
1696958198830185200,10.042185302734374,0.016910573467612267,0.009587096981704235,0.00226362026296556
1696958198840198700,10.05219873046875,0.022236740216612816,0.0063913981430232525,0.036351077258586884
1696958198850212000,10.062212158203126,0.012649642303586006,0.02663082629442215,-0.008388710208237171
1696958198860225500,10.0722255859375,0.023301972076296806,0.007456631399691105,0.034220609813928604
1696958198870239000,10.082239013671876,0.013714875094592571,0.0021304660476744175,-0.0030625448562204838
1696958198880252400,10.09225244140625,0.016910573467612267,0.04473978653550148,0.023568280041217804
1696958198890265900,10.102265869140625,0.022236740216612816,-0.03302222490310669,0.005459319334477186
1696958198900279300,10.112279296875,0.010519175790250301,0.01171756349503994,0.008655018173158169
1696958198910292700,10.122292724609375,0.023301972076296806,0.0053261648863554,0.018242115154862404
1696958198920306200,10.13230615234375,0.020106272771954536,-0.02982652559876442,-0.011584409512579441
1696958198930319600,10.142319580078125,0.019041040912270546,-0.0319569893181324,0.025698747485876083
1696958198940333000,10.1523330078125,0.022236740216612816,0.0021304660476744175,-0.020106272771954536
1696958198950346500,10.162346435546874,0.016910573467612267,-0.02450035884976387,0.024633513763546944
1696958198960360000,10.17235986328125,0.021171506494283676,-0.03621792420744896,-0.022236740216612816
1696958198970373400,10.182373291015624,0.013714875094592571,0.0159784946590662,0.021437814459204674
1696958198980387000,10.192386962890625,0.015845341607928276,-0.0053261648863554,-0.027562905102968216
1696958198990400300,10.202400146484376,0.019041040912270546,-0.00852186419069767,0.021437814459204674
1696958199000413400,10.212413330078125,0.009453942999243736,-0.0010652330238372087,-0.040345702320337296
1696958199010426600,10.222426513671875,0.020106272771954536,0.0031956990715116262,0.047003407031297684
1696958199020439600,10.232439453125,0.009453942999243736,-0.0213046595454216,-0.0712374597787857
1696958199030452700,10.24245263671875,0.015845341607928276,0.02663082629442215,0.051264338195323944
1696958199040466000,10.2524658203125,0.017975807189941406,-0.05006595328450203,-0.052063263952732086
1696958199050479000,10.26247900390625,0.012649642303586006,0.004260932095348835,0.017176883295178413
1696958199060492500,10.272492431640625,0.022236740216612816,-0.04793548583984375,-0.023301972076296806
1696958199070505700,10.282505615234374,0.012649642303586006,0.0213046595454216,-0.005193010903894901
1696958199080519200,10.292519287109375,0.021171506494283676,-0.03089175745844841,-0.014780107885599136
1696958199090532600,10.30253271484375,0.016910573467612267,-0.00852186419069767,-0.030758604407310486
1696958199100546000,10.312546142578125,0.016910573467612267,0.02556559257209301,0.009720250964164734
1696958199110559700,10.322559814453125,0.025432437658309937,-0.03089175745844841,-0.042476166039705276
1696958199120573200,10.3325732421875,0.019041040912270546,0.02450035884976387,0.005459319334477186
1696958199130587000,10.3425869140625,0.016910573467612267,0.0063913981430232525,-0.030758604407310486
1696958199140600600,10.3526005859375,0.026497671380639076,0,-0.005193010903894901
1696958199150614300,10.3626142578125,0.023301972076296806,-0.0021304660476744175,0.006524552125483751
1696958199160627700,10.372627685546876,0.025432437658309937,-0.007456631399691105,-0.038215234875679016
1696958199170641400,10.382641357421875,0.022236740216612816,0.02876129187643528,0.041677240282297134
1696958199180655000,10.392655029296876,0.029693370684981346,-0.02982652559876442,-0.03928046673536301
1696958199190668800,10.402668701171875,0.025432437658309937,0.02343512699007988,0.03528584539890289
1696958199200682200,10.41268212890625,0.022236740216612816,-0.0053261648863554,0.00226362026296556
1696958199210695700,10.42269580078125,0.031823836266994476,0.004260932095348835,0.011850717477500439
1696958199220709000,10.432709228515625,0.015845341607928276,0.0159784946590662,0.010785484686493874
1696958199230722600,10.44272265625,0.021171506494283676,0.01704372838139534,0.016111649572849274
1696958199240736000,10.452736083984375,0.023301972076296806,0.01810896210372448,0.016111649572849274
1696958199250749400,10.46274951171875,0.016910573467612267,0.03089175745844841,0.025698747485876083
1696958199260762600,10.4727626953125,0.025432437658309937,-0.03621792420744896,0.007589785382151604
1696958199270776000,10.482776123046875,0.015845341607928276,0.05432688444852829,0.029959678649902344
1696958199280789500,10.49278955078125,0.017975807189941406,-0.02236989326775074,-0.006258244160562754
1696958199290803000,10.502802978515625,0.019041040912270546,0.01810896210372448,0.023568280041217804
1696958199300816100,10.512816162109376,0.013714875094592571,0.007456631399691105,0.018242115154862404
1696958199310829600,10.52282958984375,0.022236740216612816,-0.0319569893181324,-0.021171506494283676
1696958199320843000,10.532843017578125,0.015845341607928276,0.02769605815410614,0.054460037499666214
1696958199330856400,10.5428564453125,0.013714875094592571,-0.02023942768573761,-0.03608476743102074
1696958199340870000,10.552869873046875,0.015845341607928276,0.03941362351179123,0.026763979345560074
1696958199350883000,10.562883056640626,0.012649642303586006,-0.0063913981430232525,0.016111649572849274
1696958199360896500,10.572896484375,0.013714875094592571,0.004260932095348835,-0.029693370684981346
1696958199370910000,10.582909912109375,0.013714875094592571,0.02876129187643528,0.06298190355300903
1696958199380923400,10.59292333984375,0.008388710208237171,0,-0.0723026916384697
1696958199390936800,10.602936767578125,0.015845341607928276,0.03941362351179123,0.08215609937906265
1696958199400950000,10.612949951171874,0.007323476951569319,-0.01171756349503994,-0.05312849581241608
1696958199410963500,10.62296337890625,0.014780107885599136,0.04473978653550148,0.037416309118270874
1696958199420977000,10.632976806640626,0.006258244160562754,0.009587096981704235,-0.021171506494283676
1696958199430990300,10.642990234375,0.011584409512579441,0.05219641700387001,0.018242115154862404
1696958199441003500,10.65300341796875,0.011584409512579441,-0.007456631399691105,-0.014780107885599136
1696958199451017000,10.663016845703124,0.008388710208237171,0.03302222490310669,0.006524552125483751
1696958199461030400,10.673030517578125,0.012649642303586006,0.02769605815410614,0.006524552125483751
1696958199471043800,10.6830439453125,0.008388710208237171,0.0106523297727108,-0.017975807189941406
1696958199481057300,10.693057373046875,0.014780107885599136,0.0021304660476744175,0.005459319334477186
1696958199491070500,10.703070556640625,0.016910573467612267,-0.0021304660476744175,-0.009453942999243736
1696958199501084000,10.713083984375,0.008388710208237171,0.004260932095348835,-0.013714875094592571
1696958199511097300,10.723097412109375,0.020106272771954536,-0.02663082629442215,-0.0009320789249613881
1696958199521110800,10.73311083984375,0.012649642303586006,0.0063913981430232525,-0.001997311832383275
1696958199531124200,10.743124267578125,0.011584409512579441,-0.0010652330238372087,-0.040345702320337296
1696958199541137400,10.753137451171876,0.016910573467612267,0.009587096981704235,0.03209014609456062
1696958199551150800,10.76315087890625,0.011584409512579441,-0.01704372838139534,-0.04993279650807381
1696958199561164300,10.773164306640625,0.016910573467612267,0.007456631399691105,0.010785484686493874
1696958199571177700,10.783177734375,0.009453942999243736,-0.01917419396340847,-0.021171506494283676
1696958199581191200,10.793191162109375,0.013714875094592571,0.01384802907705307,-0.017975807189941406
1696958199591204600,10.80320458984375,0.014780107885599136,-0.01810896210372448,0.0033288532868027687
1696958199601218000,10.813218017578125,0.009453942999243736,-0.01171756349503994,-0.031823836266994476
1696958199611231500,10.8232314453125,0.019041040912270546,-0.00852186419069767,0.007589785382151604
1696958199621245000,10.833244873046874,0.007323476951569319,-0.0213046595454216,-0.022236740216612816
1696958199631258400,10.84325830078125,0.013714875094592571,-0.0010652330238372087,-0.001997311832383275
1696958199641271800,10.853271728515624,0.014780107885599136,-0.03302222490310669,0.0033288532868027687
1696958199651285200,10.86328515625,0.014780107885599136,-0.05006595328450203,-0.024367205798625946
1696958199661298700,10.873298583984376,0.017975807189941406,-0.01917419396340847,0.04274247586727142
1696958199671312100,10.88331201171875,0.008388710208237171,-0.04900071769952774,-0.043541401624679565
1696958199681325600,10.89332568359375,0.017975807189941406,0.00852186419069767,0.047003407031297684
1696958199691339000,10.903339111328124,0.010519175790250301,-0.06497921794652939,-0.011584409512579441
1696958199701352400,10.9133525390625,0.005193010903894901,0.01917419396340847,0.009720250964164734
1696958199711366000,10.923365966796876,0.015845341607928276,-0.01384802907705307,0.03954677656292915
1696958199721379300,10.93337939453125,-0.00226362026296556,0,-0.022236740216612816
1696958199731392800,10.943392822265626,0.007323476951569319,0.02023942768573761,0.0555252730846405
1696958199741406200,10.95340625,0.001997311832383275,0.01384802907705307,-0.005193010903894901
1696958199751419600,10.963419677734375,0.004127778112888336,0.01917419396340847,0.03209014609456062
1696958199761433000,10.97343310546875,0.0009320789249613881,0.02450035884976387,0.016111649572849274
1696958199771446500,10.983446533203125,-0.005459319334477186,0.02982652559876442,0.009720250964164734
1696958199781460000,10.9934599609375,0.006258244160562754,0.02556559257209301,0.037416309118270874
1696958199791473400,11.003473388671875,-0.00226362026296556,0.007456631399691105,0.0033288532868027687
1696958199801486800,11.01348681640625,0.0009320789249613881,0.009587096981704235,0.011850717477500439
1696958199811500300,11.023500244140624,0.006258244160562754,0.03621792420744896,0.03848154470324516
1696958199821513700,11.033513671875,-0.0033288532868027687,-0.012782796286046505,-0.031823836266994476
1696958199831527200,11.043527099609374,0.0030625448562204838,0.05219641700387001,0.03954677656292915
1696958199841540600,11.05354052734375,-0.0011983871227130294,0,-0.013714875094592571
1696958199851554000,11.063553955078126,0.0009320789249613881,0.0159784946590662,-0.008388710208237171
1696958199861567500,11.0735673828125,0.006258244160562754,0.01917419396340847,0.029959678649902344
1696958199871581000,11.083580810546875,-0.006524552125483751,0.00852186419069767,-0.06591129302978516
1696958199881594400,11.093594482421874,0.007323476951569319,0.0426093190908432,0.053394805639982224
1696958199891607800,11.10360791015625,-0.004394086077809334,-0.0213046595454216,-0.06271559745073318
1696958199901621200,11.113621337890624,0.0009320789249613881,0.04580501839518547,0.013981183059513569
1696958199911634700,11.123634765625,0.008388710208237171,-0.03302222490310669,-0.024367205798625946
1696958199921648000,11.133648193359376,-0.005459319334477186,0.03302222490310669,-0.022236740216612816
1696958199931661600,11.14366162109375,0.004127778112888336,0.012782796286046505,-0.010519175790250301
1696958199941675000,11.153675048828125,-0.005459319334477186,-0.0010652330238372087,-0.030758604407310486
1696958199951688400,11.1636884765625,0.001997311832383275,0.02236989326775074,-0.001997311832383275
1696958199961702000,11.173701904296875,-0.0001331541279796511,0.009587096981704235,-0.03288906812667847
1696958199971715300,11.18371533203125,-0.0033288532868027687,0.007456631399691105,-0.038215234875679016
1696958199981728800,11.193728759765625,0.0030625448562204838,0.02343512699007988,0.009720250964164734
1696958199991742200,11.2037421875,-0.007589785382151604,0,-0.07549838721752167
1696958200001755600,11.213755615234374,-0.00226362026296556,0.04900071769952774,0.012915950268507004
1696958200011768800,11.223768798828125,-0.0001331541279796511,0.00852186419069767,-0.035019535571336746
1696958200021782300,11.2337822265625,-0.007589785382151604,0.0426093190908432,-0.058454662561416626
1696958200031795700,11.243795654296875,0.0030625448562204838,0.04687025398015976,0.019307348877191544
1696958200041809200,11.25380908203125,-0.006524552125483751,0.02023942768573761,-0.08828118443489075
1696958200051822600,11.263822509765625,-0.0033288532868027687,0.09161003679037094,0.005459319334477186
1696958200061836000,11.2738359375,-0.0011983871227130294,0.0426093190908432,-0.041410934180021286
1696958200071849500,11.283849365234374,-0.008655018173158169,0.07989247888326645,-0.044606633484363556
1696958200081863000,11.29386279296875,0.001997311832383275,0.0639139786362648,-0.017975807189941406
1696958200091876400,11.30387646484375,0.0030625448562204838,0.02556559257209301,-0.029693370684981346
1696958200101889800,11.313889892578125,-0.0001331541279796511,0.03834838792681694,-0.037150003015995026
1696958200111903200,11.3239033203125,0.013714875094592571,-0.0010652330238372087,0.004394086077809334
1696958200121916700,11.333916748046875,-0.0001331541279796511,0.02663082629442215,-0.05312849581241608
1696958200131930000,11.34393017578125,0.005193010903894901,0.01171756349503994,0.011850717477500439
1696958200141943600,11.353943603515624,0.011584409512579441,-0.0021304660476744175,-0.019041040912270546
1696958200151957000,11.36395703125,-0.0033288532868027687,-0.01171756349503994,-0.029693370684981346
1696958200161970400,11.373970458984376,0.007323476951569319,0.01491326279938221,0.034220609813928604
1696958200171984000,11.38398388671875,0.006258244160562754,-0.02023942768573761,-0.026497671380639076
1696958200181997300,11.393997314453125,-0.011850717477500439,0.02450035884976387,-0.027562905102968216
1696958200192010800,11.4040107421875,0.001997311832383275,0.03408745676279068,0.058720968663692474
1696958200202024200,11.414024169921875,-0.015046416781842709,0.05858781561255455,-0.07656362652778625
1696958200212037600,11.42403759765625,-0.016111649572849274,0.10119713842868805,0.015046416781842709
1696958200222051000,11.434051025390625,-0.012915950268507004,0.13208889961242676,-0.0009320789249613881
1696958200232064500,11.444064453125,-0.029959678649902344,0.11824086308479309,-0.07336792349815369
1696958200242077700,11.45407763671875,-0.021437814459204674,0.09800143539905548,0.031024912372231483
1696958200252091100,11.464091064453125,-0.017176883295178413,0.07989247888326645,-0.020106272771954536
1696958200262104600,11.4741044921875,-0.028894444927573204,-0.0010652330238372087,-0.07549838721752167
1696958200272118000,11.484117919921875,-0.024633513763546944,0.05858781561255455,0.08215609937906265
1696958200282131500,11.49413134765625,-0.012915950268507004,-0.09374050796031952,-0.06910699605941772
1696958200292144600,11.50414453125,-0.015046416781842709,-0.04154408723115921,-0.035019535571336746
1696958200302158000,11.514157958984375,-0.00226362026296556,-0.07137060910463333,0.08002562820911407
1696958200312171500,11.524171630859374,0.005193010903894901,-0.0426093190908432,-0.050998032093048096
1696958200322185000,11.53418505859375,-0.012915950268507004,-0.03408745676279068,-0.023301972076296806
1696958200332198400,11.544198486328124,-0.0033288532868027687,-0.07030537724494934,0.06404713541269302
1696958200342211600,11.554211669921875,0.007323476951569319,-0.0021304660476744175,-0.023301972076296806
1696958200352225000,11.56422509765625,0.001997311832383275,-0.03834838792681694,-0.013714875094592571
1696958200362238500,11.574238525390625,0.001997311832383275,-0.07669677585363388,0.037416309118270874
1696958200372252000,11.584251953125,0.009453942999243736,0.00852186419069767,0.031024912372231483
1696958200382265000,11.59426513671875,0.001997311832383275,-0.02663082629442215,-0.013714875094592571
1696958200392278500,11.604278564453125,0.005193010903894901,-0.04793548583984375,0.051264338195323944
1696958200402292000,11.6142919921875,0.010519175790250301,-0.01384802907705307,0.022503048181533813
1696958200412305400,11.624305419921875,0.009453942999243736,-0.0063913981430232525,0.00226362026296556
1696958200422318800,11.63431884765625,0.007323476951569319,-0.07882724702358246,0.03528584539890289
1696958200432332000,11.64433203125,0.014780107885599136,-0.04687025398015976,0.028894444927573204
1696958200442345500,11.654345458984375,0.011584409512579441,-0.01491326279938221,0.029959678649902344
1696958200452359000,11.66435888671875,0.007323476951569319,-0.07882724702358246,-0.0009320789249613881
1696958200462372400,11.674372314453125,0.010519175790250301,-0.03728315606713295,0.05232957378029823
1696958200472385800,11.6843857421875,0.010519175790250301,-0.01171756349503994,0.013981183059513569
1696958200482399000,11.69439892578125,0.009453942999243736,-0.06497921794652939,-0.006258244160562754
1696958200492412400,11.704412353515625,0.007323476951569319,-0.02769605815410614,0.044872939586639404
1696958200502425900,11.71442578125,0.007323476951569319,-0.02236989326775074,0.0001331541279796511
1696958200512439300,11.724439208984375,0.004127778112888336,-0.04047885537147522,0.0011983871227130294
1696958200522452500,11.734452392578126,-0.0033288532868027687,-0.02343512699007988,0.018242115154862404
1696958200532466000,11.7444658203125,0.0030625448562204838,-0.02236989326775074,-0.001997311832383275
1696958200542479400,11.754479248046875,0.006258244160562754,-0.01917419396340847,0.010785484686493874
1696958200552492800,11.764492919921874,-0.008655018173158169,-0.02450035884976387,-0.024367205798625946
1696958200562506200,11.77450634765625,-0.00226362026296556,0.01810896210372448,0.028894444927573204
1696958200572519400,11.78451953125,0.005193010903894901,-0.0426093190908432,0.006524552125483751
1696958200582532900,11.794532958984375,-0.009720250964164734,0.012782796286046505,-0.030758604407310486
1696958200592546300,11.80454638671875,-0.0001331541279796511,-0.0053261648863554,0.058720968663692474
1696958200602559700,11.814559814453125,0.001997311832383275,-0.02556559257209301,-0.029693370684981346
1696958200612573200,11.8245732421875,-0.004394086077809334,0.04687025398015976,0.029959678649902344
1696958200622586400,11.83458642578125,-0.009720250964164734,-0.012782796286046505,-0.0030625448562204838
1696958200632599800,11.844599853515625,0.0030625448562204838,0.03834838792681694,0.051264338195323944
1696958200642613200,11.85461328125,-0.0001331541279796511,-0.012782796286046505,-0.009453942999243736
1696958200652626700,11.864626708984375,-0.007589785382151604,0.05219641700387001,0.021437814459204674
1696958200662640000,11.87464013671875,0.0030625448562204838,0.02236989326775074,0.034220609813928604
1696958200672653300,11.8846533203125,0.001997311832383275,0.07243584841489792,0.015046416781842709
1696958200682666800,11.894666748046875,-0.0011983871227130294,0.04154408723115921,0.018242115154862404
1696958200692680200,11.90468017578125,-0.0001331541279796511,0.09054480493068695,0.027829213067889214
1696958200702693600,11.914693603515625,0.006258244160562754,0.09054480493068695,0.041677240282297134
1696958200712707000,11.92470703125,0.001997311832383275,0.05858781561255455,-0.019041040912270546
1696958200722720500,11.934720458984375,0.0030625448562204838,0.08734910935163498,0.05659050494432449
1696958200732734000,11.94473388671875,0.016910573467612267,0.04367455467581749,-0.007323476951569319
1696958200742747400,11.954747314453124,0.014780107885599136,0.05645735189318657,0.022503048181533813
1696958200752760800,11.9647607421875,0.005193010903894901,0.05858781561255455,-0.001997311832383275
1696958200762774300,11.974774169921876,0.011584409512579441,0.09267527610063553,0.007589785382151604
1696958200772787700,11.98478759765625,0.026497671380639076,0.04367455467581749,0.026763979345560074
1696958200782801200,11.99480126953125,0.011584409512579441,0.0426093190908432,-0.048867564648389816
1696958200792814600,12.004814697265624,0.011584409512579441,0.10545806586742401,0.03848154470324516
1696958200802828000,12.014828125,0.022236740216612816,0.05752258375287056,-0.025432437658309937
1696958200812841500,12.024841552734374,0.021171506494283676,0.05113118514418602,-0.019041040912270546
1696958200822855000,12.03485498046875,0.011584409512579441,0.08202294260263443,-0.001997311832383275
1696958200832868400,12.044868408203126,0.028628136962652206,0.09693620353937149,-0.005193010903894901
1696958200842881800,12.0548818359375,0.026497671380639076,0.08947957307100296,-0.001997311832383275
1696958200852895200,12.064895263671875,0.014780107885599136,0.1374150663614273,-0.0030625448562204838
1696958200862908700,12.07490869140625,0.020106272771954536,0.18322007358074188,0.06511236727237701
1696958200872922000,12.084922119140625,0.019041040912270546,0.16511112451553345,-0.027562905102968216
1696958200882935600,12.094935546875,-0.008655018173158169,0.19493764638900757,0.025698747485876083
1696958200892949000,12.104948974609375,0.013714875094592571,0.02663082629442215,0.031024912372231483
1696958200902962400,12.11496240234375,0.052063263952732086,0.00852186419069767,-0.0009320789249613881
1696958200912976000,12.124975830078125,0.03288906812667847,-0.0159784946590662,-0.03608476743102074
