time,seconds_elapsed,z,y,x
1720787088548260000,0.159260009765625,0.1874065399169922,0.1766190528869629,0.042740970849990845
1720787088558240500,0.169240478515625,0.17636394500732422,0.09654951095581055,0.17583386600017548
1720787088568260600,0.179260498046875,0.09556293487548828,0.04167509078979492,0.26372694969177246
1720787088578318300,0.189318359375,0.06689643859863281,-0.08067083358764648,0.11329454183578491
1720787088588410400,0.199410400390625,0.24656963348388672,-0.25008440017700195,-0.10917571187019348
1720787088598532600,0.20953271484375,0.489501953125,-0.42772698402404785,-0.27068081498146057
1720787088608679200,0.21967919921875,0.25551891326904297,-0.8775849342346191,-0.3703611493110657
1720787088618843600,0.22984375,0.10803985595703125,-1.1832756996154785,-0.2912616729736328
1720787088629019600,0.24001953125,0.22182464599609375,-1.0186011791229248,-0.3066087067127228
1720787088639200000,0.250199951171875,0.3181447982788086,-0.9315588474273682,0.13583216071128845
1720787088649320700,0.26032080078125,1.315481185913086,-0.8348925113677979,0.2097819745540619
1720787088659334400,0.27033447265625,1.5321626663208008,0.10695171356201172,0.5360844731330872
1720787088669348400,0.280348388671875,1.326664924621582,1.084092140197754,0.9928481578826904
1720787088679362000,0.290362060546875,0.9083843231201172,1.9738006591796875,1.4179233312606812
1720787088689375700,0.300375732421875,0.4480304718017578,2.5868277549743652,2.287254810333252
1720787088699389400,0.310389404296875,-0.5025033950805664,1.0552539825439453,2.0901589393615723
1720787088709403400,0.3204033203125,-0.30347251892089844,0.25832033157348633,1.441094994544983
1720787088719417000,0.3304169921875,0.14619064331054688,-0.0020885467529296875,0.6570367813110352
1720787088729430800,0.3404306640625,-0.3850135803222656,-0.16222715377807617,0.062455713748931885
1720787088739444500,0.350444580078125,-2.2641844749450684,-0.17623615264892578,-0.762568473815918
1720787088749458200,0.360458251953125,-3.325552463531494,-0.3681941032409668,-1.2951596975326538
1720787088759472400,0.370472412109375,-1.9256987571716309,-0.8009505271911621,-1.0478837490081787
1720787088769486000,0.380486083984375,-1.425342082977295,-1.393418788909912,-0.21667754650115967
1720787088779500000,0.3905,-1.5272326469421387,-1.5317597389221191,0.491438090801239
1720787088789513700,0.400513671875,-2.543921947479248,-2.432269334793091,0.018174946308135986
1720787088799527400,0.41052734375,-2.963319778442383,-1.3851451873779297,-0.26126301288604736
1720787088809541400,0.420541259765625,-2.059642791748047,-2.4495909214019775,-0.25027716159820557
1720787088819555000,0.43055517578125,-1.1853995323181152,-1.5714092254638672,-0.665313720703125
1720787088829568800,0.44056884765625,-0.5266666412353516,-0.5092024803161621,-1.5019147396087646
1720787088839582500,0.45058251953125,0.38492393493652344,0.09404802322387695,-1.258154273033142
1720787088849596200,0.46059619140625,1.1109380722045898,0.49286317825317383,-0.07978501915931702
1720787088859610000,0.470610107421875,0.6398000717163086,0.8731961250305176,0.5442384481430054
1720787088869623800,0.480623779296875,0.5894293785095215,1.3832073211669922,0.241522878408432
1720787088879637500,0.490637451171875,1.147928237915039,1.984764575958252,0.013868272304534912
1720787088889651200,0.500651123046875,1.456505298614502,1.7218842506408691,0.592562735080719
1720787088899665000,0.510664794921875,1.82072114944458,0.9781112670898438,1.1820452213287354
1720787088909678800,0.520678955078125,1.810065746307373,0.43742799758911133,1.6588191986083984
1720787088919692500,0.530692626953125,0.998600959777832,0.13499879837036133,1.6917005777359009
1720787088929706200,0.540706298828125,-0.03348112106323242,-0.6278390884399414,1.3832128047943115
1720787088939720000,0.550719970703125,-0.39414358139038086,-0.9667587280273438,1.4209392070770264
1720787088949734000,0.56073388671875,-0.8827757835388184,-0.4718313217163086,3.449056625366211
1720787088959747600,0.57074755859375,0.8032445907592773,0.46825647354125977,-5.961894989013672
1720787088969761300,0.58076123046875,3.0664443969726562,1.7172646522521973,-10.646297454833984
1720787088979775000,0.59077490234375,0.7949376106262207,1.2362704277038574,-1.736189603805542
1720787088989788700,0.60078857421875,-0.4944930076599121,-0.12431001663208008,1.3148306608200073
1720787088999802600,0.610802734375,-0.7280659675598145,0.6338186264038086,1.6181942224502563
1720787089009816300,0.62081640625,-0.46218061447143555,1.296766757965088,0.8073291778564453
1720787089019830000,0.630830078125,-0.3985280990600586,0.6586174964904785,0.942430853843689
1720787089029843700,0.64084375,-0.4506850242614746,-0.45072460174560547,0.4642457962036133
1720787089039857400,0.650857421875,-0.8341264724731445,-1.1481132507324219,-0.23257571458816528
1720787089049871400,0.660871337890625,-1.2873797416687012,-1.6253681182861328,-0.9500699043273926
1720787089059885000,0.670885009765625,-1.5616517066955566,-1.6172711849212646,-1.5009312629699707
1720787089069898800,0.680898681640625,-1.1383156776428223,-0.9777050018310547,-1.3585305213928223
1720787089079912400,0.690912353515625,-1.242128849029541,-0.4155402183532715,-0.878689706325531
1720787089089926400,0.700926513671875,0.42885494232177734,0.17657184600830078,-0.7673096656799316
1720787089099940000,0.710940185546875,1.8284549713134766,0.6208744049072266,-0.7735057473182678
1720787089109954000,0.7209541015625,3.40207576751709,1.1925957202911377,0.47971975803375244
1720787089119967700,0.7309677734375,3.938237190246582,1.1269745826721191,1.7601923942565918
1720787089129981700,0.740981689453125,3.2726430892944336,-0.1416327953338623,2.337517738342285
1720787089139995400,0.750995361328125,2.6666088104248047,-0.7983169555664062,1.7066056728363037
1720787089150009000,0.761009033203125,1.4652347564697266,-0.2800943851470947,0.1883234977722168
1720787089160023000,0.77102294921875,-0.20371723175048828,0.013551473617553711,-0.6113710403442383
1720787089170036700,0.78103662109375,-1.217695713043213,0.0371854305267334,-0.45496559143066406
1720787089180050700,0.79105078125,-1.6584019660949707,0.06048440933227539,-0.2797822952270508
1720787089190064400,0.801064453125,-0.9688348770141602,-0.2609903812408447,-0.4676351547241211
1720787089200078000,0.811078125,1.4932498931884766,-1.1792585849761963,-0.6088300943374634
1720787089210092000,0.821092041015625,2.454035758972168,-1.3430144786834717,-0.6432520151138306
1720787089220105700,0.831105712890625,1.4652986526489258,-1.019777536392212,-1.2828774452209473
1720787089230119700,0.84111962890625,0.33459949493408203,-0.3126707077026367,-0.9101991653442383
1720787089240133400,0.85113330078125,-0.6504316329956055,0.12898683547973633,-0.6354150772094727
1720787089250147000,0.86114697265625,-0.9250130653381348,0.13303494453430176,-0.4754509925842285
1720787089260161000,0.8711611328125,-0.29930782318115234,-0.06510329246520996,-0.4858049154281616
1720787089270174700,0.8811748046875,-0.7440028190612793,0.41500210762023926,-0.406280517578125
1720787089280188700,0.891188720703125,-1.205949306488037,0.643984317779541,-0.4092026948928833
1720787089290202400,0.901202392578125,-0.8037352561950684,0.09945988655090332,-0.786891758441925
1720787089300216300,0.91121630859375,-0.45421886444091797,-0.38500213623046875,-1.1645258665084839
1720787089310230000,0.92122998046875,-0.23486614227294922,-0.4955289363861084,-1.666616678237915
1720787089320243700,0.93124365234375,0.05034637451171875,-0.8097968101501465,-1.8157522678375244
1720787089330257700,0.941257568359375,-0.06808853149414062,-1.3146796226501465,-0.9590085744857788
1720787089340271400,0.951271240234375,0.4386758804321289,-1.1563453674316406,-0.08362269401550293
1720787089350285300,0.961285400390625,1.1375846862792969,-0.9041402339935303,0.6873476505279541
1720787089360299000,0.971299072265625,2.008326530456543,-0.7353863716125488,1.5056805610656738
1720787089370312700,0.981312744140625,2.93485164642334,-1.048179268836975,1.4246234893798828
1720787089380326700,0.99132666015625,3.093029022216797,-1.5927964448928833,0.5381048917770386
1720787089390340400,1.00134033203125,2.345181465148926,-2.077733039855957,0.11057019233703613
1720787089400354300,1.011354248046875,-0.05956554412841797,-2.7127535343170166,0.5987803936004639
1720787089410368000,1.021367919921875,-5.258978843688965,-2.1331095695495605,0.5589982867240906
1720787089420382000,1.0313818359375,-5.759617805480957,-1.4349446296691895,-2.0624890327453613
1720787089430395600,1.041395751953125,-2.9366607666015625,-1.4136103391647339,-3.2311782836914062
1720787089440409300,1.051409423828125,-0.15221309661865234,-0.8900322914123535,-2.477104902267456
1720787089450423300,1.06142333984375,0.8581695556640625,-0.3002347946166992,-2.4586398601531982
1720787089460437000,1.07143701171875,0.47616100311279297,1.128112554550171,-1.788221836090088
1720787089470451000,1.081450927734375,-0.22515106201171875,1.7794170379638672,-0.41632547974586487
1720787089480465000,1.09146484375,-0.0776214599609375,1.1931483745574951,1.9265785217285156
1720787089490478600,1.101478515625,0.1529407501220703,-0.04261866211891174,2.5875844955444336
1720787089500492500,1.111492431640625,-0.5025949478149414,-0.6831613183021545,2.3993372917175293
1720787089510506200,1.12150634765625,-1.399327278137207,-0.0890248715877533,7.4397430419921875
1720787089520520200,1.131520263671875,2.218930244445801,0.5407365560531616,7.408551216125488
1720787089530534100,1.1415341796875,7.056831359863281,1.1815645694732666,4.3106842041015625
1720787089540547800,1.1515478515625,6.423977851867676,-0.22487837076187134,0.2950233221054077
1720787089550561800,1.161561767578125,2.7618675231933594,-1.6513065099716187,-2.2817342281341553
1720787089560575700,1.17157568359375,0.16477298736572266,-1.7421082258224487,-3.6178665161132812
1720787089570589400,1.18158935546875,-2.399418830871582,-0.9577638506889343,-3.782242774963379
1720787089580603400,1.191603271484375,-2.6784820556640625,-0.8954489827156067,-4.012467384338379
1720787089590617000,1.2016171875,0.226837158203125,-0.3255903124809265,-4.646190166473389
1720787089600631000,1.211631103515625,1.525364875793457,0.6299564242362976,-4.994319915771484
1720787089610645000,1.22164501953125,2.6955108642578125,-0.6382238864898682,-4.069973945617676
1720787089620658700,1.23165869140625,3.176454544067383,-4.577225685119629,-2.086252212524414
1720787089630672600,1.241672607421875,2.1929244995117188,-7.229348182678223,0.5774151086807251
1720787089640686600,1.2516865234375,0.4440441131591797,-5.672245979309082,2.0506889820098877
1720787089650700300,1.2617001953125,-1.1481361389160156,-1.8356388807296753,2.402106285095215
1720787089660714200,1.27171435546875,-1.7224955558776855,1.0366737842559814,2.364393711090088
1720787089670728000,1.28172802734375,-1.2733955383300781,2.4399402141571045,2.5803024768829346
1720787089680742000,1.291741943359375,-0.8285999298095703,2.73435115814209,3.0634799003601074
1720787089690755800,1.301755859375,1.6448383331298828,1.8002849817276,2.7898223400115967
1720787089700769500,1.31176953125,2.86525821685791,0.5554785132408142,1.932862639427185
1720787089710783500,1.321783447265625,2.4329090118408203,0.12198010087013245,0.8702845573425293
1720787089720797200,1.331797119140625,1.6496391296386719,0.5689998865127563,0.13349246978759766
1720787089730811100,1.34181103515625,1.8812456130981445,1.7473998069763184,-0.09029960632324219
1720787089740824800,1.351824951171875,2.598635673522949,3.187983512878418,-0.4263129234313965
1720787089750838800,1.3618388671875,2.5420303344726562,3.983872413635254,-0.9701428413391113
1720787089760852500,1.3718525390625,1.878157615661621,2.9982359409332275,-0.43113064765930176
1720787089770866400,1.381866455078125,1.4276132583618164,1.7830932140350342,0.5760579109191895
1720787089780880100,1.391880126953125,0.4255666732788086,2.333029270172119,0.7283101081848145
1720787089790894000,1.40189404296875,-0.6515588760375977,3.0266318321228027,0.9836363792419434
1720787089800907800,1.41190771484375,-0.46497535705566406,2.7180237770080566,1.2973449230194092
1720787089810921500,1.42192138671875,0.2658815383911133,2.188903331756592,1.1505789756774902
1720787089820935400,1.431935302734375,0.4259300231933594,2.023639678955078,0.9799957275390625
1720787089830949000,1.44194921875,0.05381298065185547,1.9498685598373413,0.9920036792755127
1720787089840963000,1.451963134765625,-0.11951446533203125,1.4903931617736816,0.9893229007720947
1720787089850976800,1.461976806640625,0.05217266082763672,0.7205359935760498,0.674271821975708
1720787089860990500,1.471990478515625,-0.024311065673828125,0.12963175773620605,0.12224102020263672
1720787089871004400,1.48200439453125,-0.1941814422607422,0.19896280765533447,-0.18448543548583984
1720787089881018000,1.49201806640625,-0.033446311950683594,0.5569000244140625,-0.2545161247253418
1720787089891032000,1.502031982421875,0.3913393020629883,0.6108748912811279,-0.14787864685058594
1720787089901045800,1.512045654296875,0.8574018478393555,0.4155619144439697,-0.16482973098754883
1720787089911059700,1.522059814453125,1.3063764572143555,-0.37345266342163086,-0.33908700942993164
1720787089921073400,1.532073486328125,1.0729789733886719,-0.9465818405151367,-0.45251989364624023
1720787089931087000,1.542087158203125,0.5357732772827148,-0.9106218814849854,-0.38955020904541016
1720787089941101000,1.55210107421875,0.5282535552978516,-0.7587988376617432,-0.568946361541748
1720787089951114800,1.56211474609375,0.6686086654663086,-0.12525439262390137,-0.9508447647094727
1720787089961128700,1.572128662109375,0.9761085510253906,0.4346649646759033,-0.9634585380554199
1720787089971142400,1.582142333984375,8.927743911743164,1.2851736545562744,1.0577359199523926
1720787089981156000,1.592156005859375,-0.012502193450927734,1.6112550497055054,-0.07979583740234375
1720787089991170000,1.602170166015625,2.4417457580566406,0.7631176710128784,0.8775753974914551
1720787090001183700,1.612183837890625,0.3624553680419922,-0.19072866439819336,0.8110513687133789
1720787090011197700,1.62219775390625,-0.2512216567993164,0.21782541275024414,0.6420040130615234
1720787090021211400,1.63221142578125,0.15954971313476562,0.9465816020965576,0.8412594795227051
1720787090031225300,1.642225341796875,-0.1173863410949707,0.8723719120025635,1.035203456878662
1720787090041239000,1.652239013671875,-0.32678842544555664,0.10639286041259766,0.9889240264892578
1720787090051252700,1.662252685546875,-0.32982826232910156,-0.3740808963775635,0.6871752738952637
1720787090061266700,1.6722666015625,-1.9842314720153809,-0.40796661376953125,0.5108647346496582
1720787090071280400,1.6822802734375,-2.8653016090393066,-0.5567615032196045,0.5736269950866699
1720787090081294300,1.69229443359375,-3.4927635192871094,-0.6818728446960449,0.5467829704284668
1720787090091308000,1.70230810546875,-3.1456141471862793,-0.5975518226623535,0.49191713333129883
1720787090101321700,1.71232177734375,-3.6476502418518066,-0.24628281593322754,0.6417479515075684
1720787090111335700,1.722335693359375,-4.3274078369140625,0.04088163375854492,0.7969498634338379
1720787090121349400,1.732349365234375,-3.8708834648132324,-0.32160377502441406,0.16382598876953125
1720787090131363300,1.74236328125,-0.7292594909667969,-1.1586785316467285,-2.4283599853515625
1720787090141377000,1.752376953125,0.31796884536743164,-0.8867228031158447,-2.502432346343994
1720787090151390700,1.762390625,1.498978614807129,0.1968393325805664,-1.150106430053711
1720787090161404700,1.77240478515625,2.5244369506835938,1.0659821033477783,0.5444936752319336
1720787090171418400,1.78241845703125,2.8727922439575195,2.1223440170288086,1.9611821174621582
1720787090181432300,1.792432373046875,3.2918519973754883,3.34015154838562,2.76399564743042
1720787090191446000,1.802446044921875,4.827120304107666,3.6156044006347656,2.1169328689575195
1720787090201460000,1.8124599609375,4.324789524078369,2.370844602584839,1.0623021125793457
1720787090211473700,1.8224736328125,3.022793769836426,1.7755143642425537,0.009312152862548828
1720787090221487400,1.8324873046875,2.356074333190918,1.6059844493865967,0.9990139007568359
1720787090231501300,1.842501220703125,2.9012060165405273,1.3721466064453125,1.9821882247924805
1720787090241515000,1.852514892578125,3.177316665649414,1.0489246845245361,2.0385522842407227
1720787090251529000,1.862529052734375,2.42649507522583,-0.2044973373413086,0.03823995590209961
1720787090261542700,1.872542724609375,0.2559785842895508,-2.0952420234680176,-2.8206968307495117
1720787090271556400,1.882556396484375,-0.6783323287963867,-2.87943696975708,-4.354808330535889
1720787090281570300,1.8925703125,-1.7199831008911133,-2.652878761291504,-5.087501049041748
1720787090291584000,1.902583984375,-0.7843666076660156,-2.685385227203369,-2.886892318725586
1720787090301598000,1.912597900390625,0.2750697135925293,-2.524106502532959,0.5656704902648926
1720787090311611600,1.922611572265625,-0.6816468238830566,-1.9465932846069336,0.48541975021362305
1720787090321625600,1.93262548828125,-1.105081558227539,-1.8518085479736328,-0.16672897338867188
1720787090331639300,1.942639404296875,-0.3430023193359375,-1.653139591217041,-0.1517500877380371
1720787090341653000,1.952653076171875,0.9492874145507812,-0.5030562877655029,1.2663826942443848
1720787090351667000,1.9626669921875,0.9295053482055664,0.14110779762268066,1.7759852409362793
1720787090361680600,1.9726806640625,1.0554628372192383,0.030945777893066406,1.410632610321045
1720787090371694600,1.982694580078125,0.6734623908996582,0.4303896427154541,1.1033306121826172
1720787090381708300,1.992708251953125,-1.0351471900939941,0.6139271259307861,-0.28217554092407227
1720787090391722000,2.002721923828125,-1.144249439239502,0.35922765731811523,0.8294363021850586
1720787090401736000,2.01273583984375,-0.42349863052368164,-0.40677452087402344,1.0211610794067383
1720787090411749600,2.02274951171875,0.8011512756347656,-0.5229349136352539,0.6679801940917969
1720787090421763600,2.032763671875,1.0751252174377441,-0.12247967720031738,0.7555422782897949
1720787090431777300,2.04277734375,0.6384100914001465,0.4046440124511719,1.3484506607055664
1720787090441791000,2.052791015625,0.6970400810241699,1.1169164180755615,2.856783390045166
1720787090451805000,2.062804931640625,3.61293888092041,5.550748825073242,12.408870697021484
1720787090461818600,2.072818603515625,1.502570629119873,11.584648132324219,19.266887664794922
1720787090471832600,2.08283251953125,1.9552536010742188,2.6299407482147217,8.683937072753906
1720787090481846300,2.09284619140625,0.9168610572814941,-3.8032705783843994,-0.7165250778198242
1720787090491860200,2.102860107421875,-5.041573524475098,-3.7201061248779297,-5.568831443786621
1720787090501874000,2.1128740234375,-6.936005592346191,-4.651604175567627,-7.8288726806640625
1720787090511887600,2.1228876953125,-7.102941036224365,-3.240255832672119,-6.115555286407471
1720787090521901600,2.132901611328125,-5.353742599487305,-1.0996360778808594,-5.5463175773620605
1720787090531915300,2.142915283203125,-2.812042713165283,1.0324008464813232,-3.5321617126464844
1720787090541929200,2.15292919921875,0.17567682266235352,1.598428726196289,-4.776800632476807
1720787090551943000,2.16294287109375,3.777247905731201,0.18224287033081055,-4.6962056159973145
1720787090561956600,2.17295654296875,6.0977373123168945,0.2966146469116211,-5.208445072174072
1720787090571970600,2.182970458984375,4.818302154541016,2.148772954940796,-4.135859489440918
1720787090581984500,2.192984619140625,4.796591758728027,3.558399200439453,-1.9493422508239746
1720787090591998200,2.202998291015625,4.005246162414551,3.6120686531066895,-1.5566716194152832
1720787090602012200,2.21301220703125,2.5389132499694824,2.4965577125549316,-1.7757091522216797
1720787090612026000,2.223026123046875,1.6763544082641602,2.0605344772338867,-1.720560073852539
1720787090622039800,2.233039794921875,-0.5137753486633301,6.358531475067139,0.3273758888244629
1720787090632053800,2.2430537109375,0.2385578155517578,1.368969440460205,1.9213247299194336
1720787090642067500,2.2530673828125,-2.1375069618225098,-1.9565539360046387,1.1825814247131348
1720787090652081400,2.263081298828125,-0.9740285873413086,-5.592752456665039,1.4431226253509521
1720787090662095400,2.273095458984375,-3.17021107673645,-0.8732595443725586,1.7784314155578613
1720787090672109000,2.283109130859375,-2.5924177169799805,1.02614426612854,1.4727838039398193
1720787090682123000,2.293123046875,-1.5454788208007812,-3.231969118118286,2.6932759284973145
1720787090692137000,2.303136962890625,0.7696647644042969,-6.1921892166137695,1.6156506538391113
1720787090702150700,2.313150634765625,0.10214042663574219,-4.012718677520752,0.7389407157897949
1720787090712164600,2.32316455078125,-0.7937726974487305,-4.0564470291137695,0.9736952781677246
1720787090722178300,2.33317822265625,-0.14063453674316406,-4.532069683074951,1.8965647220611572
1720787090732192300,2.343192138671875,0.5606832504272461,-4.184854507446289,2.5253024101257324
1720787090742206200,2.353206298828125,1.051145076751709,-4.942502498626709,0.3757143020629883
1720787090752220000,2.363219970703125,1.6296744346618652,-4.219882488250732,-0.48668670654296875
1720787090762233900,2.37323388671875,2.983266830444336,-6.483054161071777,-1.4996662139892578
1720787090772247600,2.38324755859375,1.1586761474609375,-5.628320693969727,-1.9546236991882324
1720787090782261500,2.393261474609375,-0.8975448608398438,0.4766852855682373,-0.39238977432250977
1720787090792275500,2.403275390625,-0.42345476150512695,1.4923815727233887,0.4777493476867676
1720787090802289200,2.4132890625,-0.08293867111206055,2.8290462493896484,-1.9026823043823242
1720787090812303000,2.42330322265625,-1.0688486099243164,5.149186134338379,-2.0290255546569824
1720787090822317000,2.433317138671875,-0.8237929344177246,5.957291126251221,-1.162086009979248
1720787090832330800,2.443330810546875,0.06049966812133789,4.4858245849609375,-1.3788847923278809
1720787090842344700,2.4533447265625,-0.0938715934753418,0.07140350341796875,-0.7387185096740723
1720787090852358400,2.4633583984375,-0.10210847854614258,-1.5636394023895264,0.7737493515014648
1720787090862372400,2.473372314453125,-1.042445182800293,-0.47429466247558594,2.30000901222229
1720787090872386300,2.48338623046875,0.3468894958496094,-0.9132089614868164,0.8109383583068848
1720787090882400000,2.49339990234375,1.6735749244689941,-1.5684819221496582,-2.3073301315307617
1720787090892414000,2.5034140625,1.2456612586975098,-0.09917712211608887,-0.4949665069580078
1720787090902427600,2.513427734375,0.23007774353027344,0.8206982612609863,1.1306500434875488
1720787090912441600,2.523441650390625,-1.0381555557250977,0.678419828414917,0.8234338760375977
1720787090922455600,2.53345556640625,-1.9378767013549805,0.042417049407958984,0.9280166625976562
1720787090932469200,2.54346923828125,0.7276039123535156,-0.5585026741027832,0.13373327255249023
1720787090942483200,2.553483154296875,0.8236122131347656,-0.9697549343109131,-0.7516899108886719
1720787090952497200,2.5634970703125,0.9071927070617676,-1.5781629085540771,-0.9929032325744629
1720787090962510800,2.5735107421875,0.3256349563598633,-1.7686593532562256,-0.2534666061401367
1720787090972524800,2.58352490234375,1.8789515495300293,-0.3058919906616211,0.8765583038330078
1720787090982538500,2.59353857421875,1.7470650672912598,1.240025520324707,1.5162339210510254
1720787090992552400,2.603552490234375,0.16742181777954102,1.0185141563415527,1.2411952018737793
1720787091002566400,2.61356640625,-1.0272150039672852,0.5394918918609619,0.4028186798095703
1720787091012580000,2.623580078125,-1.4747886657714844,1.9272769689559937,-0.0028624534606933594
1720787091022594000,2.633593994140625,-0.8729424476623535,1.7993144989013672,-0.6310863494873047
1720787091032608000,2.64360791015625,-0.49552154541015625,0.2797098159790039,-0.9888525009155273
1720787091042621700,2.65362158203125,-0.18185710906982422,-0.5157876014709473,-0.9138150215148926
1720787091052635400,2.663635498046875,0.28132152557373047,0.07571792602539062,-1.0574145317077637
1720787091062649300,2.6736494140625,0.3887028694152832,0.7179813385009766,-0.8765053749084473
1720787091072663000,2.6836630859375,0.7188997268676758,1.6395533084869385,-0.3735485076904297
1720787091082677000,2.693677001953125,0.7200307846069336,3.131934642791748,0.32540369033813477
1720787091092690700,2.703690673828125,0.10629892349243164,4.999919891357422,0.9994783401489258
1720787091102704400,2.713704345703125,-0.04153728485107422,5.634766578674316,0.8877553939819336
1720787091112718300,2.72371826171875,-0.010582923889160156,5.3219499588012695,0.8173861503601074
1720787091122732000,2.73373193359375,1.2028346061706543,6.148657321929932,0.7747974395751953
1720787091132746000,2.74374609375,3.064154624938965,6.0238189697265625,1.7752876281738281
1720787091142759700,2.753759765625,3.234673500061035,1.0055952072143555,1.9483578205108643
1720787091152773400,2.7637734375,0.9855365753173828,-1.8826587200164795,-0.459808349609375
1720787091162787300,2.773787353515625,-0.30597925186157227,-0.01983809471130371,-0.343533992767334
1720787091172801000,2.783801025390625,1.3091793060302734,0.8031883239746094,-0.511237621307373
1720787091182815000,2.79381494140625,0.33649301528930664,2.9354655742645264,-0.20771408081054688
1720787091192828700,2.80382861328125,-1.8931384086608887,1.3308717012405396,0.09850263595581055
1720787091202842600,2.813842529296875,-1.313209056854248,1.4100401401519775,-0.29764795303344727
1720787091212856300,2.823856201171875,0.8426032066345215,1.3232101202011108,-1.5120759010314941
1720787091222870000,2.8338701171875,2.206484794616699,2.331948757171631,-1.235419750213623
1720787091232884000,2.843884033203125,-1.1695528030395508,-0.18376922607421875,-2.12692928314209
1720787091242897700,2.853897705078125,-3.574955701828003,-5.431931495666504,-5.0005879402160645
1720787091252911600,2.86391162109375,-3.2963757514953613,-8.085397720336914,-6.713986873626709
1720787091262925300,2.87392529296875,-0.40532588958740234,-5.517980098724365,-2.374756336212158
1720787091272939000,2.88393896484375,-0.37680673599243164,-5.406782150268555,-1.2129688262939453
1720787091282953000,2.893952880859375,-0.10153818130493164,-3.5596845149993896,0.3488197326660156
1720787091292966700,2.903966552734375,0.8528690338134766,-2.3134207725524902,1.4555473327636719
1720787091302980600,2.913980712890625,0.6389188766479492,-2.9791886806488037,2.6423215866088867
1720787091312994300,2.923994384765625,1.4226651191711426,-4.308124542236328,3.262286901473999
1720787091323008300,2.93400830078125,1.0626821517944336,-3.9211137294769287,3.501835584640503
1720787091333022000,2.94402197265625,-0.3248014450073242,-2.836427688598633,3.1661338806152344
1720787091343035600,2.95403564453125,-1.4491653442382812,-1.6784498691558838,2.303157091140747
1720787091353049600,2.964049560546875,-0.6786055564880371,-1.2678558826446533,1.1250486373901367
1720787091363063300,2.974063232421875,0.3645286560058594,-1.0251884460449219,0.6537799835205078
1720787091373077200,2.9840771484375,0.09297752380371094,0.17843365669250488,0.4379997253417969
1720787091383091000,2.994091064453125,0.020177364349365234,0.22045552730560303,0.5038762092590332
1720787091393104600,3.004104736328125,0.8038806915283203,0.8117817640304565,-0.04410505294799805
1720787091403118600,3.01411865234375,0.26671934127807617,2.3984580039978027,0.11817359924316406
1720787091413132300,3.02413232421875,-0.17499399185180664,3.151416778564453,0.4878206253051758
1720787091423146200,3.034146240234375,0.010099411010742188,3.375983715057373,0.8152408599853516
1720787091433160000,3.044159912109375,-0.06583833694458008,2.36659836769104,1.5629312992095947
1720787091443174000,3.054173828125,-0.5533914566040039,1.269408106803894,1.474827527999878
1720787091453187600,3.0641875,-0.752894401550293,0.12214136123657227,0.035303592681884766
1720787091463201500,3.074201416015625,-0.5562310218811035,-0.5290409326553345,-0.723879337310791
1720787091473215200,3.08421533203125,-0.3455519676208496,-1.0472334623336792,-0.954200267791748
1720787091483229200,3.094229248046875,-0.24456071853637695,-1.4139065742492676,-1.0344061851501465
1720787091493243000,3.104242919921875,0.004611015319824219,-0.9288210868835449,-0.552675724029541
1720787091503256800,3.1142568359375,0.2007427215576172,-0.7136440277099609,0.23378944396972656
1720787091513270800,3.124270751953125,0.06881332397460938,-0.6533298492431641,0.7758297920227051
1720787091523284500,3.134284423828125,0.10137224197387695,-0.42499399185180664,1.0488662719726562
1720787091533298400,3.14429833984375,-0.06972408294677734,-0.737837553024292,1.156656265258789
1720787091543312100,3.15431201171875,-0.4973640441894531,-1.2967727184295654,0.5450539588928223
1720787091553326000,3.164326171875,-0.6344408988952637,-2.1794772148132324,-0.6583108901977539
1720787091563340000,3.174340087890625,-1.0084638595581055,-3.0046894550323486,-1.8080296516418457
1720787091573353700,3.184353759765625,-0.16009187698364258,-2.949751138687134,-0.9749841690063477
1720787091583367700,3.19436767578125,2.193319320678711,-1.0268113613128662,-1.457932472229004
1720787091593381600,3.204381591796875,1.1916837692260742,-0.04924929141998291,-0.14856195449829102
1720787091603395300,3.214395263671875,0.9118337631225586,0.7491734027862549,0.767888069152832
1720787091613409300,3.2244091796875,0.45732688903808594,-0.09824895858764648,1.044813632965088
1720787091623423000,3.234423095703125,0.23889589309692383,-1.1644014120101929,0.9400124549865723
1720787091633437000,3.24443701171875,0.009209632873535156,-1.6213163137435913,0.09804630279541016
1720787091643451000,3.254450927734375,0.41253089904785156,0.9858555793762207,0.7826085090637207
1720787091653464600,3.264464599609375,-0.2378077507019043,-3.5260679721832275,-1.2360243797302246
1720787091663478500,3.274478515625,-0.4616560935974121,-2.523033618927002,-1.3347663879394531
1720787091673492500,3.284492431640625,-0.1690821647644043,-1.8835761547088623,-0.6689505577087402
1720787091683506200,3.294506103515625,0.03934144973754883,-1.2459371089935303,-0.6845517158508301
1720787091693520100,3.30452001953125,-0.1017141342163086,-0.9827048778533936,-0.9042048454284668
1720787091703533800,3.314533935546875,0.17064571380615234,-0.6231768131256104,-1.1758856773376465
1720787091713547800,3.3245478515625,0.24640274047851562,-0.16962873935699463,-1.392432689666748
1720787091723561700,3.334561767578125,0.02775859832763672,1.442523717880249,-0.41908836364746094
1720787091733575400,3.344575439453125,-0.12981796264648438,1.4689215421676636,-0.35478925704956055
1720787091743589400,3.35458935546875,-0.7532920837402344,1.7771575450897217,-0.37883663177490234
1720787091753603000,3.36460302734375,0.3524665832519531,1.3856171369552612,-0.36915111541748047
1720787091763617000,3.374616943359375,0.16635417938232422,1.1189618110656738,-0.4842996597290039
1720787091773631000,3.384630859375,0.14422035217285156,0.8537355661392212,-0.606226921081543
1720787091783644700,3.394644775390625,0.03368568420410156,0.3164041042327881,-0.5763144493103027
1720787091793658600,3.40465869140625,-0.308164119720459,0.3696545362472534,-0.4016451835632324
1720787091803672600,3.414672607421875,-0.2307758331298828,-0.2805694341659546,-0.3160438537597656
1720787091813686300,3.424686279296875,0.2692899703979492,-0.4689207077026367,-0.07049560546875
1720787091823700200,3.4347001953125,-0.014947891235351562,-0.5728027820587158,0.18282699584960938
1720787091833714000,3.4447138671875,-0.7139215469360352,0.5932810306549072,1.4084134101867676
1720787091843728000,3.454727783203125,-0.9434175491333008,1.8121098279953003,2.067582845687866
1720787091853741800,3.464741943359375,-0.6132769584655762,1.5108829736709595,1.5511939525604248
1720787091863755500,3.474755615234375,-0.32415294647216797,0.5897200107574463,0.8398323059082031
1720787091873769500,3.48476953125,-0.1381368637084961,0.02742314338684082,0.4011354446411133
1720787091883783200,3.494783203125,0.14654016494750977,-0.31055331230163574,0.04436922073364258
1720787091893797000,3.504797119140625,0.22862720489501953,-0.3393590450286865,-0.13977479934692383
1720787091903811000,3.51481103515625,0.22675180435180664,-0.18495845794677734,-0.26337432861328125
1720787091913824800,3.52482470703125,0.1920461654663086,0.00808405876159668,-0.40518712997436523
1720787091923838700,3.534838623046875,0.1332073211669922,0.12860548496246338,-0.46578311920166016
1720787091933852700,3.544852783203125,0.035971641540527344,0.1859644651412964,-0.38791894912719727
1720787091943866400,3.554866455078125,-0.09946107864379883,0.19974792003631592,-0.19585180282592773
1720787091953880300,3.56488037109375,-0.20144319534301758,0.20419013500213623,0.004577159881591797
1720787091963894000,3.57489404296875,-0.22706270217895508,0.24243426322937012,0.15121889114379883
1720787091973908000,3.584907958984375,-0.16179847717285156,0.31473302841186523,0.23513031005859375
1720787091983922000,3.594921875,-0.03854799270629883,0.368227481842041,0.22905731201171875
1720787091993935600,3.604935546875,0.1046452522277832,0.412373423576355,0.18156671524047852
1720787092003949600,3.614949462890625,0.2291545867919922,0.3994647264480591,0.09224605560302734
1720787092013963500,3.624963623046875,0.32013654708862305,0.33928489685058594,-0.020520687103271484
1720787092023977200,3.634977294921875,0.3348212242126465,0.19401609897613525,-0.11836385726928711
1720787092033991200,3.6449912109375,0.2876725196838379,-0.03598809242248535,-0.1632680892944336
1720787092044004900,3.6550048828125,0.23101520538330078,-0.264833927154541,-0.1653881072998047
1720787092054018800,3.665018798828125,0.14078855514526367,-0.45969700813293457,-0.13922834396362305
1720787092064032800,3.67503271484375,0.06471395492553711,-0.5495810508728027,-0.070526123046875
1720787092074046500,3.68504638671875,0.007725715637207031,-0.520970344543457,-0.016250133514404297
1720787092084060400,3.695060302734375,-0.07318496704101562,-0.3886129856109619,0.033292293548583984
1720787092094074000,3.70507421875,-0.14999628067016602,-0.24382233619689941,0.07243680953979492
1720787092104088000,3.715088134765625,-0.1754450798034668,-0.08165144920349121,0.057431697845458984
1720787092114102000,3.72510205078125,-0.11681985855102539,0.09343230724334717,0.016131877899169922
1720787092124115700,3.73511572265625,-0.04147768020629883,0.2587623596191406,-0.056969642639160156
1720787092134129700,3.745129638671875,0.012566089630126953,0.31971704959869385,-0.14266347885131836
1720787092144143600,3.7551435546875,0.046057701110839844,0.2962684631347656,-0.22105932235717773
1720787092154157300,3.7651572265625,0.07856512069702148,0.2506828308105469,-0.2868189811706543
1720787092164171300,3.775171142578125,0.11576223373413086,0.15394794940948486,-0.28601598739624023
1720787092174185000,3.78518505859375,0.19210243225097656,0.10119807720184326,-0.21717309951782227
1720787092184199000,3.795198974609375,0.27923583984375,0.0728614330291748,-0.14663171768188477
1720787092194212900,3.805212890625,0.31966161727905273,0.021085500717163086,-0.11280298233032227
1720787092204226600,3.8152265625,0.29860591888427734,-0.04967212677001953,-0.12102079391479492
1720787092214240300,3.825240234375,0.24942445755004883,-0.15383648872375488,-0.14281320571899414
1720787092224254200,3.835254150390625,0.19076204299926758,-0.2197704315185547,-0.11197090148925781
1720787092234268000,3.845267822265625,0.12282228469848633,-0.2331235408782959,-0.052317142486572266
1720787092244281900,3.85528173828125,0.021268844604492188,-0.21303057670593262,0.04014158248901367
1720787092254295600,3.865295654296875,-0.06626749038696289,-0.18337059020996094,0.14104270935058594
1720787092264309500,3.8753095703125,-0.12077760696411133,-0.12973356246948242,0.24067449569702148
1720787092274323200,3.8853232421875,-0.14696979522705078,-0.0667271614074707,0.32022953033447266
1720787092284337000,3.8953369140625,-0.1253833770751953,-0.056372880935668945,0.34686851501464844
1720787092294350800,3.905350830078125,-0.07959461212158203,-0.060332298278808594,0.3309288024902344
1720787092304364500,3.915364501953125,-0.023944377899169922,-0.0641179084777832,0.2677803039550781
1720787092314378500,3.92537841796875,0.0650033950805664,-0.04403829574584961,0.18567466735839844
1720787092324392200,3.93539208984375,0.13921451568603516,-0.03836631774902344,0.02229452133178711
1720787092334406000,3.945406005859375,0.19571352005004883,-0.003791332244873047,-0.10161876678466797
1720787092344419800,3.955419921875,0.19938135147094727,0.05444812774658203,-0.18616485595703125
1720787092354433500,3.96543359375,0.16058969497680664,0.07473587989807129,-0.255462646484375
1720787092364447500,3.975447509765625,0.11268377304077148,0.08591556549072266,-0.2678399085998535
1720787092374461200,3.985461181640625,0.04161500930786133,0.08794903755187988,-0.24782562255859375
1720787092384475100,3.99547509765625,-0.009555816650390625,0.08068203926086426,-0.16717290878295898
1720787092394488800,4.00548876953125,-0.05020570755004883,0.045342206954956055,-0.09226846694946289
1720787092404502500,4.01550244140625,-0.07583427429199219,0.02469158172607422,-0.03244829177856445
1720787092414516500,4.0255166015625,-0.11532306671142578,-0.00526738166809082,0.016800403594970703
1720787092424530200,4.0355302734375,-0.10712862014770508,-0.04448962211608887,0.07935047149658203
1720787092434544000,4.045544189453125,-0.11828231811523438,-0.12114524841308594,0.13574552536010742
1720787092444557800,4.055557861328125,-0.11553096771240234,-0.16887855529785156,0.19082164764404297
1720787092454571500,4.065571533203125,-0.10864830017089844,-0.2352304458618164,0.23497772216796875
1720787092464585500,4.07558544921875,-0.11157751083374023,-0.28699636459350586,0.2640972137451172
1720787092474599200,4.08559912109375,-0.08164358139038086,-0.3242514133453369,0.29265880584716797
1720787092484613000,4.095613037109375,-0.004424095153808594,-0.33310437202453613,0.29364967346191406
1720787092494626800,4.105626708984375,0.05373811721801758,-0.2807443141937256,0.23973894119262695
1720787092504640500,4.115640625,0.07422161102294922,-0.19631695747375488,0.17876434326171875
1720787092514654500,4.125654541015625,0.0809779167175293,-0.14154434204101562,0.08692359924316406
1720787092524668200,4.135668212890625,0.07877779006958008,-0.0688176155090332,-0.01196146011352539
1720787092534682000,4.14568212890625,0.03446054458618164,-0.04904532432556152,-0.14184904098510742
1720787092544696000,4.155696044921875,-0.009125232696533203,-0.09566950798034668,-0.32607126235961914
1720787092554709800,4.165709716796875,-0.06133413314819336,-0.19829654693603516,-0.46931934356689453
1720787092564723700,4.1757236328125,-0.12254571914672852,-0.2292630672454834,-0.5775632858276367
1720787092574737400,4.1857373046875,-0.16902399063110352,-0.21828079223632812,-0.5758481025695801
1720787092584751400,4.19575146484375,-0.1868901252746582,-0.0958564281463623,-0.5129146575927734
1720787092594765300,4.205765380859375,-0.16642427444458008,0.04730725288391113,-0.37007856369018555
1720787092604779000,4.215779052734375,-0.11794185638427734,0.1591801643371582,-0.25746679306030273
1720787092614793000,4.22579296875,-0.032380104064941406,0.20780563354492188,-0.1416630744934082
1720787092624806700,4.235806640625,0.032633304595947266,0.2650430202484131,-0.05647134780883789
1720787092634820600,4.245820556640625,0.0820159912109375,0.24597668647766113,0.04080343246459961
1720787092644834600,4.25583447265625,0.01271963119506836,0.2084660530090332,0.11274480819702148
1720787092654848300,4.26584814453125,-0.054976463317871094,0.1914510726928711,0.22138595581054688
1720787092664862200,4.2758623046875,-0.14418840408325195,0.1719207763671875,0.29575681686401367
1720787092674876200,4.285876220703125,-0.1563401222229004,0.037209272384643555,0.29750776290893555
1720787092684889900,4.295889892578125,-0.10699939727783203,-0.1688084602355957,0.28905725479125977
1720787092694903800,4.30590380859375,-0.0729060173034668,-0.3140878677368164,0.1998581886291504
1720787092704917500,4.31591748046875,-0.07172679901123047,-0.44325876235961914,0.05673933029174805
1720787092714931500,4.325931396484375,-0.13491010665893555,-0.4536914825439453,-0.06220388412475586
1720787092724945400,4.3359453125,-0.18164443969726562,-0.4278683662414551,-0.11530685424804688
1720787092734959000,4.345958984375,-0.16164493560791016,-0.3523697853088379,-0.09609031677246094
1720787092744973000,4.35597314453125,-0.11487436294555664,-0.2514657974243164,-0.10647821426391602
1720787092754987000,4.365987060546875,-0.042374610900878906,-0.1298198699951172,-0.1470780372619629
1720787092765000700,4.376000732421875,0.046450138092041016,-0.043897151947021484,-0.19805669784545898
1720787092775014700,4.3860146484375,0.1475052833557129,-0.025501489639282227,-0.2393331527709961
1720787092785028400,4.3960283203125,0.19984674453735352,0.0025060176849365234,-0.24233770370483398
1720787092795042300,4.406042236328125,0.21390151977539062,0.016604185104370117,-0.20750951766967773
1720787092805056300,4.41605615234375,0.19072389602661133,-0.0206906795501709,-0.12070703506469727
1720787092815070000,4.426070068359375,0.13143110275268555,-0.08939981460571289,0.017817974090576172
1720787092825084000,4.436083984375,0.03142499923706055,-0.1371767520904541,0.15936040878295898
1720787092835097600,4.44609765625,-0.042926788330078125,-0.15494871139526367,0.2846221923828125
1720787092845111600,4.456111572265625,-0.050081729888916016,-0.15757179260253906,0.3273754119873047
1720787092855125500,4.46612548828125,-0.0198822021484375,-0.14604783058166504,0.2698097229003906
1720787092865139200,4.47613916015625,0.013720512390136719,-0.12124991416931152,0.13692235946655273
1720787092875153200,4.486153076171875,0.031911373138427734,-0.09323549270629883,0.024510860443115234
1720787092885167000,4.4961669921875,0.021083354949951172,-0.09021329879760742,-0.02500772476196289
1720787092895180800,4.506180908203125,0.01011514663696289,-0.1302509307861328,-0.026788711547851562
1720787092905194800,4.51619482421875,-0.0057926177978515625,-0.1414940357208252,-0.02438640594482422
1720787092915208400,4.52620849609375,0.034348487854003906,-0.14742493629455566,-0.051616668701171875
1720787092925222400,4.536222412109375,0.08758831024169922,-0.11498832702636719,-0.04624366760253906
1720787092935236400,4.546236328125,0.1349797248840332,-0.10617995262145996,-0.06983470916748047
1720787092945250000,4.55625,0.18669939041137695,-0.1394486427307129,-0.07380199432373047
1720787092955264000,4.566263916015625,0.16727161407470703,-0.18618416786193848,-0.11016464233398438
1720787092965277700,4.576277587890625,0.12047863006591797,-0.21343326568603516,-0.06489896774291992
1720787092975291600,4.586291748046875,0.09785985946655273,-0.1889030933380127,-0.015690326690673828
1720787092985305600,4.5963056640625,0.07088518142700195,-0.12285208702087402,0.028172016143798828
1720787092995319300,4.6063193359375,0.04438972473144531,-0.05349469184875488,0.06677961349487305
1720787093005333200,4.616333251953125,0.055838584899902344,-0.013975381851196289,0.1517648696899414
1720787093015347200,4.62634716796875,0.05787181854248047,0.005898475646972656,0.2121424674987793
1720787093025361000,4.63636083984375,0.08326864242553711,0.001768350601196289,0.20065736770629883
1720787093035374800,4.646374755859375,0.09879827499389648,0.002438783645629883,0.1893148422241211
1720787093045388500,4.656388427734375,0.10906267166137695,-0.0017573833465576172,0.19190597534179688
1720787093055402500,4.666402587890625,0.09102725982666016,-0.005856990814208984,0.2558894157409668
1720787093065416400,4.67641650390625,0.05493783950805664,-0.023748159408569336,0.35711145401000977
1720787093075430100,4.68643017578125,0.02459430694580078,-0.008031129837036133,0.41945934295654297
1720787093085444000,4.696444091796875,0.028030872344970703,0.04114246368408203,0.3630824089050293
1720787093095458000,4.7064580078125,-0.006200313568115234,0.03825259208679199,0.27921485900878906
1720787093105471700,4.7164716796875,-0.030762672424316406,0.002543210983276367,0.21031808853149414
1720787093115485700,4.726485595703125,-0.05940866470336914,-0.08926844596862793,0.20422649383544922
1720787093125499400,4.73649951171875,-0.11533117294311523,-0.14692163467407227,0.17093420028686523
1720787093135513300,4.746513427734375,-0.12256336212158203,-0.14735126495361328,0.17231130599975586
1720787093145527300,4.75652734375,-0.14335012435913086,-0.11055207252502441,0.15105247497558594
1720787093155541000,4.766541015625,-0.18228387832641602,-0.06064605712890625,0.14502954483032227
1720787093165555000,4.776554931640625,-0.19725513458251953,-0.01653432846069336,0.12472200393676758
1720787093175568600,4.786568603515625,-0.19794988632202148,0.017414331436157227,0.11401033401489258
1720787093185582600,4.79658251953125,-0.15171003341674805,0.027479887008666992,0.0936431884765625
1720787093195596500,4.806596435546875,-0.10153007507324219,-0.009464502334594727,0.04050445556640625
1720787093205610200,4.8166103515625,-0.014229297637939453,-0.04092073440551758,0.012144088745117188
1720787093215624200,4.826624267578125,0.08120107650756836,-0.05783247947692871,-0.024858951568603516
1720787093225638100,4.83663818359375,0.12335395812988281,-0.08911991119384766,-0.07019758224487305
1720787093235651800,4.84665185546875,0.17409324645996094,-0.11569380760192871,-0.11001968383789062
1720787093245665800,4.856665771484375,0.15773630142211914,-0.11867523193359375,-0.16827964782714844
1720787093255679500,4.866679443359375,0.12264728546142578,-0.0983741283416748,-0.1644148826599121
1720787093265693400,4.876693359375,0.03147411346435547,-0.03619742393493652,-0.14659786224365234
1720787093275707400,4.886707275390625,-0.07680892944335938,0.025278091430664062,-0.11948919296264648
1720787093285721000,4.89672119140625,-0.14075183868408203,0.07671999931335449,-0.05985069274902344
1720787093295735000,4.906735107421875,-0.1657242774963379,0.08523416519165039,-0.04814767837524414
1720787093305749000,4.9167490234375,-0.12890005111694336,0.04652070999145508,-0.027021408081054688
1720787093315762700,4.9267626953125,-0.07871627807617188,0.022252321243286133,-0.044019222259521484
1720787093325776600,4.936776611328125,-0.01534128189086914,0.012021303176879883,-0.03709554672241211
1720787093335790300,4.946790283203125,0.013866424560546875,0.0015444755554199219,-0.039710044860839844
1720787093345804300,4.95680419921875,0.03295087814331055,0.024107933044433594,-0.04726886749267578
1720787093355818200,4.966818359375,0.027699947357177734,0.018062353134155273,-0.08840656280517578
1720787093365832000,4.97683203125,0.023049354553222656,-0.00630497932434082,-0.09530019760131836
1720787093375846000,4.986845947265625,-0.028530120849609375,-0.04405689239501953,-0.1256413459777832
1720787093385859600,4.996859619140625,-0.03249216079711914,-0.18056702613830566,0.023224353790283203
1720787093395873500,5.00687353515625,-0.11869239807128906,-0.13101458549499512,0.2487959861755371
1720787093405887500,5.016887451171875,-0.10479211807250977,0.11031699180603027,0.22077369689941406
1720787093415901200,5.026901123046875,-0.11023712158203125,0.1679999828338623,0.136566162109375
1720787093425915100,5.0369150390625,0.04897499084472656,0.158599853515625,0.03920888900756836
1720787093435929000,5.04692919921875,0.08141708374023438,0.1399843692779541,-0.23335742950439453
1720787093445942800,5.05694287109375,0.18918514251708984,0.027680635452270508,-0.26519012451171875
1720787093455956700,5.066956787109375,0.09409904479980469,-0.06335091590881348,-0.28972959518432617
1720787093465970400,5.076970458984375,0.08542633056640625,-0.18131732940673828,-0.15826892852783203
1720787093475984400,5.086984375,-0.04906606674194336,-0.11427545547485352,0.048592567443847656
1720787093485998300,5.096998291015625,-0.11584854125976562,-0.025182723999023438,0.19962072372436523
1720787093496012000,5.107011962890625,-0.09181070327758789,0.09498882293701172,0.22142362594604492
1720787093506026000,5.11702587890625,-0.13911008834838867,0.22257709503173828,0.13409090042114258
1720787093516039700,5.127039794921875,-0.05431032180786133,0.2304246425628662,0.09432649612426758
1720787093526053600,5.1370537109375,-0.07415580749511719,0.23433446884155273,-0.005836963653564453
1720787093536067600,5.147067626953125,-0.0007376670837402344,0.17280125617980957,-0.19136619567871094
1720787093546081300,5.157081298828125,0.01125335693359375,0.10347700119018555,-0.1463918685913086
1720787093556095200,5.16709521484375,0.004693031311035156,0.021890640258789062,-0.1159048080444336
1720787093566109200,5.177109130859375,0.06505393981933594,0.01717972755432129,-0.1318216323852539
1720787093576123000,5.187122802734375,0.06756114959716797,0.0021314620971679688,-0.09566116333007812
1720787093586136800,5.19713671875,0.013347148895263672,0.019207000732421875,-0.007987022399902344
1720787093596150500,5.207150634765625,-0.007332324981689453,0.09195113182067871,0.05912637710571289
1720787093606164500,5.21716455078125,0.000020503997802734375,0.12582135200500488,0.05356740951538086
1720787093616178400,5.227178466796875,0.0547947883605957,0.15064382553100586,0.1283884048461914
1720787093626192100,5.237192138671875,0.04634809494018555,0.13381266593933105,-0.01217508316040039
1720787093636206000,5.2472060546875,0.12180566787719727,0.08985137939453125,-0.10994625091552734
1720787093646220000,5.257219970703125,0.1118621826171875,0.09467434883117676,-0.10661792755126953
1720787093656233700,5.267233642578125,0.1167912483215332,0.05765247344970703,-0.14047670364379883
1720787093666247700,5.27724755859375,0.10930442810058594,0.06877350807189941,-0.14302349090576172
1720787093676261400,5.287261474609375,0.10715818405151367,0.013643026351928711,-0.0929107666015625
1720787093686275300,5.297275390625,0.08163881301879883,-0.00783991813659668,-0.11868667602539062
1720787093696289300,5.307289306640625,0.07985782623291016,0.013241767883300781,-0.13489246368408203
1720787093706303000,5.317302978515625,0.06729698181152344,0.005316972732543945,-0.19981908798217773
1720787093716317000,5.32731689453125,0.06375980377197266,0.016315221786499023,-0.16089773178100586
1720787093726330600,5.33733056640625,-0.007202625274658203,0.008041143417358398,-0.24254703521728516
1720787093736344600,5.347344482421875,-0.003414154052734375,0.004091501235961914,-0.26872730255126953
1720787093746358500,5.357358642578125,-0.03252220153808594,-0.018604278564453125,-0.1152496337890625
1720787093756372200,5.367372314453125,-0.07067155838012695,-0.04102778434753418,-0.07750177383422852
1720787093766386200,5.37738623046875,-0.06437349319458008,0.002550363540649414,0.07491731643676758
1720787093776400000,5.38739990234375,-0.09134531021118164,-0.0019538402557373047,0.06445741653442383
1720787093786413600,5.39741357421875,-0.04245328903198242,-0.05401921272277832,0.0686044692993164
1720787093796427500,5.407427490234375,0.015468597412109375,-0.0017101764678955078,0.0780801773071289
1720787093806441200,5.417441162109375,-0.02249908447265625,0.030908823013305664,-0.050271034240722656
1720787093816455200,5.427455078125,0.039147377014160156,0.049181222915649414,-0.030521392822265625
1720787093826468900,5.43746875,0.0012192726135253906,0.1055600643157959,-0.09095954895019531
1720787093836482600,5.447482666015625,0.014732837677001953,0.1139979362487793,-0.19433212280273438
1720787093846496500,5.45749658203125,-0.013377189636230469,0.0990142822265625,-0.12032461166381836
1720787093856510200,5.46751025390625,-0.054822444915771484,0.06554245948791504,-0.1366262435913086
1720787093866524200,5.477524169921875,-0.019024372100830078,0.07020282745361328,-0.03309822082519531
1720787093876537900,5.487537841796875,-0.10143136978149414,0.06519508361816406,-0.06759166717529297
1720787093886551600,5.497551513671875,-0.06998443603515625,0.012628316879272461,-0.0644388198852539
1720787093896565500,5.5075654296875,-0.048816680908203125,0.08309316635131836,-0.023983478546142578
1720787093906579200,5.5175791015625,-0.09466171264648438,0.13367772102355957,-0.055966854095458984
1720787093916593200,5.52759326171875,-0.07432317733764648,0.13173580169677734,-0.027022838592529297
1720787093926606800,5.53760693359375,-0.06761789321899414,0.14479970932006836,0.03054523468017578
1720787093936620800,5.547620849609375,-0.0668339729309082,0.1251997947692871,-0.08430194854736328
1720787093946634500,5.557634521484375,0.014272689819335938,0.04033064842224121,-0.02272939682006836
1720787093956648200,5.567648193359375,0.0005326271057128906,-0.05692410469055176,0.019882678985595703
1720787093966662100,5.577662109375,0.0620880126953125,-0.11035704612731934,-0.004535675048828125
1720787093976675800,5.58767578125,0.0435185432434082,-0.1067814826965332,0.03433942794799805
1720787093986689800,5.597689697265625,0.0002493858337402344,-0.11352348327636719,-0.07521867752075195
1720787093996703500,5.607703369140625,0.009587287902832031,-0.08324360847473145,-0.0505833625793457
1720787094006717200,5.61771728515625,-0.013926982879638672,0.045240163803100586,-0.05881977081298828
1720787094016731100,5.627731201171875,-0.03728199005126953,0.12923049926757812,-0.08612632751464844
1720787094026744800,5.637744873046875,0.011334419250488281,0.16528630256652832,-0.031818389892578125
1720787094036758800,5.6477587890625,-0.011958599090576172,0.1544356346130371,-0.1537332534790039
1720787094046772500,5.6577724609375,0.04443645477294922,0.049262046813964844,-0.19926023483276367
1720787094056786400,5.667786376953125,0.039947509765625,-0.08264660835266113,-0.09127140045166016
1720787094066800000,5.677800048828125,0.01683664321899414,-0.22679352760314941,-0.14019250869750977
1720787094076813800,5.687813720703125,0.0413818359375,-0.2234039306640625,-0.16879892349243164
1720787094086827800,5.697827880859375,-0.019690990447998047,-0.21610593795776367,-0.17362356185913086
1720787094096841700,5.707841796875,-0.07053756713867188,-0.2002277374267578,-0.16421127319335938
1720787094106855400,5.71785546875,-0.13449478149414062,-0.11445236206054688,-0.060246944427490234
1720787094116869400,5.727869384765625,-0.24455738067626953,-0.01603555679321289,0.004235744476318359
1720787094126883000,5.737883056640625,-0.21636676788330078,0.07128262519836426,0.15687322616577148
1720787094136897000,5.74789697265625,-0.16894769668579102,0.18098974227905273,0.28922557830810547
1720787094146911000,5.757910888671875,-0.085418701171875,0.2229766845703125,0.21561908721923828
1720787094156924700,5.767924560546875,0.016046524047851562,0.14651775360107422,0.19574737548828125
1720787094166938600,5.777938720703125,0.06881904602050781,0.048055171966552734,0.10085725784301758
1720787094176952600,5.78795263671875,0.17690086364746094,-0.006202220916748047,0.02110767364501953
1720787094186966300,5.79796630859375,0.14221572875976562,-0.017243385314941406,-0.02847576141357422
1720787094196980200,5.807980224609375,0.13540363311767578,-0.08941411972045898,-0.08803319931030273
1720787094206994000,5.817993896484375,0.10976839065551758,-0.08504223823547363,-0.12315845489501953
1720787094217007900,5.8280078125,0.0748286247253418,0.018107175827026367,-0.09215307235717773
1720787094227021800,5.838021728515625,-0.011577129364013672,0.030025720596313477,-0.07612752914428711
1720787094237035500,5.848035400390625,-0.025077342987060547,0.018195152282714844,0.03500699996948242
1720787094247049500,5.858049560546875,-0.11378669738769531,0.04941606521606445,0.00737762451171875
1720787094257063200,5.868063232421875,-0.08832216262817383,0.05193209648132324,-0.006233692169189453
1720787094267077000,5.8780771484375,-0.10489702224731445,0.017215967178344727,0.07551097869873047
1720787094277091000,5.888091064453125,-0.05559062957763672,-0.030669689178466797,0.06098747253417969
1720787094287104800,5.898104736328125,0.017016887664794922,-0.03989839553833008,0.09456062316894531
1720787094297118700,5.90811865234375,0.026493549346923828,-0.10567045211791992,0.06542682647705078
1720787094307132700,5.918132568359375,0.08724737167358398,-0.20382261276245117,0.008179187774658203
1720787094317146400,5.928146484375,0.14203882217407227,-0.1787090301513672,0.03202247619628906
1720787094327160300,5.938160400390625,0.0543360710144043,-0.18264079093933105,0.008162975311279297
1720787094337174000,5.948174072265625,0.01063394546508789,-0.15378761291503906,0.027420520782470703
1720787094347188000,5.95818798828125,-0.05527544021606445,-0.0874490737915039,0.08010530471801758
1720787094357202000,5.968201904296875,-0.10184001922607422,-0.04563260078430176,-0.019773006439208984
1720787094367215600,5.978215576171875,-0.09527444839477539,-0.03270387649536133,0.03821372985839844
1720787094377229600,5.9882294921875,-0.08844709396362305,-0.06695675849914551,0.11454916000366211
1720787094387243500,5.998243408203125,-0.029761314392089844,-0.015914440155029297,0.11919546127319336
1720787094397257200,6.00825732421875,-0.027864456176757812,0.043459415435791016,0.12962865829467773
1720787094407271200,6.018271240234375,0.029083251953125,-0.08680224418640137,0.09548282623291016
1720787094417284900,6.028284912109375,0.05383443832397461,-0.13914895057678223,0.2291274070739746
1720787094427298800,6.038298828125,0.025576114654541016,0.05959582328796387,0.057672977447509766
1720787094437312800,6.048312744140625,0.08226394653320312,0.0906064510345459,0.06270456314086914
1720787094447326500,6.058326416015625,0.007283687591552734,0.07455062866210938,-0.08635425567626953
1720787094457340400,6.06834033203125,0.09540510177612305,0.053571224212646484,-0.28891754150390625
1720787094467354000,6.07835400390625,0.014644145965576172,-0.08940911293029785,-0.11754751205444336
1720787094477368000,6.0883681640625,-0.04156684875488281,-0.11661171913146973,-0.1145787239074707
1720787094487382000,6.098382080078125,-0.06462383270263672,-0.13469767570495605,-0.1689448356628418
1720787094497395700,6.108395751953125,-0.009928226470947266,-0.180861234664917,0.2704653739929199
1720787094507409700,6.11840966796875,-0.17420196533203125,-0.009858131408691406,-0.024753570556640625
1720787094517423600,6.128423583984375,0.05512523651123047,0.08724379539489746,0.08533525466918945
1720787094527437300,6.138437255859375,0.024577617645263672,0.10263848304748535,-0.1197214126586914
1720787094537451300,6.148451171875,0.02667856216430664,0.02844715118408203,-0.2378530502319336
1720787094547465000,6.15846484375,0.0012726783752441406,-0.09065985679626465,-0.08005857467651367
1720787094557479000,6.16847900390625,-0.01817178726196289,-0.1784670352935791,0.07582283020019531
1720787094567492900,6.178492919921875,-0.14973115921020508,-0.09969401359558105,-0.11871623992919922
1720787094577506600,6.188506591796875,-0.008826732635498047,0.010094881057739258,0.15446805953979492
1720787094587520500,6.1985205078125,-0.10739564895629883,0.003996610641479492,0.034979820251464844
1720787094597534200,6.2085341796875,0.016501903533935547,-0.002933979034423828,-0.031135082244873047
1720787094607548200,6.218548095703125,0.04264116287231445,-0.06695246696472168,0.005682468414306641
1720787094617562000,6.22856201171875,-0.08608579635620117,-0.08199167251586914,0.0006136894226074219
1720787094627575800,6.238575927734375,-0.03336811065673828,-0.01102757453918457,0.047420501708984375
1720787094637589800,6.24858984375,-0.1147928237915039,0.1343708038330078,-0.1582961082458496
1720787094647603700,6.258603759765625,-0.07517671585083008,0.07990312576293945,0.009433746337890625
1720787094657617400,6.268617431640625,-0.12190103530883789,0.05458474159240723,-0.0106201171875
1720787094667631400,6.27863134765625,-0.06336212158203125,0.020312070846557617,0.022671222686767578
1720787094677645000,6.28864501953125,0.04203987121582031,0.10414981842041016,-0.009395599365234375
1720787094687659000,6.298658935546875,0.049372196197509766,0.11951613426208496,-0.20361089706420898
1720787094697673000,6.3086728515625,0.057412147521972656,0.04491877555847168,-0.12006425857543945
1720787094707686700,6.318686767578125,0.07790660858154297,0.061068058013916016,-0.1531963348388672
1720787094717700600,6.32870068359375,0.0611572265625,0.16207551956176758,-0.08114862442016602
1720787094727714600,6.338714599609375,-0.04449319839477539,0.33693385124206543,-0.207763671875
1720787094737728300,6.348728271484375,0.026010513305664062,0.34378576278686523,-0.15774917602539062
1720787094747742200,6.3587421875,0.043424129486083984,0.39702725410461426,-0.20265913009643555
1720787094757756000,6.368755859375,0.0512852668762207,0.4347797632217407,-0.16158628463745117
1720787094767769900,6.378769775390625,-0.03954029083251953,0.5094515085220337,-0.29020023345947266
1720787094777783800,6.38878369140625,0.10053348541259766,0.54958176612854,-0.3149886131286621
1720787094787797500,6.398797607421875,0.003119945526123047,0.5323934555053711,-0.38585472106933594
1720787094797811500,6.4088115234375,0.07089424133300781,0.5955137014389038,-0.37732791900634766
1720787094807825200,6.4188251953125,0.04485034942626953,0.6579087972640991,-0.32920360565185547
1720787094817839000,6.428839111328125,0.06951284408569336,0.7474161386489868,-0.44895124435424805
1720787094827853000,6.43885302734375,0.02540111541748047,0.679914116859436,-0.3089909553527832
1720787094837866800,6.44886669921875,0.0004715919494628906,0.6372706890106201,-0.2662372589111328
1720787094847880700,6.458880615234375,0.047304630279541016,0.732410192489624,-0.15275096893310547
1720787094857894700,6.468894775390625,-0.03035116195678711,0.7740167379379272,-0.26899051666259766
1720787094867908400,6.478908447265625,-0.03468656539916992,0.6789231300354004,-0.11778640747070312
1720787094877922300,6.48892236328125,-0.048913002014160156,0.619239330291748,-0.1351146697998047
1720787094887936000,6.49893603515625,0.06445741653442383,0.6555707454681396,-0.025050640106201172
1720787094897950000,6.508949951171875,-0.0461430549621582,0.6303162574768066,-0.16755914688110352
1720787094907964000,6.5189638671875,0.03357744216918945,0.46895086765289307,-0.07683753967285156
1720787094917977600,6.5289775390625,-0.0016522407531738281,0.3903235197067261,-0.05907154083251953
1720787094927991600,6.538991455078125,0.01025247573852539,0.4543975591659546,-0.014165401458740234
1720787094938005200,6.549005126953125,-0.07236242294311523,0.5461392402648926,-0.18233919143676758
1720787094948019200,6.559019287109375,0.11929512023925781,0.47634756565093994,-0.11272144317626953
1720787094958033000,6.569032958984375,0.0632772445678711,0.31841301918029785,-0.06719303131103516
1720787094968046800,6.579046875,0.10218429565429688,0.2535518407821655,-0.11263370513916016
1720787094978060500,6.589060546875,0.0894021987915039,0.32235825061798096,-0.24597501754760742
1720787094988074500,6.599074462890625,0.21222877502441406,0.3236895799636841,-0.21853065490722656
1720787094998088200,6.609088134765625,0.056003570556640625,0.1977764368057251,-0.1713261604309082
1720787095008102000,6.619101806640625,0.04262351989746094,0.11182308197021484,-0.16894865036010742
1720787095018115800,6.62911572265625,0.06328582763671875,0.1925104856491089,-0.1513967514038086
1720787095028129500,6.639129638671875,0.06249809265136719,0.2853739261627197,-0.21253347396850586
1720787095038143500,6.6491435546875,0.03417348861694336,0.16906845569610596,-0.16785049438476562
1720787095048157200,6.6591572265625,0.0478973388671875,0.12993717193603516,-0.16274166107177734
1720787095058171000,6.6691708984375,0.10497760772705078,0.19513249397277832,-0.005269050598144531
1720787095068184800,6.679184814453125,0.061374664306640625,0.3059488534927368,-0.13880586624145508
1720787095078198500,6.689198486328125,0.1317272186279297,0.23077714443206787,-0.12368535995483398
1720787095088212500,6.69921240234375,0.12992334365844727,0.2742602825164795,-0.05260610580444336
1720787095098226200,6.70922607421875,0.10512208938598633,0.33111488819122314,0.06046104431152344
1720787095108240100,6.719240234375,0.0011963844299316406,0.46261799335479736,-0.17155981063842773
1720787095118253800,6.72925390625,0.11006832122802734,0.5063613653182983,-0.2076263427734375
1720787095128267500,6.739267578125,0.02020883560180664,0.5018962621688843,-0.12850284576416016
1720787095138281500,6.749281494140625,-0.05848360061645508,0.5216184854507446,-0.09766769409179688
1720787095148295200,6.759295166015625,-0.07793664932250977,0.5421621799468994,-0.17410659790039062
1720787095158309000,6.76930908203125,0.0425567626953125,0.5713298320770264,-0.23275518417358398
1720787095168322800,6.77932275390625,-0.04476594924926758,0.4774661064147949,-0.09508371353149414
1720787095178336500,6.78933642578125,-0.06983709335327148,0.4421788454055786,-0.09245681762695312
1720787095188350500,6.7993505859375,0.029044628143310547,0.47386062145233154,0.005719184875488281
1720787095198364200,6.8093642578125,-0.006302833557128906,0.5846520662307739,-0.14352989196777344
1720787095208378000,6.819378173828125,0.0019845962524414062,0.45766985416412354,0.031152725219726562
1720787095218391800,6.829391845703125,-0.03750276565551758,0.38973283767700195,0.03711223602294922
1720787095228405800,6.83940576171875,0.008389472961425781,0.4033890962600708,0.108673095703125
1720787095238419500,6.84941943359375,0.021946430206298828,0.4596128463745117,0.08202648162841797
1720787095248433200,6.85943310546875,0.10489845275878906,0.44369518756866455,-0.03502082824707031
1720787095258447000,6.869447021484375,0.036925315856933594,0.34815192222595215,-0.035340309143066406
1720787095268460800,6.879460693359375,0.0402684211730957,0.3062441349029541,0.005950927734375
1720787095278474800,6.889474853515625,-0.011950969696044922,0.32142210006713867,0.057544708251953125
1720787095288488400,6.899488525390625,-0.0492396354675293,0.45395171642303467,-0.05665254592895508
1720787095298502400,6.90950244140625,-0.024380207061767578,0.40485262870788574,0.12370491027832031
1720787095308516000,6.91951611328125,-0.10781240463256836,0.4183773994445801,0.05186748504638672
1720787095318530000,6.929530029296875,0.012495040893554688,0.43190276622772217,0.05147504806518555
1720787095328544000,6.9395439453125,0.09281158447265625,0.48250389099121094,-0.019871234893798828
1720787095338557700,6.9495576171875,0.011464595794677734,0.5034672021865845,-0.1936941146850586
1720787095348571600,6.959571533203125,0.006844043731689453,0.36365199089050293,-0.13369417190551758
1720787095358585600,6.969585693359375,-0.013411998748779297,0.3670254945755005,-0.2464466094970703
1720787095368599300,6.979599365234375,-0.03780031204223633,0.38442254066467285,-0.10725641250610352
1720787095378613200,6.98961328125,-0.06082963943481445,0.41119909286499023,0.06861639022827148
1720787095388627000,6.999626953125,-0.19102716445922852,0.47117865085601807,-0.007190227508544922
1720787095398641000,7.009640869140625,-0.0835866928100586,0.5027027130126953,0.02620553970336914
1720787095408654800,7.01965478515625,-0.06264162063598633,0.5575368404388428,-0.03984689712524414
1720787095418668500,7.02966845703125,-0.040737152099609375,0.3905683755874634,0.0571136474609375
1720787095428682500,7.0396826171875,0.018509387969970703,0.28322577476501465,-0.05491161346435547
1720787095438696200,7.0496962890625,-0.036950111389160156,0.30428755283355713,-0.29302024841308594
1720787095448710100,7.059710205078125,0.016347885131835938,0.1308070421218872,-0.16480636596679688
1720787095458724000,7.06972412109375,-0.11519479751586914,0.029681921005249023,-0.19409561157226562
1720787095468737800,7.07973779296875,-0.140625,-0.04718136787414551,-0.06668424606323242
1720787095478751700,7.089751708984375,-0.19809722900390625,0.055722594261169434,-0.025263309478759766
1720787095488765700,7.099765625,-0.24915790557861328,0.23659992218017578,-0.14349031448364258
1720787095498779400,7.109779296875,-0.10681486129760742,0.2447366714477539,-0.06743526458740234
1720787095508793300,7.11979345703125,-0.1408066749572754,0.2202003002166748,-0.17603206634521484
1720787095518807000,7.12980712890625,-0.06707191467285156,0.04606306552886963,-0.15290594100952148
1720787095528821000,7.139821044921875,-0.09299468994140625,0.12071788311004639,-0.2663726806640625
1720787095538835000,7.1498349609375,-0.05009746551513672,0.2510472536087036,-0.1578531265258789
1720787095548848600,7.1598486328125,-0.05527305603027344,0.20026719570159912,-0.12691450119018555
1720787095558862600,7.169862548828125,-0.09617090225219727,0.13601791858673096,-0.23035192489624023
1720787095568876500,7.17987646484375,-0.07227516174316406,0.02913379669189453,-0.3201565742492676
1720787095578890200,7.18989013671875,-0.11455678939819336,0.02202439308166504,-0.2854189872741699
1720787095588904200,7.199904296875,-0.0853872299194336,-0.005552053451538086,-0.1846170425415039
1720787095598918000,7.20991796875,-0.2707095146179199,-0.1386502981185913,-0.3466982841491699
1720787095608931800,7.219931884765625,-0.07147407531738281,-0.19086837768554688,-0.1336226463317871
1720787095618945800,7.22994580078125,-0.0550227165222168,0.12447011470794678,-0.2872319221496582
1720787095628959500,7.23995947265625,0.14148664474487305,0.24723613262176514,-0.06935453414916992
1720787095638973400,7.249973388671875,0.11515283584594727,0.3411473035812378,-0.17334318161010742
1720787095648987100,7.259987060546875,0.0851755142211914,0.29834115505218506,-0.3647308349609375
1720787095659001000,7.2700009765625,0.21412038803100586,0.172163724899292,-0.2682833671569824
1720787095669015000,7.28001513671875,0.10252714157104492,0.1715601682662964,-0.12402629852294922
1720787095679028700,7.29002880859375,0.0817728042602539,0.0869131088256836,-0.016154766082763672
1720787095689042700,7.300042724609375,0.0637822151184082,0.05174565315246582,0.045867919921875
1720787095699056600,7.310056640625,0.09276437759399414,0.11059951782226562,-0.13379144668579102
1720787095709070300,7.3200703125,0.011706829071044922,0.17644596099853516,-0.39649534225463867
1720787095719084300,7.330084228515625,0.05100107192993164,0.13223516941070557,-0.309053897857666
1720787095729098000,7.340097900390625,-0.014263153076171875,0.14505541324615479,-0.4448127746582031
1720787095739112000,7.35011181640625,0.006676197052001953,-0.030918598175048828,-0.3658747673034668
1720787095749126000,7.3601259765625,-0.11495780944824219,0.09183037281036377,-0.5859999656677246
1720787095759139600,7.3701396484375,-0.008713245391845703,0.07422471046447754,-0.5055680274963379
1720787095769153500,7.380153564453125,-0.02731943130493164,0.06890511512756348,-0.42667245864868164
1720787095779167200,7.390167236328125,-0.0059337615966796875,0.11983072757720947,-0.25681543350219727
1720787095789181200,7.40018115234375,0.0000782012939453125,0.32985758781433105,-0.28412866592407227
1720787095799195100,7.410195068359375,0.05348014831542969,0.3583587408065796,-0.07527685165405273
1720787095809208800,7.420208740234375,0.0052356719970703125,0.45775485038757324,-0.2683396339416504
1720787095819222800,7.430222900390625,0.11235809326171875,0.4999326467514038,-0.3325166702270508
1720787095829236700,7.44023681640625,0.15427541732788086,0.5372012853622437,-0.41755199432373047
1720787095839250400,7.45025048828125,0.07219314575195312,0.5038508176803589,-0.46477699279785156
1720787095849264400,7.460264404296875,0.01382303237915039,0.31529831886291504,-0.31018733978271484
1720787095859278000,7.470278076171875,-0.07411718368530273,0.14403903484344482,0.024071216583251953
1720787095869292000,7.4802919921875,-0.07176780700683594,0.32796740531921387,-0.03419971466064453
1720787095879306000,7.490305908203125,-0.057177066802978516,0.4707986116409302,-0.016964435577392578
1720787095889319700,7.500319580078125,-0.03790426254272461,0.46942687034606934,0.033347129821777344
1720787095899333600,7.510333740234375,0.03539419174194336,0.336966872215271,0.26492786407470703
1720787095909347600,7.52034765625,0.11666727066040039,0.17951762676239014,0.3459897041320801
1720787095919361300,7.530361328125,0.1961221694946289,0.13500213623046875,0.44339656829833984
1720787095929375200,7.540375244140625,0.1623668670654297,0.21916723251342773,0.1574397087097168
1720787095939389000,7.550388916015625,0.1704559326171875,0.1898646354675293,0.11006450653076172
1720787095949403000,7.56040283203125,0.10705709457397461,0.13812565803527832,-0.04594850540161133
1720787095959416800,7.570416748046875,0.07749509811401367,0.15320158004760742,-0.24673223495483398
1720787095969430500,7.580430419921875,-0.027008056640625,0.08312046527862549,-0.3547077178955078
1720787095979444500,7.590444580078125,-0.01133584976196289,0.052201032638549805,-0.24339056015014648
1720787095989458200,7.600458251953125,-0.08034849166870117,0.0688014030456543,-0.34540891647338867
1720787095999472000,7.61047216796875,-0.09162378311157227,0.057181715965270996,-0.2525901794433594
1720787096009486000,7.620486083984375,-0.10982370376586914,0.03185844421386719,-0.2446150779724121
1720787096019499800,7.630499755859375,-0.11919450759887695,0.09238433837890625,-0.20041894912719727
1720787096029513700,7.640513671875,-0.1382460594177246,0.10107457637786865,-0.08709049224853516
1720787096039527700,7.650527587890625,-0.14779996871948242,0.068320631980896,-0.07047510147094727
1720787096049541400,7.660541259765625,-0.11535215377807617,0.23850417137145996,-0.26210927963256836
1720787096059555300,7.670555419921875,0.06066465377807617,0.3397374153137207,0.04308509826660156
1720787096069569000,7.680569091796875,-0.08667278289794922,0.33078908920288086,-0.10441160202026367
1720787096079583000,7.6905830078125,0.017855167388916016,0.19017910957336426,-0.00957345962524414
1720787096089597000,7.700596923828125,-0.07343053817749023,0.09904348850250244,0.17670059204101562
1720787096099610600,7.710610595703125,-0.1824049949645996,0.04375326633453369,0.42970943450927734
1720787096109624600,7.72062451171875,-0.29273414611816406,0.2355499267578125,0.23737049102783203
1720787096119638300,7.73063818359375,-0.15732622146606445,0.3207433223724365,0.15982294082641602
1720787096129652200,7.74065234375,-0.2403564453125,0.3719637393951416,-0.16082477569580078
1720787096139666200,7.750666259765625,-0.011918067932128906,0.3704187870025635,-0.41126394271850586
1720787096149679900,7.760679931640625,0.014996528625488281,0.1789788007736206,-0.40255117416381836
1720787096159693800,7.77069384765625,-0.16192197799682617,-0.09995698928833008,-0.26754045486450195
1720787096169707800,7.780707763671875,-0.23017168045043945,-0.09637486934661865,0.009301185607910156
1720787096179721500,7.790721435546875,-0.21288728713989258,0.11834871768951416,0.09747076034545898
1720787096189735400,7.8007353515625,-0.38674211502075195,0.17917418479919434,0.1258382797241211
1720787096199749000,7.8107490234375,-0.25342416763305664,0.2019662857055664,-0.028015613555908203
1720787096209763000,7.82076318359375,-0.0778965950012207,0.29425275325775146,-0.3804817199707031
1720787096219777000,7.830777099609375,-0.1179819107055664,0.12944245338439941,-0.5203886032104492
1720787096229790700,7.840790771484375,-0.07209253311157227,-0.15089058876037598,-0.26614999771118164
1720787096239804700,7.8508046875,-0.18779802322387695,-0.08362245559692383,-0.46901941299438477
1720787096249818600,7.860818603515625,-0.09606122970581055,0.02429652214050293,-0.014363765716552734
1720787096259832300,7.870832275390625,-0.25095510482788086,0.1304786205291748,-0.015019893646240234
1720787096269846300,7.88084619140625,-0.24850893020629883,0.2028636932373047,-0.12990188598632812
1720787096279860000,7.89085986328125,-0.15327167510986328,0.20905137062072754,-0.061202049255371094
1720787096289874000,7.9008740234375,-0.107147216796875,0.09269857406616211,0.034060001373291016
1720787096299887900,7.910887939453125,-0.2158803939819336,0.26077330112457275,-0.05415010452270508
1720787096309901600,7.920901611328125,-0.07998847961425781,0.35519659519195557,-0.0023517608642578125
1720787096319915500,7.93091552734375,-0.1930532455444336,0.40622878074645996,0.028810977935791016
1720787096329929200,7.94092919921875,-0.12181282043457031,0.44805097579956055,0.11870670318603516
1720787096339943200,7.950943115234375,-0.17948389053344727,0.3632683753967285,0.19666624069213867
1720787096349957000,7.96095703125,-0.317293643951416,0.2948751449584961,0.20582056045532227
1720787096359970800,7.970970703125,-0.1786332130432129,0.20446336269378662,0.5127406120300293
1720787096369984800,7.98098486328125,-0.23986577987670898,0.24201667308807373,0.3298501968383789
1720787096379998700,7.990998779296875,0.045903682708740234,0.3030966520309448,0.39757204055786133
1720787096390012400,8.001012451171874,0.26939916610717773,0.31178414821624756,-0.09315872192382812
1720787096400026400,8.0110263671875,0.6208062171936035,0.12240028381347656,-0.39704084396362305
1720787096410040000,8.0210400390625,0.7158718109130859,-0.12576162815093994,-0.5648374557495117
1720787096420054000,8.031053955078125,0.7174382209777832,-0.41826295852661133,-0.6761703491210938
1720787096430068000,8.04106787109375,0.4941563606262207,-0.5188524723052979,-0.6704878807067871
1720787096440081700,8.05108154296875,0.39986085891723633,-0.3984881639480591,-0.5538763999938965
1720787096450095600,8.061095703125,0.07451868057250977,-0.19129538536071777,-0.5199141502380371
1720787096460109300,8.071109375,0.025823116302490234,-0.0014827251434326172,-0.41860532760620117
1720787096470123000,8.081123046875,-0.1398482322692871,0.0917060375213623,-0.30506324768066406
1720787096480137000,8.091136962890625,-0.3594050407409668,0.14664268493652344,-0.35871219635009766
1720787096490150700,8.101150634765625,-0.31965208053588867,0.03748047351837158,0.07030582427978516
1720787096500164600,8.11116455078125,-0.48682641983032227,0.06799471378326416,-0.0673975944519043
1720787096510178300,8.12117822265625,-0.1396627426147461,0.07098066806793213,0.3093581199645996
1720787096520192300,8.131192138671874,-0.12084770202636719,0.013818740844726562,0.33426761627197266
1720787096530206000,8.1412060546875,0.10080814361572266,-0.02703416347503662,0.39690208435058594
1720787096540219600,8.1512197265625,0.21578693389892578,-0.09578144550323486,0.49714040756225586
1720787096550233600,8.161233642578125,0.21981382369995117,-0.19783341884613037,0.46326446533203125
1720787096560247300,8.171247314453124,0.1689915657043457,-0.2149043083190918,0.5316314697265625
1720787096570261200,8.18126123046875,0.23407363891601562,-0.04501008987426758,0.2611832618713379
1720787096580275000,8.19127490234375,0.3100852966308594,0.023251891136169434,0.07877779006958008
1720787096590288600,8.20128857421875,0.4134502410888672,0.08081328868865967,-0.5869359970092773
1720787096600302600,8.211302490234376,0.4186868667602539,-0.08452558517456055,-0.9569735527038574
1720787096610316300,8.22131640625,0.2648177146911621,-0.23788130283355713,-0.848121166229248
1720787096620330200,8.231330322265626,0.12406349182128906,-0.3650416135787964,-0.4098167419433594
1720787096630344000,8.241343994140625,-0.24959707260131836,-0.22053349018096924,-0.12314319610595703
1720787096640358000,8.25135791015625,-0.2773761749267578,0.07297563552856445,0.1403188705444336
1720787096650371600,8.26137158203125,-0.45767974853515625,0.16038846969604492,0.17616796493530273
1720787096660385300,8.27138525390625,-0.1940479278564453,0.20485961437225342,0.1803431510925293
1720787096670399200,8.281399169921874,-0.1039590835571289,0.135939359664917,0.19433832168579102
1720787096680413000,8.291412841796875,-0.07211971282958984,-0.006602764129638672,0.14168262481689453
1720787096690427000,8.301427001953124,0.009658336639404297,-0.30207955837249756,0.17757129669189453
1720787096700440600,8.311440673828125,-0.026076793670654297,-0.44644057750701904,0.30916738510131836
1720787096710454300,8.321454345703126,0.045464515686035156,-0.2778444290161133,0.33751535415649414
1720787096720468200,8.33146826171875,0.12076044082641602,-0.07921028137207031,0.33745527267456055
1720787096730482000,8.34148193359375,0.059841156005859375,-0.025380253791809082,0.027204513549804688
1720787096740496000,8.351495849609375,0.03681659698486328,-0.2547808885574341,0.07429742813110352
1720787096750509600,8.361509521484376,-0.03797101974487305,-0.4183671474456787,0.18120622634887695
1720787096760523500,8.3715234375,-0.07340097427368164,-0.4335898160934448,0.1550755500793457
1720787096770537500,8.381537353515625,-0.10290336608886719,-0.5438627004623413,0.34249114990234375
1720787096780551200,8.39155126953125,-0.1200265884399414,-0.36614060401916504,0.2571134567260742
1720787096790565000,8.401565185546875,-0.08350706100463867,-0.18825101852416992,0.16147565841674805
1720787096800578800,8.411578857421874,-0.020866870880126953,-0.022680997848510742,0.19403505325317383
1720787096810592800,8.4215927734375,0.030355453491210938,0.15434682369232178,-0.19924688339233398
1720787096820606700,8.431606689453124,0.15497303009033203,0.16325640678405762,-0.36597442626953125
1720787096830620400,8.441620361328125,0.1365065574645996,0.07728731632232666,-0.40218639373779297
1720787096840634400,8.45163427734375,0.04452085494995117,-0.04485678672790527,-0.27096080780029297
1720787096850648000,8.46164794921875,-0.03555727005004883,-0.0801992416381836,-0.1454458236694336
1720787096860662000,8.471662109375,-0.07368850708007812,-0.03501403331756592,0.2455301284790039
1720787096870676000,8.481676025390625,-0.18021297454833984,0.1363086700439453,0.34000635147094727
1720787096880689700,8.491689697265626,-0.16901445388793945,0.22890138626098633,0.39766740798950195
1720787096890703600,8.50170361328125,-0.16633272171020508,0.16446459293365479,0.5263581275939941
1720787096900717600,8.511717529296876,-0.15506744384765625,0.07308733463287354,0.49630260467529297
1720787096910731300,8.521731201171875,-0.1626434326171875,-0.09586656093597412,0.45252084732055664
1720787096920745200,8.5317451171875,-0.13354158401489258,-0.18072938919067383,0.25218868255615234
1720787096930759000,8.541759033203125,-0.049828529357910156,-0.27238929271698,0.10954141616821289
1720787096940772900,8.55177294921875,-0.09571456909179688,-0.47419440746307373,0.15602731704711914
1720787096950786800,8.561786865234374,-0.1791696548461914,-0.7693773508071899,0.34160470962524414
1720787096960800500,8.571800537109375,-0.28531885147094727,-0.9868429899215698,0.5369033813476562
1720787096970814500,8.581814453125,-0.33524608612060547,-1.1011701822280884,0.7167243957519531
1720787096980828400,8.591828369140625,-0.3188481330871582,-1.1477532386779785,0.9400644302368164
1720787096990842000,8.601842041015624,-0.2503929138183594,-1.1841661930084229,1.0566186904907227
1720787097000856000,8.61185595703125,-0.020635128021240234,-1.2712947130203247,1.10786771774292
1720787097010869800,8.621869873046874,0.18426895141601562,-1.3038500547409058,0.8170104026794434
1720787097020883700,8.6318837890625,0.42493200302124023,-1.3875309228897095,0.3425016403198242
1720787097030897700,8.641897705078126,0.6226420402526855,-1.761860966682434,-0.04905271530151367
1720787097040911400,8.651911376953125,0.6146707534790039,-1.9164721965789795,-0.29084205627441406
1720787097050925300,8.66192529296875,0.38465356826782227,-1.9073033332824707,-0.43799448013305664
1720787097060939000,8.67193896484375,0.1903858184814453,-1.5103034973144531,-0.24793243408203125
1720787097070953000,8.681952880859376,0.007704734802246094,-1.331451177597046,0.1401352882385254
1720787097080967000,8.691966796875,-0.2018589973449707,-1.0398011207580566,0.49106550216674805
1720787097090980600,8.701980712890625,-0.3603811264038086,-0.7541673183441162,0.5816969871520996
1720787097100994600,8.71199462890625,-0.4001502990722656,-0.36562275886535645,0.6568522453308105
1720787097111008500,8.722008544921875,-0.2087264060974121,-0.10706758499145508,0.8150420188903809
1720787097121022200,8.732022216796874,0.07320642471313477,0.11346447467803955,0.6572971343994141
1720787097131036200,8.7420361328125,0.4676074981689453,0.03462529182434082,0.4495410919189453
1720787097141049900,8.7520498046875,0.8536367416381836,-0.28095245361328125,0.13337087631225586
1720787097151063800,8.762063720703125,1.1542272567749023,-0.6906979084014893,-0.27208709716796875
1720787097161077800,8.772077880859374,1.288783073425293,-0.9959583282470703,-0.5215959548950195
1720787097171091500,8.782091552734375,1.208238124847412,-1.172999382019043,-0.5067815780639648
1720787097181105400,8.79210546875,0.9416308403015137,-1.3034389019012451,-0.40053606033325195
1720787097191119000,8.802119140625,0.6904306411743164,-1.2211778163909912,-0.16895008087158203
1720787097201133000,8.812133056640626,0.26445579528808594,-1.0653278827667236,0.0789332389831543
1720787097211147000,8.82214697265625,-0.09307384490966797,-1.0690560340881348,0.42280149459838867
1720787097221160700,8.83216064453125,-0.40164756774902344,-1.0064244270324707,0.5894637107849121
1720787097231174700,8.842174560546875,-0.5280666351318359,-0.8196043968200684,0.8318610191345215
1720787097241188600,8.852188720703126,-0.49075794219970703,-0.5887832641601562,0.9786543846130371
1720787097251202300,8.862202392578125,-0.3419475555419922,-0.32255983352661133,0.7773232460021973
1720787097261216300,8.87221630859375,-0.15519428253173828,-0.14073610305786133,0.5136938095092773
1720787097271230000,8.88222998046875,0.11386680603027344,-0.0913703441619873,0.47649240493774414
1720787097281244000,8.892243896484375,0.20189619064331055,-0.15629339218139648,0.44060373306274414
1720787097291257900,8.9022578125,0.2759528160095215,-0.2781991958618164,0.4340362548828125
1720787097301271600,8.912271484375,0.29782819747924805,-0.29057931900024414,0.2897205352783203
1720787097311285500,8.922285400390624,0.39444446563720703,-0.36592864990234375,0.18232393264770508
1720787097321299500,8.932299560546875,0.41376352310180664,-0.40903210639953613,-0.0015358924865722656
1720787097331313200,8.942313232421874,0.3453850746154785,-0.41573548316955566,-0.23876571655273438
1720787097341327000,8.9523271484375,0.17507696151733398,-0.49216175079345703,-0.3331294059753418
1720787097351340800,8.9623408203125,-0.06321096420288086,-0.42299842834472656,-0.41376495361328125
1720787097361354800,8.972354736328125,-0.2219085693359375,-0.21309280395507812,-0.32393884658813477
1720787097371368700,8.98236865234375,-0.41916322708129883,-0.01907968521118164,-0.1536116600036621
1720787097381382400,8.99238232421875,-0.5175704956054688,0.1895369291305542,-0.1104741096496582
1720787097391396400,9.002396240234376,-0.47973108291625977,0.3367326259613037,-0.1567678451538086
1720787097401410000,9.01241015625,-0.3715033531188965,0.4801729917526245,-0.19517898559570312
1720787097411424000,9.022424072265625,-0.27560901641845703,0.45265281200408936,-0.29410648345947266
1720787097421438000,9.03243798828125,-0.12294816970825195,0.20679199695587158,-0.17378616333007812
1720787097431451600,9.04245166015625,-0.1893925666809082,-0.08995413780212402,0.08573246002197266
1720787097441465600,9.052465576171874,-0.13567352294921875,-0.34674108028411865,0.4834733009338379
1720787097451479600,9.0624794921875,-0.05289268493652344,-0.41120874881744385,0.9816031455993652
1720787097461493200,9.0724931640625,-0.0924673080444336,-0.09359538555145264,1.1655621528625488
1720787097471507200,9.082507080078125,0.18829059600830078,0.09787988662719727,1.282526969909668
1720787097481521000,9.09252099609375,0.24486875534057617,0.31604111194610596,0.880012035369873
1720787097491534800,9.102534912109375,0.33077383041381836,0.475131630897522,0.1159515380859375
1720787097501548800,9.112548828125,0.3984870910644531,0.6005070209503174,-0.3492598533630371
1720787097511562500,9.1225625,0.289339542388916,0.5805454254150391,-0.8051390647888184
1720787097521576400,9.132576416015626,0.18119335174560547,-0.017894387245178223,-0.8596005439758301
1720787097531590100,9.142590087890625,-0.16791534423828125,-0.561881422996521,-0.5686078071594238
1720787097541604000,9.15260400390625,-0.3562297821044922,-0.6905847787857056,-0.03302288055419922
1720787097551618000,9.1626181640625,-0.48016929626464844,-0.6741815805435181,0.675473690032959
1720787097561631700,9.1726318359375,-0.4288368225097656,-0.6324580907821655,1.2901101112365723
1720787097571645700,9.182645751953125,-0.15383100509643555,-0.5909358263015747,1.4106831550598145
1720787097581659600,9.19265966796875,0.2223663330078125,-0.6483303308486938,1.289891242980957
1720787097591673300,9.20267333984375,0.49349260330200195,-0.6528048515319824,0.6073822975158691
1720787097601687300,9.212687255859375,0.8850164413452148,-0.6097915172576904,-0.30542516708374023
1720787097611701000,9.222700927734374,1.0086383819580078,-0.4556584358215332,-0.9183979034423828
1720787097621715000,9.23271484375,0.7972159385681152,-0.32084858417510986,-1.4399423599243164
1720787097631729000,9.24272900390625,0.5410051345825195,-0.3073573112487793,-1.7296533584594727
1720787097641742600,9.25274267578125,0.15050840377807617,-0.10181546211242676,-1.5423264503479004
1720787097651756500,9.262756591796874,-0.3213920593261719,-0.07971692085266113,-0.6293253898620605
1720787097661770500,9.2727705078125,-0.7992157936096191,-0.010752677917480469,0.4141368865966797
1720787097671784200,9.2827841796875,-0.9434256553649902,0.15307438373565674,0.8655996322631836
1720787097681798100,9.292798095703125,-0.5986356735229492,0.2380443811416626,1.1171660423278809
1720787097691811800,9.302811767578126,-0.3179659843444824,0.3921329975128174,0.8561792373657227
1720787097701825800,9.31282568359375,0.08590173721313477,0.5018608570098877,0.2509937286376953
1720787097711839700,9.32283984375,0.3663296699523926,0.5359904766082764,-0.21303081512451172
1720787097721853400,9.332853515625,0.4557628631591797,0.46318066120147705,-0.7338705062866211
1720787097731867400,9.342867431640625,0.45314502716064453,0.09496641159057617,-0.8739585876464844
1720787097741881000,9.352881103515625,0.12221860885620117,-0.037856459617614746,-0.6265382766723633
1720787097751895000,9.36289501953125,-0.24689292907714844,-0.20556461811065674,0.20215654373168945
1720787097761909000,9.372908935546874,-0.43659305572509766,-0.2561894655227661,1.0642399787902832
1720787097771922700,9.382922607421875,-0.5061345100402832,-0.1332920789718628,1.408559799194336
1720787097781936600,9.3929365234375,-0.22546863555908203,-0.07942116260528564,1.4767136573791504
1720787097791950600,9.40295068359375,0.0007905960083007812,-0.24930286407470703,1.2673707008361816
1720787097801964300,9.41296435546875,0.3975687026977539,-0.4897456169128418,0.7664976119995117
1720787097811978200,9.422978271484375,0.8414850234985352,-0.6751611232757568,0.15755414962768555
1720787097821992000,9.432991943359376,0.9256601333618164,-0.7082668542861938,-0.5747575759887695
1720787097832006000,9.443005859375,0.8198204040527344,-0.8781344890594482,-0.9848155975341797
1720787097842019800,9.453019775390626,0.36800193786621094,-0.7348372936248779,-1.339738368988037
1720787097852033500,9.463033447265625,0.08628320693969727,-0.5716555118560791,-1.0279417037963867
1720787097862047500,9.473047607421876,-0.16614961624145508,-0.3885786533355713,-0.1710348129272461
1720787097872061200,9.483061279296875,-0.4058566093444824,0.02445399761199951,0.32397031784057617
1720787097882075100,9.4930751953125,-0.23627948760986328,0.20295977592468262,0.8068537712097168
1720787097892088800,9.5030888671875,-0.08608388900756836,0.04207265377044678,0.7779755592346191
1720787097902102500,9.5131025390625,0.2790851593017578,-0.31091809272766113,0.3101935386657715
1720787097912116500,9.523116455078124,0.5961112976074219,-0.4930918216705322,-0.09783792495727539
1720787097922130200,9.533130126953125,0.6871013641357422,-0.4711916446685791,-0.41904258728027344
1720787097932144000,9.54314404296875,0.6044049263000488,-0.558506965637207,-0.46832895278930664
1720787097942157800,9.55315771484375,0.3757290840148926,-0.568695068359375,-0.5920138359069824
1720787097952171500,9.563171630859374,0.17543649673461914,-0.4424464702606201,-0.3090324401855469
1720787097962185500,9.573185546875,-0.025478839874267578,-0.26657629013061523,0.1934828758239746
1720787097972199200,9.58319921875,-0.28542327880859375,0.025434255599975586,0.459597110748291
1720787097982213000,9.593213134765625,-0.2483992576599121,0.3471578359603882,0.6779928207397461
1720787097992226800,9.603226806640626,-0.30472373962402344,0.6423324346542358,0.6400742530822754
1720787098002240500,9.613240478515625,-0.1925978660583496,0.7424899339675903,0.24938011169433594
1720787098012254500,9.62325439453125,0.034169673919677734,0.6643251180648804,0.07917118072509766
1720787098022268200,9.63326806640625,0.11288642883300781,0.3262244462966919,-0.19651031494140625
1720787098032282000,9.6432822265625,0.046774864196777344,-0.1832125186920166,-0.41233205795288086
1720787098042295800,9.6532958984375,-0.3053865432739258,-0.5478320121765137,-0.4901270866394043
1720787098052309800,9.663309814453125,-0.5550312995910645,-0.8312133550643921,-0.09925651550292969
1720787098062323500,9.673323486328124,-0.9157238006591797,-0.9592161178588867,0.32666015625
1720787098072337200,9.683337158203125,-1.2481036186218262,-0.6920409202575684,0.5881824493408203
1720787098082351000,9.69335107421875,-1.260411262512207,-0.19054532051086426,0.8634195327758789
1720787098092364800,9.70336474609375,-1.01725435256958,0.2965555191040039,0.7587337493896484
1720787098102378800,9.713378662109376,-0.4263434410095215,0.5403733253479004,0.23417282104492188
1720787098112392400,9.723392333984375,0.08673763275146484,0.4131585359573364,-0.4220118522644043
1720787098122406100,9.73340625,0.41159963607788086,0.11097490787506104,-1.0918707847595215
1720787098132420000,9.743420166015625,0.5001101493835449,0.07391583919525146,-1.857450008392334
1720787098142433800,9.753433837890626,0.45337629318237305,-0.15385043621063232,-1.9629955291748047
1720787098152447700,9.76344775390625,-0.006331443786621094,-0.45730817317962646,-1.7789745330810547
1720787098162461400,9.77346142578125,-0.40331506729125977,-0.4882000684738159,-1.227872371673584
1720787098172475400,9.783475341796875,-0.7605233192443848,-0.3944138288497925,-0.3861708641052246
1720787098182489000,9.793489013671875,-0.9830160140991211,-0.10000252723693848,0.1331801414489746
1720787098192503000,9.8035029296875,-0.8607854843139648,0.2701406478881836,0.5317387580871582
1720787098202516700,9.813516845703125,-0.5851016044616699,0.405759334564209,0.7194552421569824
1720787098212530700,9.82353076171875,-0.1701188087463379,0.00884389877319336,0.8926568031311035
1720787098222544600,9.833544677734375,-0.01756000518798828,-0.1608412265777588,0.549954891204834
1720787098232558300,9.843558349609374,0.22031450271606445,-0.25270509719848633,0.47963571548461914
1720787098242572300,9.853572265625,0.3380155563354492,-0.33864712715148926,0.5094747543334961
1720787098252586000,9.8635859375,0.3821425437927246,-0.38552892208099365,0.4514479637145996
1720787098262600000,9.873599853515625,0.6051616668701172,-0.5937330722808838,0.6729626655578613
1720787098272614000,9.88361376953125,0.694359302520752,-0.6344046592712402,0.5029821395874023
1720787098282627600,9.893627685546875,0.8060307502746582,-0.5474214553833008,0.33289289474487305
1720787098292641500,9.9036416015625,0.7120327949523926,-0.423866868019104,0.08249855041503906
1720787098302655500,9.913655517578125,0.6711826324462891,-0.615207314491272,-0.009439945220947266
1720787098312669200,9.923669189453125,0.41461658477783203,-0.6660761833190918,-0.2696547508239746
1720787098322683100,9.93368310546875,0.25595903396606445,-0.7011014223098755,-0.12636518478393555
1720787098332696800,9.94369677734375,-0.09617900848388672,-0.5230293273925781,0.23824787139892578
1720787098342710800,9.953710693359374,-0.22403240203857422,-0.18625473976135254,0.39512109756469727
1720787098352724700,9.963724853515625,-0.2596316337585449,-0.05150949954986572,0.48165035247802734
1720787098362738400,9.973738525390624,-0.2335500717163086,0.10026586055755615,0.1807551383972168
1720787098372752400,9.98375244140625,-0.10072565078735352,0.27844035625457764,-0.3085923194885254
1720787098382766000,9.99376611328125,0.07371950149536133,0.15380072593688965,-0.6974802017211914
1720787098392780000,10.003780029296875,0.2447967529296875,-0.07472455501556396,-0.8737597465515137
1720787098402794000,10.0137939453125,0.22971248626708984,-0.15826714038848877,-1.1308016777038574
1720787098412807700,10.0238076171875,0.28107786178588867,-0.3697096109390259,-0.8049731254577637
1720787098422821600,10.033821533203126,0.042691707611083984,-0.34674668312072754,-0.5829825401306152
1720787098432835600,10.043835693359375,0.029631614685058594,-0.38318073749542236,-0.15056705474853516
1720787098442849300,10.053849365234376,-0.17071104049682617,-0.3257540464401245,0.3188896179199219
1720787098452863200,10.06386328125,-0.35797977447509766,-0.05492198467254639,0.264803409576416
1720787098462877000,10.073876953125,-0.4767336845397949,0.1563500165939331,0.1452488899230957
1720787098472891000,10.083890869140625,-0.387786865234375,-0.12487900257110596,0.31432104110717773
1720787098482904800,10.09390478515625,-0.3704361915588379,-0.26003944873809814,0.25331544876098633
1720787098492918500,10.10391845703125,-0.24983644485473633,-0.11982500553131104,0.14187908172607422
1720787098502932500,10.113932373046875,-0.08794498443603516,-0.05311894416809082,0.3774714469909668
1720787098512946400,10.123946533203124,-0.11601686477661133,0.02525925636291504,0.20253801345825195
1720787098522960100,10.133960205078125,0.14365720748901367,-0.1403656005859375,0.24890518188476562
1720787098532974000,10.14397412109375,0.19536447525024414,-0.287766695022583,0.21752357482910156
1720787098542987800,10.15398779296875,0.26809072494506836,-0.37024950981140137,-0.08849048614501953
1720787098553001700,10.164001708984374,0.2507514953613281,-0.4793635606765747,-0.5309138298034668
1720787098563015700,10.174015625,0.2816014289855957,-0.8627395629882812,-0.5893797874450684
1720787098573029400,10.184029296875,0.058596134185791016,-1.035500407218933,-0.5764145851135254
1720787098583043300,10.194043212890625,-0.16013717651367188,-0.9731478691101074,-0.45972299575805664
1720787098593057000,10.20405712890625,-0.24890899658203125,-0.7178045511245728,0.18745708465576172
1720787098603071000,10.214071044921875,-0.40130138397216797,-0.33224689960479736,0.47743749618530273
1720787098613085000,10.2240849609375,-0.3281064033508301,-0.20415616035461426,0.9824714660644531
1720787098623098600,10.2340986328125,-0.2733950614929199,-0.06687366962432861,0.7942123413085938
1720787098633112600,10.244112548828125,-0.06038331985473633,-0.0076454877853393555,0.5980558395385742
1720787098643126500,10.25412646484375,-0.021329402923583984,-0.2462693452835083,0.3439292907714844
1720787098653140200,10.26414013671875,0.05164480209350586,-0.3791602849960327,0.09584617614746094
1720787098663154200,10.274154296875,0.0465245246887207,-0.36360204219818115,-0.1914515495300293
1720787098673168000,10.28416796875,0.08081626892089844,-0.29021143913269043,-0.10890913009643555
1720787098683181800,10.294181884765624,-0.05756568908691406,-0.08657348155975342,-0.30570363998413086
1720787098693195800,10.30419580078125,0.05469036102294922,-0.15108072757720947,-0.2224888801574707
1720787098703209500,10.31420947265625,-0.0774393081665039,-0.17366445064544678,-0.10918521881103516
1720787098713223400,10.324223388671875,-0.11490964889526367,0.02898716926574707,-0.3149876594543457
1720787098723237400,10.3342373046875,-0.08063030242919922,0.11430954933166504,-0.6019058227539062
1720787098733251000,10.3442509765625,0.065643310546875,-0.05638015270233154,-0.6207218170166016
1720787098743265000,10.35426513671875,-0.02239370346069336,-0.2897937297821045,-0.5933771133422852
1720787098753278700,10.36427880859375,0.028549671173095703,-0.48507940769195557,-0.23610258102416992
1720787098763292700,10.374292724609376,-0.10140657424926758,-0.3407268524169922,0.08104801177978516
1720787098773306600,10.384306640625,-0.051466941833496094,-0.18446385860443115,0.30190563201904297
1720787098783320300,10.3943203125,-0.02678823471069336,-0.2471390962600708,0.8011951446533203
1720787098793334300,10.404334228515625,0.049884796142578125,-0.28475773334503174,0.9487648010253906
1720787098803348000,10.414347900390625,0.10527753829956055,-0.1003274917602539,0.4989809989929199
1720787098813362000,10.42436181640625,0.35477113723754883,-0.1548856496810913,0.1431255340576172
1720787098823376000,10.4343759765625,0.411313533782959,-0.278700590133667,-0.023621082305908203
1720787098833389600,10.4443896484375,0.36615610122680664,-0.5692832469940186,-0.15691614151000977
1720787098843403500,10.454403564453125,0.2865781784057617,-0.7829041481018066,-0.24792814254760742
1720787098853417500,10.46441748046875,0.14229249954223633,-0.6677255630493164,-0.18682241439819336
1720787098863431200,10.47443115234375,-0.04642009735107422,-0.5637912750244141,0.2793126106262207
1720787098873445000,10.484445068359374,-0.29529380798339844,-0.40442681312561035,0.4954867362976074
1720787098883458800,10.494458740234375,-0.2763509750366211,-0.3037717342376709,0.5758066177368164
1720787098893472800,10.50447265625,-0.28870058059692383,-0.3888688087463379,0.39271974563598633
1720787098903486700,10.51448681640625,-0.21468019485473633,-0.5066423416137695,0.25165796279907227
1720787098913500400,10.52450048828125,-0.2107706069946289,-0.6238648891448975,0.23729515075683594
1720787098923514400,10.534514404296875,-0.1146550178527832,-0.7486398220062256,0.5749397277832031
1720787098933528000,10.544528076171876,-0.226226806640625,-0.6166296005249023,0.4135465621948242
1720787098943542000,10.5545419921875,0.013813495635986328,-0.4406924247741699,0.36009693145751953
1720787098953556000,10.564555908203126,-0.012688159942626953,-0.10909461975097656,0.14934587478637695
1720787098963569700,10.574569580078125,0.06414270401000977,0.13576388359069824,-0.02539205551147461
1720787098973583600,10.58458349609375,-0.021875381469726562,0.10792875289916992,-0.2835726737976074
1720787098983597600,10.59459765625,-0.011616706848144531,-0.012102842330932617,-0.35353660583496094
1720787098993611300,10.604611328125,-0.16838741302490234,-0.03003716468811035,-0.4061117172241211
1720787099003625200,10.614625244140624,-0.20197439193725586,-0.1118767261505127,0.07241058349609375
1720787099013639000,10.624638916015625,-0.397580623626709,-0.10111260414123535,0.22934293746948242
1720787099023652900,10.63465283203125,-0.22685813903808594,-0.09046196937561035,0.32744789123535156
1720787099033666800,10.644666748046875,-0.19903326034545898,-0.03414273262023926,0.34569358825683594
1720787099043680500,10.654680419921876,0.006102561950683594,-0.07457733154296875,0.2308492660522461
1720787099053694500,10.664694580078125,0.1347332000732422,-0.31366944313049316,-0.016225814819335938
1720787099063708400,10.67470849609375,0.35492944717407227,-0.5254876613616943,-0.1795816421508789
1720787099073722000,10.68472216796875,0.3524818420410156,-0.6354002952575684,-0.35199737548828125
1720787099083736000,10.694736083984376,0.44078588485717773,-0.6824276447296143,-0.22803163528442383
1720787099093749800,10.704749755859375,0.36310768127441406,-0.5033214092254639,-0.2750358581542969
1720787099103763700,10.714763671875,0.44883012771606445,-0.4040567874908447,0.058313846588134766
1720787099113777700,10.724777587890625,0.24783086776733398,-0.23223185539245605,0.1674351692199707
1720787099123791400,10.734791259765625,0.2187795639038086,0.020609140396118164,-0.06528043746948242
1720787099133805300,10.744805419921875,0.1167459487915039,0.023612260818481445,-0.28763484954833984
1720787099143819000,10.754819091796875,-0.021287918090820312,-0.1283876895904541,-0.2944812774658203
1720787099153832700,10.764832763671874,-0.2808384895324707,-0.16365599632263184,-0.23242902755737305
1720787099163846700,10.7748466796875,-0.4003877639770508,-0.15382003784179688,0.17600440979003906
1720787099173860400,10.7848603515625,-0.6524143218994141,0.0557098388671875,0.36264896392822266
1720787099183874300,10.794874267578125,-0.44185543060302734,0.09783148765563965,0.7594099044799805
1720787099193888000,10.804887939453126,-0.3690061569213867,0.13980484008789062,0.8646836280822754
1720787099203902000,10.81490185546875,-0.12937498092651367,0.20003366470336914,0.5894784927368164
1720787099213915600,10.82491552734375,0.06572723388671875,0.00446772575378418,0.13208580017089844
1720787099223929300,10.834929443359375,0.3592982292175293,-0.31009769439697266,-0.20683860778808594
1720787099233943300,10.844943359375,0.4302349090576172,-0.4555525779724121,-0.7393126487731934
1720787099243957000,10.85495703125,0.601168155670166,-0.6652934551239014,-0.6953592300415039
1720787099253971000,10.864970947265626,0.4471879005432129,-0.7023558616638184,-0.6821775436401367
1720787099263984600,10.874984619140625,0.4552907943725586,-0.6694557666778564,-0.4104013442993164
1720787099273998300,10.884998291015625,0.2345724105834961,-0.5250511169433594,-0.04618120193481445
1720787099284012300,10.89501220703125,0.13673686981201172,-0.34547972679138184,0.2947540283203125
1720787099294026000,10.90502587890625,-0.030173778533935547,-0.29607558250427246,0.3378567695617676
1720787099304040000,10.9150400390625,0.013267040252685547,-0.25130677223205566,0.36139488220214844
1720787099314053600,10.9250537109375,0.0023088455200195312,-0.22098588943481445,0.3351759910583496
1720787099324067600,10.935067626953124,0.03628969192504883,-0.2514207363128662,0.5566778182983398
1720787099334081300,10.945081298828125,-0.024658679962158203,-0.17730283737182617,0.38315582275390625
1720787099344095000,10.955094970703126,0.10067033767700195,-0.19946885108947754,0.4453921318054199
1720787099354109000,10.96510888671875,-0.10388565063476562,-0.0668783187866211,0.4479794502258301
1720787099364122600,10.97512255859375,-0.05968141555786133,0.08213973045349121,0.41333436965942383
1720787099374136600,10.985136474609375,-0.03082895278930664,0.14395952224731445,0.1996631622314453
1720787099384150300,10.995150390625,-0.02520608901977539,0.304693341255188,-0.009883403778076172
1720787099394164000,11.0051640625,-0.09301614761352539,0.35560142993927,-0.12519025802612305
1720787099404178000,11.015177978515625,-0.05939292907714844,0.3274327516555786,-0.049218177795410156
1720787099414191600,11.025191650390624,-0.1870427131652832,0.2822399139404297,-0.17817068099975586
1720787099424205600,11.03520556640625,-0.08528470993041992,0.06827473640441895,0.021377086639404297
1720787099434219300,11.04521923828125,-0.17561054229736328,-0.11011934280395508,0.3247394561767578
1720787099444233000,11.05523291015625,-0.21700811386108398,-0.07005620002746582,0.3270282745361328
1720787099454247000,11.065246826171874,-0.08914852142333984,-0.1355113983154297,0.31910085678100586
1720787099464260900,11.0752607421875,-0.0799555778503418,-0.20077991485595703,0.3318805694580078
1720787099474274600,11.085274658203126,-0.10633611679077148,-0.16201400756835938,0.257108211517334
1720787099484288500,11.09528857421875,-0.08292770385742188,-0.0374453067779541,0.39284420013427734
1720787099494302200,11.10530224609375,-0.09525060653686523,0.06325292587280273,0.33927392959594727
1720787099504316200,11.115316162109375,-0.07733774185180664,-0.02971649169921875,0.34473085403442383
1720787099514330000,11.125330078125,-0.031969547271728516,-0.11156439781188965,0.21754693984985352
1720787099524343800,11.13534375,0.05456209182739258,-0.09869074821472168,-0.053806304931640625
1720787099534357800,11.145357666015625,0.17388439178466797,-0.3130180835723877,-0.036238670349121094
1720787099544371500,11.155371337890625,0.19634389877319336,-0.2702648639678955,-0.3397488594055176
1720787099554385400,11.165385498046875,0.37193727493286133,-0.32796573638916016,-0.3904581069946289
1720787099564399400,11.1753994140625,0.2535519599914551,-0.328549861907959,-0.38718509674072266
1720787099574413000,11.1854130859375,0.3324594497680664,-0.36734461784362793,-0.4290771484375
1720787099584427000,11.195427001953124,0.33075904846191406,-0.3355288505554199,-0.3890252113342285
1720787099594441000,11.20544091796875,0.25299835205078125,-0.19696879386901855,-0.2935333251953125
1720787099604454700,11.21545458984375,0.049404144287109375,-0.09911155700683594,-0.22285890579223633
1720787099614468600,11.225468505859375,-0.05113649368286133,-0.1906728744506836,0.030962467193603516
1720787099624482300,11.235482421875,-0.31516265869140625,0.0734555721282959,0.016127586364746094
1720787099634496300,11.245496337890625,-0.3274259567260742,0.169813871383667,0.4936699867248535
1720787099644510200,11.25551025390625,-0.5911269187927246,0.28604912757873535,0.626253604888916
1720787099654524000,11.26552392578125,-0.3002896308898926,0.162184476852417,0.7028589248657227
1720787099664537900,11.275537841796876,-0.19650793075561523,0.032181739807128906,0.6569972038269043
1720787099674551600,11.285551513671875,0.01730632781982422,-0.0764312744140625,0.45481300354003906
1720787099684565500,11.2955654296875,0.18784332275390625,-0.30617523193359375,0.14549875259399414
1720787099694579500,11.305579345703125,0.3283538818359375,-0.4901130199432373,-0.04421854019165039
1720787099704593200,11.31559326171875,0.355684757232666,-0.5355756282806396,-0.26143598556518555
1720787099714607000,11.325607177734375,0.42066001892089844,-0.5199778079986572,-0.26222896575927734
1720787099724621000,11.33562109375,0.317080020904541,-0.27959132194519043,-0.5011177062988281
1720787099734634800,11.345634765625,0.4740157127380371,-0.3975820541381836,-0.35912609100341797
1720787099744648700,11.355648681640625,0.33173656463623047,-0.4819622039794922,-0.31301116943359375
1720787099754662400,11.365662353515624,0.27604103088378906,-0.4201323986053467,-0.3997941017150879
1720787099764676400,11.37567626953125,0.31626319885253906,-0.46829700469970703,-0.26261091232299805
1720787099774690300,11.385690185546874,0.19192266464233398,-0.19594097137451172,-0.33362913131713867
1720787099784704000,11.3957041015625,0.2619132995605469,0.02818465232849121,-0.2673969268798828
1720787099794718000,11.405718017578126,0.11054849624633789,0.14426255226135254,-0.2995567321777344
1720787099804732000,11.41573193359375,0.08299016952514648,0.19620871543884277,-0.20030927658081055
1720787099814745600,11.42574560546875,-0.16476678848266602,0.2983473539352417,-0.09687185287475586
1720787099824759600,11.435759521484375,-0.2797427177429199,0.3942497968673706,0.1713089942932129
1720787099834773200,11.445773193359376,-0.4633049964904785,0.4520338773727417,0.24633073806762695
1720787099844787200,11.455787109375,-0.5339274406433105,0.5010654926300049,0.2929801940917969
1720787099854801200,11.46580126953125,-0.654381275177002,0.6072533130645752,0.3486804962158203
1720787099864814800,11.47581494140625,-0.6290392875671387,0.6152169704437256,0.6314916610717773
1720787099874828800,11.485828857421875,-0.7267313003540039,0.6495233774185181,0.5833549499511719
1720787099884842500,11.495842529296874,-0.4931049346923828,0.5400644540786743,0.6715459823608398
1720787099894856400,11.5058564453125,-0.3158688545227051,0.4342244863510132,0.516608715057373
1720787099904870400,11.515870361328124,0.01625537872314453,0.17566823959350586,0.21993303298950195
1720787099914884000,11.525884033203125,0.296875,-0.28193235397338867,-0.052019596099853516
1720787099924898000,11.53589794921875,0.38895463943481445,-0.5779814720153809,-0.23426055908203125
1720787099934912000,11.545912109375,0.3923654556274414,-0.7208559513092041,-0.07133197784423828
1720787099944925700,11.55592578125,0.1632976531982422,-0.7021656036376953,0.24354219436645508
1720787099954939600,11.565939697265625,0.04500865936279297,-0.5148804187774658,0.31626415252685547
1720787099964953300,11.575953369140626,0.10326480865478516,-0.3833732604980469,0.4072136878967285
1720787099974967300,11.58596728515625,0.0849924087524414,-0.22671246528625488,0.36014652252197266
1720787099984981200,11.595981201171876,0.05030012130737305,-0.05877542495727539,0.03773069381713867
1720787099994995000,11.605994873046875,0.18047571182250977,-0.23260045051574707,-0.07280778884887695
1720787100005009000,11.6160087890625,0.08841371536254883,-0.3324429988861084,-0.19895362854003906
1720787100015022600,11.626022705078125,0.14909934997558594,-0.3879842758178711,-0.15767145156860352
1720787100025036500,11.63603662109375,0.08225727081298828,-0.27309465408325195,-0.29999256134033203
1720787100035050500,11.646050537109375,0.23406600952148438,-0.22216153144836426,-0.21727514266967773
1720787100045064200,11.656064208984375,0.17666196823120117,-0.14023590087890625,-0.28557491302490234
1720787100055078100,11.666078125,0.2521977424621582,-0.008676767349243164,-0.39003944396972656
1720787100065092000,11.676092041015625,0.20758295059204102,-0.0730130672454834,-0.3807830810546875
1720787100075105800,11.686105712890624,-0.06130790710449219,-0.10284590721130371,-0.24807500839233398
1720787100085119700,11.69611962890625,-0.2881326675415039,-0.07456183433532715,0.1127471923828125
1720787100095133400,11.706133544921874,-0.4936528205871582,0.040270328521728516,0.5130562782287598
1720787100105147400,11.7161474609375,-0.5503053665161133,0.23444223403930664,0.632326602935791
1720787100115161300,11.726161376953126,-0.43963146209716797,0.32723379135131836,0.6992192268371582
1720787100125175000,11.736175048828125,-0.21419858932495117,0.2537527084350586,0.5515832901000977
1720787100135189000,11.74618896484375,0.028590679168701172,0.01581406593322754,0.1541914939880371
1720787100145203000,11.756202880859375,0.2576589584350586,-0.3370809555053711,0.008527278900146484
1720787100155216600,11.766216552734376,0.256746768951416,-0.4496426582336426,-0.14847135543823242
1720787100165230600,11.776230712890625,0.3607974052429199,-0.42822265625,-0.07999467849731445
1720787100175244300,11.786244384765626,0.3578028678894043,-0.16739368438720703,-0.405426025390625
1720787100185258200,11.79625830078125,0.496004581451416,-0.08638691902160645,-0.47081995010375977
1720787100195272200,11.806272216796875,0.4236483573913574,-0.05962347984313965,-0.4086484909057617
1720787100205286000,11.816285888671874,0.2580533027648926,0.03736448287963867,-0.5315113067626953
1720787100215299800,11.8262998046875,0.15218496322631836,-0.16806411743164062,-0.3788433074951172
1720787100225313500,11.8363134765625,-0.09589052200317383,-0.19955992698669434,-0.2030935287475586
1720787100235327500,11.846327392578125,-0.2441720962524414,-0.036225080490112305,0.21123504638671875
1720787100245341400,11.856341552734374,-0.3980712890625,0.09713244438171387,0.31360769271850586
1720787100255355100,11.866355224609375,-0.2654590606689453,-0.044889211654663086,0.5005202293395996
1720787100265369000,11.876369140625,-0.27684640884399414,-0.07242941856384277,0.48627424240112305
1720787100275383000,11.886383056640625,-0.12769031524658203,-0.18513989448547363,0.515174388885498
1720787100285396700,11.896396728515626,-0.028777122497558594,-0.29675936698913574,0.29816102981567383
1720787100295410700,11.90641064453125,0.1568140983581543,-0.24710726737976074,-0.09534215927124023
1720787100305424400,11.91642431640625,0.2652616500854492,-0.12503671646118164,-0.3158097267150879
1720787100315438300,11.926438232421875,0.13736867904663086,0.017968177795410156,-0.33805084228515625
1720787100325452300,11.936452392578126,0.15083932876586914,0.05510544776916504,-0.23521709442138672
1720787100335466000,11.946466064453125,-0.07878303527832031,0.09255194664001465,-0.08018302917480469
1720787100345480000,11.95647998046875,-0.29927778244018555,0.2917139530181885,0.13339519500732422
1720787100355494000,11.966493896484375,-0.4742732048034668,0.4190312623977661,0.14409637451171875
1720787100365507600,11.976507568359375,-0.4838733673095703,0.41455376148223877,0.20356988906860352
1720787100375521500,11.986521484375,-0.4418792724609375,0.3779205083847046,0.1435527801513672
1720787100385535200,11.99653515625,-0.29880189895629883,0.15870904922485352,0.4126896858215332
1720787100395549200,12.006549072265624,-0.2052288055419922,0.08427548408508301,0.31464719772338867
1720787100405563100,12.016563232421875,0.023754119873046875,-0.08439755439758301,0.23322820663452148
1720787100415576800,12.026576904296874,0.17324209213256836,-0.19992327690124512,0.14393901824951172
1720787100425590500,12.036590576171875,0.3286118507385254,-0.18263697624206543,-0.24620580673217773
1720787100435604500,12.0466044921875,0.5122108459472656,-0.26561975479125977,-0.5612812042236328
1720787100445618200,12.0566181640625,0.40964412689208984,-0.22529959678649902,-0.7583346366882324
1720787100455632100,12.066632080078126,0.20030546188354492,-0.27455687522888184,-0.39185094833374023
1720787100465645800,12.076645751953125,-0.2023463249206543,-0.23610949516296387,-0.1770615577697754
1720787100475659500,12.086659423828126,-0.22625398635864258,-0.18730831146240234,0.2030019760131836
1720787100485673500,12.096673583984375,-0.3856062889099121,-0.08205699920654297,0.48312950134277344
1720787100495687200,12.106687255859375,-0.29756689071655273,-0.07222342491149902,0.612055778503418
1720787100505701000,12.116701171875,-0.11840295791625977,-0.19923973083496094,0.4024972915649414
1720787100515714800,12.12671484375,0.1000971794128418,-0.4048914909362793,0.2531156539916992
1720787100525728800,12.136728759765624,0.10652923583984375,-0.5281000137329102,0.19011306762695312
1720787100535742500,12.146742431640625,0.08605289459228516,-0.5170092582702637,0.2003803253173828
1720787100545756200,12.156756103515624,0.12137842178344727,-0.42111897468566895,0.1903228759765625
1720787100555770000,12.16677001953125,0.04865694046020508,-0.3362462520599365,0.05897092819213867
1720787100565783800,12.17678369140625,0.14092016220092773,-0.2580382823944092,-0.043009281158447266
1720787100575797800,12.1867978515625,0.15893936157226562,-0.16815900802612305,-0.2582721710205078
1720787100585811500,12.1968115234375,0.17317724227905273,-0.29239726066589355,-0.23744583129882812
1720787100595825200,12.2068251953125,0.05455636978149414,-0.34471797943115234,-0.2598748207092285
1720787100605839000,12.216839111328126,0.005373954772949219,-0.29296398162841797,-0.12926244735717773
1720787100615852800,12.226852783203125,-0.030495166778564453,-0.08740496635437012,-0.0825037956237793
1720787100625866800,12.23686669921875,-0.060547828674316406,0.1140289306640625,-0.05922508239746094
1720787100635880400,12.24688037109375,-0.004895687103271484,0.25063085556030273,-0.045203208923339844
1720787100645894400,12.256894287109375,-0.026689529418945312,0.35188817977905273,-0.3389267921447754
1720787100655908000,12.266908203125,0.014680862426757812,0.3150026798248291,-0.3669099807739258
1720787100665921800,12.276921875,-0.07123899459838867,0.30710840225219727,-0.28542375564575195
1720787100675935700,12.286935791015624,-0.16944169998168945,0.22057318687438965,0.13932371139526367
1720787100685949400,12.296949462890625,-0.2555274963378906,0.2352919578552246,0.22809362411499023
1720787100695963400,12.30696337890625,-0.19183683395385742,0.24091577529907227,0.2659740447998047
1720787100705977000,12.31697705078125,-0.02630758285522461,0.2600831985473633,0.23658275604248047
1720787100715990800,12.32699072265625,0.08814048767089844,0.19852948188781738,-0.13280248641967773
1720787100726004700,12.337004638671875,0.3824167251586914,-0.0504145622253418,-0.4229607582092285
1720787100736018400,12.347018310546876,0.4146695137023926,-0.09310245513916016,-0.7347750663757324
1720787100746032400,12.357032470703125,0.2955055236816406,-0.20538043975830078,-0.528160572052002
1720787100756046000,12.367046142578126,0.06322717666625977,-0.21141839027404785,-0.5301575660705566
1720787100766060000,12.37706005859375,-0.004863739013671875,-0.2552826404571533,-0.1549839973449707
1720787100776073700,12.38707373046875,-0.21635675430297852,-0.1765129566192627,0.2959604263305664
1720787100786087700,12.397087646484374,-0.3295722007751465,0.09887027740478516,0.44317150115966797
1720787100796101400,12.407101318359375,-0.3483238220214844,0.25694870948791504,0.46343564987182617
1720787100806115300,12.417115234375,-0.40453338623046875,0.2676212787628174,0.4168376922607422
1720787100816129300,12.42712939453125,-0.3851289749145508,0.11482524871826172,0.5863313674926758
1720787100826143000,12.43714306640625,-0.4171438217163086,0.05161762237548828,0.5456976890563965
1720787100836157000,12.447156982421875,-0.23097515106201172,-0.15038585662841797,0.6946930885314941
1720787100846170600,12.457170654296876,-0.20721197128295898,-0.2781825065612793,0.667816162109375
1720787100856184600,12.4671845703125,0.0040988922119140625,-0.34765172004699707,0.46190643310546875
1720787100866198500,12.477198486328126,0.2748293876647949,-0.3661983013153076,0.02589559555053711
1720787100876212200,12.487212158203125,0.3847794532775879,-0.3212709426879883,-0.4027099609375
