time,seconds_elapsed,z,y,x
1720785171492743400,0.152743408203125,-0.49759697914123535,-0.9394024014472961,0.5319507122039795
1720785171502748200,0.162748046875,-0.43581345677375793,-1.2621679306030273,0.8983908891677856
1720785171512755200,0.172755126953125,-0.33994248509407043,-1.4507142305374146,1.3489844799041748
1720785171522764300,0.182764404296875,-0.43261775374412537,-0.06151720881462097,1.2595049142837524
1720785171532776200,0.192776123046875,-0.6264901757240295,1.5192886590957642,0.9612396359443665
1720785171542790100,0.2027900390625,-0.7521876692771912,2.691044807434082,0.7268883585929871
1720785171552806100,0.21280615234375,-0.875754714012146,3.1842477321624756,0.5234288573265076
1720785171562824700,0.22282470703125,-0.7862751483917236,2.3533661365509033,0.3370130956172943
1720785171572844800,0.2328447265625,-0.24194104969501495,0.7363423109054565,0.0930747389793396
1720785171582866700,0.24286669921875,0.4334166944026947,0.10892007499933243,-0.12849372625350952
1720785171592889300,0.252889404296875,0.7519213557243347,0.48068639636039734,-0.24566936492919922
1720785171602912800,0.262912841796875,0.7700303196907043,1.1283481121063232,-0.2477998286485672
1720785171612936700,0.272936767578125,0.657115638256073,2.0210132598876953,-0.1508636325597763
1720785171622957600,0.28295751953125,0.6219629049301147,3.042571783065796,-0.07523208111524582
1720785171632971500,0.292971435546875,0.6528546810150146,2.130732297897339,-0.1402112990617752
1720785171642985200,0.302985107421875,0.658180832862854,1.4873316287994385,-0.18069015443325043
1720785171652999000,0.3129990234375,0.7220948338508606,1.5203537940979004,-0.22329947352409363
1720785171663012600,0.3230126953125,0.8861407041549683,1.990121603012085,-0.39267152547836304
1720785171673026300,0.3330263671875,1.0235557556152344,2.710219144821167,-0.5439345836639404
1720785171683040000,0.3430400390625,1.041664719581604,3.4697303771972656,-0.5577826499938965
1720785171693053700,0.3530537109375,0.8893364071846008,3.655080795288086,-0.4363460838794708
1720785171703067400,0.3630673828125,0.618767261505127,3.1245946884155273,-0.19986434280872345
1720785171713081000,0.3730810546875,0.33328479528427124,2.1605589389801025,0.09627043455839157
1720785171723094800,0.3830947265625,0.008388710208237171,0.8961272835731506,0.32209983468055725
1720785171733108500,0.3931083984375,-0.24300628900527954,-0.24473728239536285,0.4019923210144043
1720785171743122200,0.4031220703125,-0.3420729637145996,-1.0246210098266602,0.4041227698326111
1720785171753135900,0.413135986328125,-0.3857475221157074,-1.4666926860809326,0.4659062922000885
1720785171763149600,0.423149658203125,-0.37935611605644226,-1.8736116886138916,0.6608439087867737
1720785171773163300,0.433163330078125,-0.34633389115333557,-1.6744132041931152,0.6097127795219421
1720785171783177000,0.443177001953125,-0.1620485782623291,-0.8051829934120178,0.3711005449295044
1720785171793190700,0.453190673828125,0.18628261983394623,-0.00719032296910882,0.24646829068660736
1720785171803204400,0.463204345703125,0.4121120274066925,0.7342118620872498,0.07070484012365341
1720785171813218000,0.473218017578125,0.503722071647644,0.8993229866027832,-0.07203638553619385
1720785171823231700,0.483231689453125,0.3364804685115814,0.4189028739929199,-0.1732335239648819
1720785171833245400,0.493245361328125,0.15219517052173615,0.07802832126617432,-0.21158191561698914
1720785171843259100,0.503259033203125,0.15326039493083954,0.2079867422580719,-0.29573532938957214
1720785171853272800,0.51327294921875,0.20545682311058044,0.24207420647144318,-0.43528082966804504
1720785171863286500,0.52328662109375,0.31304535269737244,-0.1978670358657837,-0.5918700695037842
1720785171873300200,0.53330029296875,0.5932016372680664,-0.8435314297676086,-0.7571143507957458
1720785171883314000,0.54331396484375,1.0576432943344116,-1.3132991790771484,-0.9445953965187073
1720785171893327600,0.55332763671875,1.578675389289856,-1.4272791147232056,-1.024487853050232
1720785171903341300,0.56334130859375,1.9973119497299194,-1.2887988090515137,-0.8125064969062805
1720785171913355000,0.57335498046875,2.2050323486328125,-1.172688364982605,-0.3106485903263092
1720785171923368700,0.58336865234375,2.127270460128784,-1.1151658296585083,0.35512205958366394
1720785171933382400,0.59338232421875,1.5978494882583618,0.47855594754219055,1.0240883827209473
1720785171943396000,0.60339599609375,0.5644403696060181,1.3126333951950073,1.6280754804611206
1720785171953410000,0.61341015625,-0.5050535798072815,-0.5047873258590698,1.6280754804611206
1720785171963423700,0.623423828125,-0.9119726419448853,-2.198507785797119,1.210504174232483
1720785171973437400,0.6334375,-0.8736242055892944,-2.474403142929077,1.1284812688827515
1720785171983451100,0.643451171875,-0.9023855328559875,-2.0227444171905518,0.9963923692703247
1720785171993465000,0.653465087890625,-0.8832113146781921,-1.731935739517212,0.5841471552848816
1720785172003478800,0.663478759765625,-0.5732285380363464,-2.0621578693389893,0.3370130956172943
1720785172013492500,0.673492431640625,-0.36976900696754456,-2.5020992755889893,-0.02090519852936268
1720785172023506200,0.683506103515625,-0.17483137547969818,-2.3945107460021973,-0.27230018377304077
1720785172033519900,0.693519775390625,0.08934641629457474,-1.4805407524108887,-0.2254299372434616
1720785172043533800,0.703533935546875,0.3268933892250061,-0.5484618544578552,-0.1295589655637741
1720785172053547500,0.713547607421875,0.38548120856285095,-0.10412652790546417,-0.19027724862098694
1720785172063561200,0.723561279296875,0.2874797582626343,-0.1978670358657837,-0.39267152547836304
1720785172073575000,0.733574951171875,0.1671084314584732,-0.4856131076812744,-0.5790873169898987
1720785172083588600,0.743588623046875,0.08721595257520676,-0.7583127617835999,-0.6740261912345886
1720785172093602600,0.7536025390625,0.024367205798625946,-0.872292697429657,-0.6868090033531189
1720785172103616300,0.7636162109375,0.021171506494283676,-0.6922683119773865,-0.6846785545349121
1720785172113630000,0.7736298828125,0.10745538026094437,-0.37589409947395325,-0.6410039663314819
1720785172123643600,0.7836435546875,0.1042596846818924,0.0790935531258583,-0.6355446577072144
1720785172133657300,0.7936572265625,0.044606633484363556,0.3592498302459717,-0.6878741979598999
1720785172143671300,0.80367138671875,0.09147688746452332,0.4977301359176636,-0.740070641040802
1720785172153685000,0.81368505859375,0.2938711643218994,0.6692326664924622,-0.7709624171257019
1720785172163698700,0.82369873046875,0.5228962898254395,0.640471339225769,-0.6804175972938538
1720785172173712400,0.83371240234375,0.6730940937995911,0.540339469909668,-0.3841496706008911
1720785172183726300,0.843726318359375,0.6635070443153381,0.43807709217071533,-0.04007939249277115
1720785172193740000,0.853739990234375,0.3822855055332184,0.21011722087860107,0.1995980441570282
1720785172203753700,0.863753662109375,-0.029959678649902344,-0.08814803510904312,0.23794642090797424
1720785172213767400,0.873767333984375,-0.21957115828990936,-0.12649641931056976,0.13248835504055023
1720785172223781000,0.883781005859375,-0.2366148829460144,0.12063764035701752,0.004660394508391619
1720785172233795000,0.893795166015625,-0.18867939710617065,0.4732297658920288,-0.09653674066066742
1720785172243808800,0.903808837890625,-0.09493889659643173,0.7949301600456238,-0.183885857462883
1720785172253822500,0.913822509765625,-0.006524552125483751,0.9749545454978943,-0.26271310448646545
1720785172263836400,0.92383642578125,-0.007589785382151604,0.9227581024169922,-0.3095833361148834
1720785172273850000,0.93385009765625,-0.08215609937906265,0.793864905834198,-0.27549588680267334
1720785172283864000,0.943864013671875,-0.12263495475053787,0.6532541513442993,-0.21903854608535767
1720785172293877800,0.953877685546875,-0.04593817517161369,0.46790361404418945,-0.17749445140361786
1720785172303891500,0.963891357421875,0.04993279650807381,0.22503048181533813,-0.08268871158361435
1720785172313905400,0.973905517578125,0.10745538026094437,-0.06151720881462097,0.06750914454460144
1720785172323919000,0.983919189453125,0.17989122867584229,-0.3352820873260498,0.18468476831912994
1720785172333933000,0.99393310546875,0.23634858429431915,-0.5058525204658508,0.2422073632478714
1720785172343946800,1.00394677734375,0.33008909225463867,-0.4216991364955902,0.24433782696723938
1720785172353960700,1.013960693359375,0.3673722445964813,-0.1850842386484146,0.19427187740802765
1720785172363974400,1.023974365234375,0.3492632806301117,-0.021038351580500603,0.0930747389793396
1720785172373988000,1.033988037109375,0.34500235319137573,0.16324695944786072,-0.03581846132874489
1720785172384002000,1.044001953125,0.32369768619537354,0.3581846058368683,-0.15725502371788025
1720785172394015700,1.054015625,0.297066867351532,0.5051867365837097,-0.21051667630672455
1720785172404029700,1.06402978515625,0.3194367587566376,0.5733616948127747,-0.19666863977909088
1720785172414043400,1.07404345703125,0.36417654156684875,0.8822792768478394,-0.2584521770477295
1720785172424057000,1.08405712890625,0.4461994767189026,1.4766793251037598,-0.45445504784584045
1720785172434071000,1.094071044921875,0.5889406800270081,2.1041014194488525,-0.6868090033531189
1720785172444084700,1.104084716796875,0.8605751395225525,2.5493688583374023,-0.8433982729911804
1720785172454098700,1.1140986328125,1.1694927215576172,2.213820457458496,-0.7880061268806458
1720785172464112400,1.1241123046875,1.2749507427215576,1.152848482131958,-0.38095396757125854
1720785172474126300,1.134126220703125,1.294124960899353,-0.22449785470962524,0.2837514579296112
1720785172484140000,1.14414013671875,1.1993192434310913,-1.3303428888320923,0.9324783682823181
1720785172494153700,1.15415380859375,1.0278167724609375,-1.939656138420105,1.310636043548584
1720785172504167700,1.164167724609375,0.7359428405761719,-1.7820017337799072,1.2232869863510132
1720785172514181400,1.174181396484375,0.6390066742897034,-1.8416547775268555,0.6395393013954163
1720785172524195300,1.1841953125,0.8190310597419739,-2.0823974609375,0.03768261894583702
1720785172534209000,1.194208984375,1.1204919815063477,-2.2166168689727783,-0.4086500108242035
1720785172544222700,1.20422265625,1.3196905851364136,-2.133528709411621,-0.8561810255050659
1720785172554236700,1.214236572265625,1.4709537029266357,-1.7937192916870117,-1.4931904077529907
1720785172564250400,1.22425048828125,1.6148933172225952,-1.1045135259628296,-2.7917094230651855
1720785172574264000,1.23426416015625,1.7107642889022827,-0.8701622486114502,-4.001814365386963
1720785172584277800,1.24427783203125,1.849244475364685,0.10252867639064789,-5.032959938049316
1720785172594291500,1.25429150390625,2.019681930541992,1.499049186706543,-5.077699661254883
1720785172604305400,1.264305419921875,2.062291145324707,3.182117462158203,-3.6236565113067627
1720785172614319000,1.274319091796875,1.9802682399749756,3.9139323234558105,-1.8180865049362183
1720785172624332800,1.284332763671875,1.6873290538787842,3.262009859085083,-0.6718957424163818
1720785172634346500,1.294346435546875,1.3441909551620483,1.8548370599746704,0.08348763734102249
1720785172644360400,1.3043603515625,1.2152976989746094,0.663906455039978,0.7396711707115173
1720785172654374100,1.3143740234375,1.2089062929153442,-0.404655396938324,1.1316769123077393
1720785172664387800,1.324387939453125,1.0054467916488647,-2.52766489982605,1.2200912237167358
1720785172674401500,1.334401611328125,0.7050511240959167,-4.2171244621276855,1.2690919637680054
1720785172684415200,1.344415283203125,0.6166367530822754,-3.209414005279541,1.378811001777649
1720785172694429200,1.35442919921875,0.7742912769317627,-1.2035801410675049,1.2158303260803223
1720785172704443000,1.36444287109375,1.1652318239212036,1.5256799459457397,0.9505873322486877
1720785172714456600,1.37445654296875,1.5114325284957886,3.6561460494995117,0.7130403518676758
1720785172724470300,1.38447021484375,1.7853305339813232,3.9853031635284424,0.6491263508796692
1720785172734484000,1.39448388671875,2.1198136806488037,0.27829211950302124,0.7034532427787781
1720785172744498000,1.404497802734375,2.652430295944214,-1.7063701152801514,0.47229769825935364
1720785172754511600,1.41451171875,3.1648073196411133,-0.8925321102142334,0.05472634732723236
1720785172764525300,1.424525390625,3.4577465057373047,-0.26497671008110046,-0.6355446577072144
1720785172774539000,1.4345390625,3.3373751640319824,-0.03488638252019882,-1.5571043491363525
1720785172784552700,1.444552734375,2.8739986419677734,0.7224943041801453,-2.5584235191345215
1720785172794566700,1.454566650390625,2.4095571041107178,1.5118319988250732,-3.588503837585449
1720785172804580400,1.464580322265625,2.1901190280914307,1.9283380508422852,-4.627105712890625
1720785172814594000,1.474593994140625,2.110226631164551,2.312887191772461,-5.475164413452148
1720785172824607700,1.484607666015625,1.8162223100662231,2.7698721885681152,-5.523099899291992
1720785172834621700,1.49462158203125,1.2749507427215576,3.107551097869873,-4.479038715362549
1720785172844635400,1.504635498046875,0.7732260227203369,3.402620553970337,-2.7544262409210205
1720785172854649000,1.514649169921875,0.5463314056396484,3.4420342445373535,-1.3568406105041504
1720785172864662800,1.524662841796875,0.36630702018737793,3.5506880283355713,-0.6121095418930054
1720785172874676500,1.534676513671875,0.12876003980636597,4.280372619628906,-0.4310199022293091
1720785172884690400,1.5446904296875,-0.19187510013580322,5.273303031921387,-0.5492607951164246
1720785172894704000,1.5547041015625,-0.6073159575462341,5.3063249588012695,-0.7720276117324829
1720785172904717800,1.5647177734375,-0.9886693954467773,4.558531761169434,-0.9840090274810791
1720785172914731500,1.5747314453125,-1.4009145498275757,3.663602590560913,-0.9850742220878601
1720785172924745200,1.5847451171875,-1.9676185846328735,2.266016960144043,-0.8146369457244873
1720785172934759200,1.59475927734375,-2.6195411682128906,0.7406032681465149,-0.4491288661956787
1720785172944772900,1.60477294921875,-2.9945032596588135,-0.3620460629463196,-0.1828206181526184
1720785172954786600,1.61478662109375,-2.8773274421691895,-0.8978582620620728,-0.19986434280872345
1720785172964800300,1.62480029296875,-2.3585591316223145,-1.0981221199035645,-0.4384765326976776
1720785172974814200,1.634814208984375,-1.5319381952285767,-1.5678898096084595,-0.6046528816223145
1720785172984828000,1.644827880859375,-0.685077965259552,-2.5393824577331543,-0.4714987576007843
1720785172994841600,1.654841552734375,-0.08961272984743118,-4.0392303466796875,-0.17110306024551392
1720785173004855300,1.664855224609375,0.2651098668575287,-5.754388809204102,0.18255430459976196
1720785173014869000,1.674868896484375,0.3940030634403229,-6.805773735046387,0.33381739258766174
1720785173024883000,1.684883056640625,0.40998154878616333,-6.554378986358643,0.0611177459359169
1720785173034896600,1.694896728515625,0.2097177505493164,-4.050948143005371,0.011051792651414871
1720785173044910300,1.704910400390625,-0.431552529335022,0.6191666722297668,0.6246260404586792
1720785173054924000,1.714924072265625,-0.49759697914123535,2.1222105026245117,0.6757571697235107
1720785173064937700,1.724937744140625,-0.44220486283302307,1.3083724975585938,1.1295465230941772
1720785173074951700,1.73495166015625,-0.5561847686767578,1.3797430992126465,1.1125026941299438
1720785173084965400,1.74496533203125,-0.6318163275718689,1.4468528032302856,0.9388697743415833
1720785173094979000,1.75497900390625,-0.7362091541290283,1.6652255058288574,0.3263607621192932
1720785173104992800,1.76499267578125,-0.5934679508209229,2.074275016784668,-0.33727940917015076
1720785173115006500,1.77500634765625,-0.1833532303571701,1.9336642026901245,-0.5449998378753662
1720785173125020400,1.7850205078125,0.17456506192684174,1.9389903545379639,-0.4374113082885742
1720785173135034000,1.7950341796875,0.24593567848205566,2.2255380153656006,-0.10505861043930054
1720785173145047800,1.8050478515625,0.26937079429626465,2.293713092803955,0.23475073277950287
1720785173155061500,1.8150615234375,0.40998154878616333,2.340583324432373,0.4318188428878784
1720785173165075500,1.825075439453125,0.5026568174362183,2.5866520404815674,0.4467321038246155
1720785173175089200,1.835089111328125,0.4877435564994812,2.896634817123413,0.44886255264282227
1720785173185102800,1.845102783203125,0.3695026934146881,2.897700071334839,0.4573844373226166
1720785173195116800,1.85511669921875,0.23634858429431915,2.424736738204956,0.40518802404403687
1720785173205130500,1.865130615234375,0.09041165560483932,1.744052767753601,0.22942456603050232
1720785173215144400,1.87514453125,0.021171506494283676,1.2284799814224243,0.02703028731048107
1720785173225158100,1.885158203125,-0.057655736804008484,0.7970606088638306,-0.0038614696823060513
1720785173235171800,1.895171875,-0.2909417748451233,0.3762935698032379,0.12396649271249771
1720785173245185800,1.905185791015625,-0.47629231214523315,-0.1328878253698349,0.28907760977745056
1720785173255199500,1.915199462890625,-0.4933360517024994,-0.6411371231079102,0.46058014035224915
1720785173265213400,1.92521337890625,-0.35698622465133667,-0.9873378872871399,0.7183665037155151
1720785173275227100,1.93522705078125,-0.06511236727237701,-0.9511199593544006,1.0304797887802124
1720785173285240800,1.94524072265625,0.07869409024715424,-0.4355471432209015,1.3372669219970703
1720785173295254800,1.9552548828125,-0.033155377954244614,0.5243609547615051,1.5801399946212769
1720785173305268500,1.9652685546875,-0.05659050494432449,1.1848053932189941,1.8070346117019653
1720785173315282400,1.975282470703125,0.09573781490325928,1.4202219247817993,2.0978431701660156
1720785173325296000,1.985296142578125,-0.34739911556243896,0.6671021580696106,1.747381567955017
1720785173335310000,1.99531005859375,-1.5053074359893799,0.6191666722297668,-0.02836182899773121
1720785173345323800,2.00532373046875,-1.6363310813903809,1.5661588907241821,-1.8191516399383545
1720785173355337500,2.01533740234375,-1.558569073677063,1.974143147468567,-3.3775875568389893
1720785173365351400,2.025351318359375,-1.3891969919204712,1.9698821306228638,-3.9506828784942627
1720785173375365000,2.035365234375,-1.0344743728637695,2.022078514099121,-3.2220635414123535
1720785173385379000,2.045379150390625,-0.600924551486969,1.730204701423645,-2.1877222061157227
1720785173395392800,2.055392822265625,-0.3963998258113861,1.6087682247161865,-1.5017122030258179
1720785173405406500,2.065406494140625,-0.6296858787536621,1.7525746822357178,-1.3366011381149292
1720785173415420400,2.07542041015625,-1.7098321914672852,2.550434112548828,-2.0055675506591797
1720785173425434000,2.08543408203125,-3.1010265350341797,6.465298652648926,-2.213287830352783
1720785173435448000,2.095447998046875,-2.562018632888794,7.924667835235596,-2.8811891078948975
1720785173445461800,2.105461669921875,-1.44352388381958,6.545191287994385,-2.6319243907928467
1720785173455475700,2.115475830078125,-0.8139711618423462,3.158682107925415,-1.7999775409698486
1720785173465489400,2.125489501953125,-0.12583065032958984,0.471099317073822,-1.2204906940460205
1720785173475503000,2.135503173828125,0.2533923089504242,-1.3537780046463013,-1.0319445133209229
1720785173485517000,2.14551708984375,0.0829550251364708,-1.5391285419464111,-1.1938599348068237
1720785173495530800,2.15553076171875,-0.2483324557542801,-0.1446053832769394,-1.5986484289169312
1720785173505544700,2.165544677734375,-0.8640371561050415,1.337133765220642,-2.1472434997558594
1720785173515558400,2.175558349609375,-1.8067684173583984,2.115818977355957,-2.9877123832702637
1720785173525572000,2.185572021484375,-2.5790622234344482,2.242581844329834,-3.410609722137451
1720785173535586000,2.1955859375,-2.7601518630981445,1.7461832761764526,-3.18691086769104
1720785173545599700,2.205599853515625,-2.4246034622192383,0.6521888971328735,-2.6042284965515137
1720785173555613700,2.21561376953125,-1.995314598083496,-0.46963462233543396,-1.9959803819656372
1720785173565627400,2.22562744140625,-1.7311367988586426,-1.1407314538955688,-1.4580377340316772
1720785173575641000,2.23564111328125,-1.750311017036438,-1.1268833875656128,-1.1075760126113892
1720785173585655000,2.245655029296875,-2.0219454765319824,-0.5165048837661743,-1.0511187314987183
1720785173595668700,2.255668701171875,-2.0304672718048096,0.723559558391571,-0.9371387362480164
1720785173605682700,2.2656826171875,-0.7830794453620911,2.900895833969116,1.1881343126296997
1720785173615696400,2.2756962890625,0.1042596846818924,3.289705991744995,2.2022361755371094
1720785173625710300,2.28571044921875,-0.2142449915409088,2.340583324432373,1.009175181388855
1720785173635724000,2.29572412109375,-0.3772256374359131,1.728074312210083,0.05259587988257408
1720785173645737700,2.30573779296875,-0.1833532303571701,0.9547150731086731,-0.22329947352409363
1720785173655751700,2.315751708984375,0.12449911236763,0.07589785009622574,-0.2147776037454605
1720785173665765400,2.325765380859375,0.4131772518157959,-0.12649641931056976,-0.3660407066345215
1720785173675779300,2.335779296875,0.4792217016220093,-0.0061250897124409676,-0.560978353023529
1720785173685793000,2.34579296875,0.549527108669281,0.32729285955429077,-0.8146369457244873
1720785173695806700,2.355806640625,0.7295514941215515,0.3251623809337616,-0.8487244248390198
1720785173705820700,2.365820556640625,0.8893364071846008,-0.17017097771167755,-0.6985265612602234
1720785173715834400,2.37583447265625,1.1375356912612915,-0.741269052028656,-0.40332385897636414
1720785173725848300,2.385848388671875,1.2227543592453003,-0.918097734451294,-0.10399337112903595
1720785173735862000,2.395862060546875,1.072556495666504,-0.4866783320903778,0.12716218829154968
1720785173745876000,2.4058759765625,0.8712274432182312,0.37096738815307617,0.2113156020641327
1720785173755889700,2.4158896484375,0.8733579516410828,1.2540456056594849,0.285881906747818
1720785173765903400,2.4259033203125,1.1172963380813599,1.95283842086792,0.49040666222572327
1720785173775917000,2.4359169921875,1.3665608167648315,2.125406265258789,0.8078460693359375
1720785173785930800,2.4459306640625,1.2248848676681519,2.433258533477783,1.009175181388855
1720785173795944700,2.45594482421875,1.0842740535736084,2.173341751098633,0.8898690342903137
1720785173805958400,2.46595849609375,1.1758841276168823,0.8939968347549438,0.5979951620101929
1720785173815972000,2.47597216796875,1.3058425188064575,-0.8403357267379761,-0.01983996480703354
1720785173825985800,2.48598583984375,0.9489894509315491,-0.9404675960540771,-0.45445504784584045
1720785173835999500,2.49599951171875,-0.058720968663692474,0.08548495173454285,-0.4917382001876831
1720785173846013400,2.506013427734375,-0.9567124247550964,0.6766892671585083,-0.6142399907112122
1720785173856027100,2.516027099609375,-1.1931941509246826,0.0908111184835434,-1.0362054109573364
1720785173866040800,2.526040771484375,-1.1580414772033691,-0.8701622486114502,-1.2716219425201416
1720785173876054500,2.536054443359375,-1.429675817489624,-1.6051729917526245,-0.9563129544258118
1720785173886068200,2.546068115234375,-0.7095783352851868,-1.654173731803894,-0.6142399907112122
1720785173896082200,2.556082275390625,0.006258244160562754,-1.2898640632629395,0.05898727849125862
1720785173906095900,2.566095947265625,0.9553808569908142,-1.0033164024353027,0.2326202541589737
1720785173916109600,2.576109619140625,1.3452562093734741,-0.4227643609046936,0.24646829068660736
1720785173926123300,2.586123291015625,0.9383371472358704,0.19307348132133484,0.4669715166091919
1720785173936137200,2.59613720703125,0.5548532605171204,0.31770575046539307,0.5596467852592468
1720785173946151000,2.60615087890625,0.09041165560483932,-0.7615084648132324,0.3082517981529236
1720785173956164600,2.61616455078125,-0.235549658536911,-1.9577651023864746,-0.3330184817314148
1720785173966178300,2.62617822265625,-0.009720250964164734,-2.2166168689727783,-0.7794842720031738
1720785173976192000,2.63619189453125,0.3599156141281128,-2.1079630851745605,-0.8039846420288086
1720785173986206000,2.6462060546875,0.5047873258590698,-1.9566999673843384,-0.9307473301887512
1720785173996219600,2.6562197265625,0.4760259985923767,-1.8501765727996826,-1.2726871967315674
1720785174006233300,2.6662333984375,0.5378095507621765,-1.6158252954483032,-1.3312749862670898
1720785174016248300,2.676248291015625,0.6816160082817078,-1.493323564529419,-1.1118369102478027
1720785174026262000,2.686261962890625,0.726355791091919,-1.5295414924621582,-0.7123745679855347
1720785174036275700,2.696275634765625,0.7391385436058044,-1.4358009099960327,-0.3106485903263092
1720785174046289400,2.706289306640625,0.5442008972167969,-1.4709537029266357,-0.2595174014568329
1720785174056303000,2.71630322265625,0.20865251123905182,-1.1577751636505127,-0.2925396263599396
1720785174066316800,2.72631689453125,-0.21317975223064423,-0.7061163187026978,-0.15938548743724823
1720785174076330500,2.73633056640625,-0.5860112905502319,-0.30012941360473633,0.10266183316707611
1720785174086344200,2.74634423828125,-0.8437976837158203,-0.030625449493527412,0.4563191831111908
1720785174096358000,2.75635791015625,-0.7894708514213562,-0.19041040539741516,0.7460625767707825
1720785174106371600,2.76637158203125,-0.5710980296134949,-0.5154396295547485,1.2051780223846436
1720785174116385300,2.77638525390625,-0.6360772848129272,-0.6635070443153381,1.752707839012146
1720785174126399000,2.78639892578125,-0.5945332050323486,-0.7359428405761719,1.8560353517532349
1720785174136412700,2.79641259765625,-0.47522708773612976,-0.7284862399101257,1.6302059888839722
1720785174146426400,2.80642626953125,-0.44540056586265564,-0.011451254598796368,1.1455249786376953
1720785174156440000,2.816440185546875,-0.5934679508209229,0.6042534112930298,0.7471278309822083
1720785174166453800,2.826453857421875,-0.8161016702651978,0.6969286799430847,0.5692338943481445
1720785174176467500,2.836467529296875,-1.0792142152786255,0.5691007375717163,0.5639077425003052
1720785174186481400,2.8464814453125,-1.3838708400726318,0.31770575046539307,0.6374087929725647
1720785174196495000,2.8564951171875,-0.922624945640564,-0.3609808385372162,0.7449973225593567
1720785174206508800,2.8665087890625,-0.48587942123413086,-0.43022099137306213,0.7748238444328308
1720785174216522800,2.876522705078125,-0.2664414048194885,-0.17762760818004608,0.7535192370414734
1720785174226536400,2.886536376953125,-0.15672241151332855,-0.021038351580500603,0.7705629467964172
1720785174236550400,2.89655029296875,-0.07896039634943008,0.2388785034418106,0.7322145700454712
1720785174246564000,2.906564208984375,0.042476166039705276,0.3560541272163391,0.4957328140735626
1720785174256578000,2.916578125,0.24806614220142365,0.2633788585662842,0.1569887101650238
1720785174266592500,2.926592529296875,0.5292876362800598,-0.13608351349830627,0.1037270650267601
1720785174276606700,2.936606689453125,0.8147701025009155,-0.788139283657074,0.25605538487434387
1720785174286622000,2.9466220703125,1.0171643495559692,-1.0214253664016724,0.2102503627538681
1720785174296634400,2.95663427734375,1.034208059310913,-1.156709909439087,0.10266183316707611
1720785174306646800,2.966646728515625,1.0448604822158813,-1.008642554283142,0.19427187740802765
1720785174316659200,2.9766591796875,0.979881227016449,-0.8051829934120178,0.49360236525535583
1720785174326671600,2.986671630859375,0.6943987607955933,-0.5250267386436462,0.8014547228813171
1720785174336684500,2.9966845703125,0.48028692603111267,-0.07003907114267349,1.095458984375
1720785174346697500,3.006697509765625,0.3503285050392151,0.2580527067184448,1.1284812688827515
1720785174356710700,3.016710693359375,0.4142425060272217,0.37416309118270874,1.0027837753295898
1720785174366724000,3.02672412109375,0.3567199110984802,0.35179319977760315,0.7982590198516846
1720785174376738000,3.036738037109375,0.13195574283599854,0.3901416063308716,0.5788210034370422
1720785174386752000,3.046751953125,0.020106272771954536,0.1547250896692276,0.3998618423938751
1720785174396766200,3.05676611328125,0.18202169239521027,0.03861469775438309,0.2720338702201843
1720785174406780700,3.06678076171875,0.4312862157821655,-0.31930360198020935,0.1463363915681839
1720785174416795100,3.076795166015625,0.4216991364955902,-0.32995593547821045,-0.04114462435245514
1720785174426809900,3.086809814453125,0.19160878658294678,-0.24154159426689148,-0.3106485903263092
1720785174436824800,3.096824951171875,0.14047759771347046,-0.16058388352394104,-0.5322170257568359
1720785174446839600,3.106839599609375,0.04993279650807381,-0.018907885998487473,-0.48641201853752136
1720785174456854500,3.1168544921875,-0.16098333895206451,-0.10838746279478073,-0.29467007517814636
1720785174466869000,3.126868896484375,-0.36018192768096924,-0.4344819188117981,-0.10186290740966797
1720785174476882700,3.136882568359375,-0.38255181908607483,-0.9873378872871399,0.10585752874612808
1720785174486896400,3.146896484375,0.3886769115924835,-1.3772131204605103,0.24433782696723938
1720785174496910300,3.156910400390625,1.2589722871780396,-1.301581621170044,0.28162097930908203
1720785174506924000,3.166924072265625,1.2717550992965698,-1.3282123804092407,0.2422073632478714
1720785174516938000,3.17693798828125,0.8403357267379761,-1.7820017337799072,0.2198374718427658
1720785174526951700,3.18695166015625,0.13089050352573395,-2.420076370239258,0.43927547335624695
1720785174536965400,3.19696533203125,-0.6637732982635498,-2.8973007202148438,0.7620410919189453
1720785174546979300,3.206979248046875,-1.3955883979797363,-2.8142125606536865,0.856846809387207
1720785174556993000,3.216992919921875,-2.090120315551758,-2.1495070457458496,0.6704310178756714
1720785174567006700,3.2270068359375,-2.462951898574829,-1.0118381977081299,0.4211665093898773
1720785174577020700,3.237020751953125,-2.366015672683716,-0.14673584699630737,0.2837514579296112
1720785174587034400,3.247034423828125,-1.8781390190124512,0.556317925453186,0.18468476831912994
1720785174597048000,3.257048095703125,-1.3018479347229004,1.3115681409835815,0.03448691964149475
1720785174607061800,3.267061767578125,-1.3487181663513184,2.294778347015381,-0.21051667630672455
1720785174617075700,3.27707568359375,-1.841921091079712,2.7698721885681152,-0.4693683087825775
1720785174627089400,3.28708935546875,-2.051771879196167,2.6005001068115234,-0.7177007794380188
1720785174637103000,3.29710302734375,-1.7215497493743896,1.8335323333740234,-0.5545869469642639
1720785174647116800,3.30711669921875,-1.1154321432113647,0.7906692028045654,0.6533873081207275
1720785174657130500,3.317130615234375,-0.5636414289474487,-1.2227543592453003,1.8794704675674438
1720785174667144400,3.32714453125,-0.1396786868572235,-2.3657493591308594,2.583589553833008
1720785174677158100,3.337158203125,-0.08961272984743118,-1.6744132041931152,1.8411221504211426
1720785174687171800,3.347171875,-0.3356815576553345,-1.423018217086792,1.095458984375
1720785174697185500,3.357185546875,-0.4912055730819702,-1.1577751636505127,0.6523220539093018
1720785174707199200,3.36719921875,-0.2568543255329132,-0.7082468271255493,0.6512568593025208
1720785174717213200,3.377213134765625,0.19480448961257935,-0.7678998708724976,1.0816110372543335
1720785174727227000,3.387226806640625,0.5782883763313293,-0.7125077247619629,1.3905285596847534
1720785174737240600,3.397240478515625,0.9010539650917053,-0.1435401439666748,1.6046403646469116
1720785174747254300,3.407254150390625,1.0278167724609375,0.6074491143226624,1.8123608827590942
1720785174757268000,3.41726806640625,1.180145025253296,0.9802806973457336,1.8773400783538818
1720785174767282000,3.427281982421875,1.307973027229309,0.9866721034049988,1.6568368673324585
1720785174777295600,3.437295654296875,1.3399299383163452,1.1230219602584839,1.2179608345031738
1720785174787309300,3.447309326171875,1.0469908714294434,1.1198261976242065,0.9164998531341553
1720785174797323000,3.457322998046875,0.9053149223327637,0.9461932182312012,0.6331478953361511
1720785174807337000,3.4673369140625,0.8350095152854919,0.6809502243995667,0.2975994646549225
1720785174817350700,3.4773505859375,0.4557865858078003,0.2729659676551819,-0.04327509179711342
1720785174827364400,3.4873642578125,0.16604319214820862,-0.06471290439367294,-0.4267589747905731
1720785174837378300,3.49737841796875,0.2011958807706833,-0.21384553611278534,-0.7219616770744324
1720785174847392000,3.50739208984375,0.3194367587566376,0.6671021580696106,-0.9733566641807556
1720785174857406000,3.517406005859375,0.11171631515026093,3.088376760482788,-1.9746757745742798
1720785174867419600,3.527419677734375,0.09573781490325928,3.762669324874878,-2.5477709770202637
1720785174877433300,3.537433349609375,-0.041677240282297134,4.263329029083252,-1.7499115467071533
1720785174887447300,3.547447265625,-0.2366148829460144,3.79036545753479,-0.7347444891929626
1720785174897461000,3.5574609375,-0.34952959418296814,2.166950225830078,-0.2573869228363037
1720785174907475000,3.567474853515625,-0.08961272984743118,0.5126433968544006,0.08029194176197052
1720785174917488600,3.577488525390625,0.25658801198005676,-0.025299284607172012,0.4158403277397156
1720785174927502600,3.587502685546875,0.3780245780944824,0.5989272594451904,0.5671034455299377
1720785174937516300,3.597516357421875,0.2736317217350006,1.2146319150924683,0.37429624795913696
1720785174947530000,3.607530029296875,0.058454662561416626,1.8559021949768066,0.09946613013744354
1720785174957544000,3.6175439453125,-0.12476541846990585,2.705958127975464,-0.02623136341571808
1720785174967557600,3.6275576171875,-0.24407151341438293,3.0265934467315674,-0.0454055592417717
1720785174977571600,3.637571533203125,-0.2792242169380188,2.561086416244507,0.06431344151496887
1720785174987585300,3.647585205078125,-0.2568543255329132,1.990121603012085,0.29120808839797974
1720785174997599000,3.657598876953125,-0.14500483870506287,1.41489577293396,0.5457987785339355
1720785175007613000,3.667613037109375,0.06484606117010117,0.6436670422554016,0.7055837512016296
1720785175017626600,3.677626708984375,0.23847904801368713,-0.11477886140346527,0.7620410919189453
1720785175027640600,3.687640625,0.28854498267173767,-0.3267602324485779,0.7290188670158386
1720785175037654300,3.697654296875,0.3492632806301117,0.014114337973296642,0.6523220539093018
1720785175047668200,3.707668212890625,0.4792217016220093,0.33155378699302673,0.5617772936820984
1720785175057682200,3.71768212890625,0.5218310356140137,0.4604469835758209,0.5489944815635681
1720785175067695900,3.72769580078125,0.48028692603111267,0.5648398399353027,0.6011908650398254
1720785175077709800,3.737709716796875,0.4675041437149048,0.4860125780105591,0.6608439087867737
1720785175087723500,3.7477236328125,0.40678587555885315,0.0908111184835434,0.6661701202392578
1720785175097737500,3.757737548828125,0.2842840552330017,-0.5655055642127991,0.5788210034370422
1720785175107751400,3.76775146484375,0.14899946749210358,-0.9308804869651794,0.4030575454235077
1720785175117765000,3.77776513671875,-0.041677240282297134,-0.8360747694969177,0.1889457106590271
1720785175127779000,3.787779052734375,-0.18548369407653809,-0.6592460870742798,-0.14660269021987915
1720785175137792800,3.797792724609375,-0.12263495475053787,-0.3609808385372162,-0.5812177658081055
1720785175147806700,3.807806640625,0.09680305421352386,-0.2500634491443634,-0.9264864325523376
1720785175157820700,3.817820556640625,0.22250054776668549,-0.3438039720058441,-0.9840090274810791
1720785175167834400,3.82783447265625,0.34500235319137573,-0.2074541300535202,-0.5769568085670471
1720785175177848300,3.837848388671875,0.3705679476261139,-0.18082331120967865,0.05898727849125862
1720785175187862300,3.8478623046875,0.33435001969337463,-0.2830856740474701,0.3828181326389313
1720785175197876000,3.8578759765625,0.1138467788696289,-0.3224993050098419,0.23688119649887085
1720785175207890000,3.867889892578125,-0.25046291947364807,-0.14993155002593994,-0.10292813926935196
1720785175217903600,3.877903564453125,-0.5721632838249207,-0.09240896254777908,-0.29467007517814636
1720785175227917600,3.88791748046875,-0.7979927062988281,-0.12756165862083435,-0.19027724862098694
1720785175237931500,3.897931640625,-0.7649704813957214,0.03328853100538254,0.012117025442421436
1720785175247945200,3.9079453125,-0.5167711973190308,-0.05938674136996269,0.17296721041202545
1720785175257959200,3.917959228515625,-0.21317975223064423,-0.11797455698251724,0.22303315997123718
1720785175267972900,3.927972900390625,-0.04913387447595596,-0.3801550269126892,0.29014283418655396
1720785175277986800,3.93798681640625,-0.10133028775453568,-0.1328878253698349,0.19533710181713104
1720785175288000800,3.948000732421875,-0.27496325969696045,0.0023967742454260588,0.06644391268491745
1720785175298014500,3.958014404296875,-0.4496614933013916,-0.24260681867599487,-0.16897258162498474
1720785175308028400,3.9680283203125,-0.6733604073524475,-0.07216953486204147,-0.416106641292572
1720785175318042000,3.9780419921875,-0.7958621978759766,0.0588541254401207,-0.6099790334701538
1720785175328056000,3.98805615234375,-0.9151683449745178,0.16857312619686127,-0.7198312282562256
1720785175338069800,3.99806982421875,-0.9673647284507751,0.20159535109996796,-0.7219616770744324
1720785175348083500,4.00808349609375,-0.9535167217254639,0.3368799388408661,-0.6921351552009583
1720785175358097400,4.018097412109375,-0.8885374665260315,0.44659894704818726,-0.5790873169898987
1720785175368111000,4.028111083984375,-0.8565804958343506,0.6191666722297668,-0.46404212713241577
1720785175378125000,4.038125,-0.8139711618423462,0.7533860802650452,-0.38095396757125854
1720785175388138800,4.048138671875,-0.7415353655815125,0.6266233325004578,-0.289343923330307
1720785175398152400,4.05815234375,-0.7969274520874023,0.8002563118934631,-0.09760197252035141
1720785175408166400,4.06816650390625,-1.1133016347885132,1.3669602870941162,0.13142313063144684
1720785175418180000,4.07818017578125,-1.3338048458099365,1.5171581506729126,0.1878804713487625
1720785175428194000,4.088194091796875,-1.4190235137939453,1.2785459756851196,0.15272778272628784
1720785175438207700,4.098207763671875,-1.2773475646972656,0.7736254930496216,0.21238084137439728
1720785175448221700,4.1082216796875,-0.8885374665260315,0.1760297566652298,0.005725627299398184
1720785175458235400,4.1182353515625,-0.4848141670227051,0.04394086077809334,-0.27443066239356995
1720785175468249000,4.1282490234375,-0.26537618041038513,0.39546775817871094,-0.3884105980396271
1720785175478263000,4.138262939453125,-0.4155740439891815,0.4977301359176636,-0.28721344470977783
1720785175488276700,4.14827685546875,-0.5647066831588745,0.06524552404880524,-0.0880148783326149
1720785175498290700,4.158290771484375,-0.35805144906044006,-0.1765623688697815,-0.04114462435245514
1720785175508304400,4.168304443359375,-0.040612008422613144,-0.12862688302993774,-0.18175537884235382
1720785175518318000,4.178318115234375,0.18202169239521027,-0.002929390873759985,-0.34686651825904846
1720785175528332000,4.18833203125,0.2640446424484253,0.22076953947544098,-0.36071452498435974
1720785175538345700,4.198345703125,0.2938711643218994,0.39653298258781433,-0.28721344470977783
1720785175548359700,4.208359619140625,0.2768274247646332,0.39333727955818176,-0.2552564740180969
1720785175558373400,4.218373291015625,0.16391272842884064,0.28681400418281555,-0.22969086468219757
1720785175568387300,4.22838720703125,0.031823836266994476,-0.002929390873759985,-0.33727940917015076
1720785175578401000,4.238401123046875,0.15006470680236816,-0.17869283258914948,-0.3213009238243103
1720785175588414700,4.248414794921875,0.484547883272171,-0.22662831842899323,-0.20945143699645996
1720785175598428700,4.2584287109375,0.6400718688964844,-0.1744319051504135,-0.0773625448346138
1720785175608442400,4.2684423828125,0.6677679419517517,-0.2170412242412567,0.10798799991607666
1720785175618456300,4.278456298828125,0.5708317756652832,-0.29693371057510376,0.16338011622428894
1720785175628470000,4.288469970703125,0.4579170346260071,-0.28734660148620605,0.08135717362165451
1720785175638483700,4.298483642578125,0.32476291060447693,-0.24899822473526,-0.02197043038904667
1720785175648497700,4.30849755859375,0.19800019264221191,-0.22130216658115387,-0.02729659713804722
1720785175658511400,4.318511474609375,0.11171631515026093,-0.14780108630657196,0.01957365684211254
1720785175668525300,4.328525390625,0.07762885838747025,-0.04660394415259361,0.05259587988257408
1720785175678539000,4.3385390625,0.08934641629457474,-0.012516488321125507,0.08348763734102249
1720785175688552700,4.348552734375,0.1351514458656311,0.06311506032943726,0.11331415921449661
1720785175698566700,4.358566650390625,0.3716331720352173,0.008788172155618668,0.24433782696723938
1720785175708580400,4.368580322265625,0.447264701128006,-0.12010502070188522,0.31251272559165955
1720785175718594300,4.37859423828125,0.29919731616973877,-0.10838746279478073,0.24007689952850342
1720785175728608000,4.38860791015625,0.08721595257520676,0.010918638668954372,0.04620448127388954
1720785175738622000,4.3986220703125,0.1692388951778412,-0.1541924774646759,-0.06884068250656128
1720785175748635600,4.4086357421875,0.4121120274066925,0.18135592341423035,0.05579157918691635
1720785175758649300,4.4186494140625,0.4142425060272217,0.4540555775165558,0.15272778272628784
1720785175768663300,4.428663330078125,-0.151396244764328,0.7267552018165588,0.0504654161632061
1720785175778677000,4.438677001953125,-0.24194104969501495,0.4497946500778198,-0.1519288569688797
1720785175788691000,4.44869091796875,-0.033155377954244614,-0.16910573840141296,-0.2467346042394638
1720785175798704600,4.45870458984375,0.033954303711652756,0.018375270068645477,-0.17110306024551392
1720785175808718300,4.46871826171875,0.031823836266994476,-0.03169068321585655,-0.02197043038904667
1720785175818732300,4.478732177734375,0.054193731397390366,-0.20319320261478424,0.05898727849125862
1720785175828746000,4.48874609375,0.09041165560483932,-0.025299284607172012,0.0611177459359169
1720785175838760000,4.498760009765625,0.17563030123710632,0.2825530469417572,0.05472634732723236
1720785175848773600,4.508773681640625,0.23421810567378998,-0.018907885998487473,0.22516362369060516
1720785175858787600,4.51878759765625,0.1788259893655777,-0.4738955497741699,0.30931705236434937
1720785175868801300,4.52880126953125,0.057389430701732635,-0.5910711884498596,0.1569887101650238
1720785175878815000,4.53881494140625,-0.18015754222869873,-0.6134410500526428,0.04087831825017929
1720785175888829000,4.548828857421875,-0.22276686131954193,-0.7604432106018066,-0.03794892504811287
1720785175898842600,4.558842529296875,-0.11730878800153732,-0.7551170587539673,-0.07523208111524582
1720785175908856600,4.568856689453125,-0.050199106335639954,-1.0054467916488647,-0.0347532257437706
1720785175918870300,4.578870361328125,0.050998032093048096,-1.3995829820632935,0.03448691964149475
1720785175928884000,4.588884033203125,0.15112993121147156,-1.0597736835479736,0.08774857223033905
1720785175938898000,4.59889794921875,0.08721595257520676,-0.26391148567199707,0.05153064802289009
1720785175948911600,4.60891162109375,-0.08215609937906265,0.4870778024196625,-0.0347532257437706
1720785175958925600,4.618925537109375,-0.33674678206443787,1.1986534595489502,-0.24247366189956665
1720785175968939300,4.628939208984375,-0.7063826322555542,1.8090319633483887,-0.6334142088890076
1720785175978953200,4.638953125,-0.8619066476821899,2.4684112071990967,-0.9605738520622253
1720785175988967000,4.648966796875,-0.45498764514923096,2.3533661365509033,-0.8742899894714355
1720785175998980600,4.658980712890625,0.18628261983394623,1.3722864389419556,-0.5769568085670471
1720785176008994600,4.66899462890625,0.4227643609046936,-0.17762760818004608,-0.1519288569688797
1720785176019008300,4.67900830078125,0.17989122867584229,-1.6104991436004639,0.18681524693965912
1720785176029022200,4.689022216796875,-0.15033100545406342,-2.8696045875549316,0.4669715166091919
1720785176039036000,4.699035888671875,-0.18015754222869873,-3.8709237575531006,0.5852124094963074
1720785176049049600,4.709049560546875,0.21291345357894897,-4.024317264556885,0.5596467852592468
1720785176059063600,4.7190634765625,0.7955959439277649,-3.9231200218200684,0.7939980626106262
1720785176069077200,4.7290771484375,0.9383371472358704,-4.426975250244141,1.2690919637680054
1720785176079091200,4.73909130859375,0.7732260227203369,-4.584630012512207,1.4246159791946411
1720785176089105000,4.74910498046875,0.8169005513191223,-4.421648979187012,1.2903966903686523
1720785176099118600,4.75911865234375,0.8041177988052368,-3.7164647579193115,0.9782834053039551
1720785176109132500,4.769132568359375,0.8850755095481873,-2.54577374458313,0.7535192370414734
1720785176119146200,4.779146240234375,1.200384497642517,-2.9260618686676025,0.84193354845047
1720785176129160200,4.78916015625,1.60850191116333,-4.338561058044434,0.9804138541221619
1720785176139174000,4.799173828125,1.5999799966812134,-4.317256450653076,1.3958547115325928
1720785176149187800,4.809187744140625,1.2078410387039185,-2.886648416519165,1.7580339908599854
1720785176159201500,4.819201416015625,0.6613765358924866,-2.0557665824890137,1.3489844799041748
1720785176169215200,4.82921533203125,0.18202169239521027,-2.0057005882263184,0.6661701202392578
1720785176179229200,4.839229248046875,-0.11730878800153732,-2.0568318367004395,0.12077079713344574
1720785176189243000,4.849242919921875,-0.21104928851127625,-1.8586984872817993,-0.16577689349651337
1720785176199256800,4.8592568359375,-0.2909417748451233,-1.3356690406799316,-0.36071452498435974
1720785176209270500,4.8692705078125,-0.5220973491668701,-0.6517894268035889,-0.5535216927528381
1720785176219284200,4.8792841796875,-0.7756227850914001,0.08655018359422684,-0.7986584305763245
1720785176229298200,4.889298095703125,-0.8832113146781921,1.152848482131958,-0.9893351793289185
1720785176239312000,4.899311767578125,-0.6350120306015015,2.2500383853912354,-0.8391373157501221
1720785176249325800,4.909325927734375,-0.3133116662502289,3.088376760482788,-0.5684349536895752
1720785176259339500,4.919339599609375,0.024367205798625946,3.088376760482788,-0.44593316316604614
1720785176269353500,4.929353515625,0.3716331720352173,2.092383861541748,-0.500260055065155
1720785176279367200,4.9393671875,0.534613847732544,0.8833444714546204,-0.5556522011756897
1720785176289380900,4.949380859375,0.5665708184242249,0.03861469775438309,-0.5279561281204224
1720785176299394800,4.959394775390625,0.5985277891159058,-0.1978670358657837,-0.4523245692253113
1720785176309408500,4.969408447265625,0.7220948338508606,-0.011451254598796368,-0.3404751121997833
1720785176319422500,4.97942236328125,0.9010539650917053,0.4860125780105591,-0.10718907415866852
1720785176329436200,4.989436279296875,0.7945306897163391,1.0133029222488403,0.08987903594970703
1720785176339449900,4.999449951171875,0.7806826233863831,1.0761516094207764,0.17083674669265747
1720785176349463800,5.0094638671875,0.6762897968292236,0.8300828337669373,0.2645772397518158
1720785176359477500,5.0194775390625,0.4738955497741699,0.27509641647338867,0.38601380586624146
1720785176369491500,5.029491455078125,0.2736317217350006,-0.272433340549469,0.47975432872772217
1720785176379505200,5.039505126953125,0.08828118443489075,-0.41637295484542847,0.4669715166091919
1720785176389519000,5.04951904296875,0.06697652488946915,-0.08495233207941055,0.4158403277397156
1720785176399532800,5.05953271484375,0.14793424308300018,0.4955996572971344,0.5489944815635681
1720785176409546500,5.06954638671875,0.19054356217384338,1.1176958084106445,0.7332797646522522
1720785176419560400,5.079560546875,0.21717438101768494,1.377612590789795,0.7854762077331543
1720785176429574100,5.08957421875,0.33221954107284546,1.2380670309066772,0.8728253245353699
1720785176439588000,5.099588134765625,0.3897421360015869,1.0899996757507324,0.9346088171005249
1720785176449601800,5.109601806640625,0.4131772518157959,1.344590425491333,0.7226274609565735
1720785176459615700,5.11961572265625,0.23421810567378998,1.5427237749099731,0.3572525382041931
1720785176469629400,5.12962939453125,-0.041677240282297134,1.3531122207641602,-0.04860125854611397
1720785176479643400,5.139643310546875,-0.44433531165122986,0.8503222465515137,-0.6505910754203796
1720785176489657000,5.149656982421875,-0.9694951772689819,0.3038577139377594,-1.2439258098602295
1720785176499671000,5.159671142578125,-1.35084867477417,0.020505735650658607,-1.3994499444961548
1720785176509685000,5.16968505859375,-1.6235482692718506,-0.5527228116989136,-1.1469897031784058
1720785176519698700,5.17969873046875,-1.675744652748108,-1.392126441001892,-0.7422010898590088
1720785176529712600,5.189712646484375,-1.588395595550537,-1.6296733617782593,-0.4363460838794708
1720785176539726600,5.1997265625,-1.3860013484954834,-1.5103672742843628,-0.4288894534111023
1720785176549740300,5.209740234375,-1.1420629024505615,-1.0310124158859253,-0.38201919198036194
1720785176559754200,5.219754150390625,-0.9758865833282471,-0.2298240214586258,-0.16897258162498474
1720785176569768000,5.229767822265625,-0.7479267120361328,0.3230319023132324,0.07390054315328598
1720785176579782000,5.239781982421875,-0.49972742795944214,0.5456656217575073,0.20492419600486755
1720785176589795800,5.2497958984375,-0.37083426117897034,0.9312799572944641,0.12077079713344574
1720785176599809500,5.2598095703125,-0.23128871619701385,1.299850583076477,-0.004926702938973904
1720785176609823500,5.269823486328125,-0.043807707726955414,1.4468528032302856,0.0025299284607172012
1720785176619837200,5.279837158203125,0.1692388951778412,1.3637645244598389,0.10692276805639267
1720785176629851100,5.28985107421875,0.3279586136341095,1.2774807214736938,0.14207544922828674
1720785176639865000,5.299864990234375,0.40998154878616333,1.115565299987793,0.14953207969665527
1720785176649878800,5.309878662109375,0.4770912528038025,0.8215609788894653,0.14314068853855133
1720785176659892700,5.319892822265625,0.5612446665763855,0.4764254689216614,0.0717700719833374
1720785176669906700,5.32990673828125,0.7604432106018066,0.1877473145723343,0.08135717362165451
1720785176679920400,5.33992041015625,0.9362066984176636,0.07483261823654175,0.11650986224412918
1720785176689934300,5.349934326171875,0.9404675960540771,0.07696308940649033,0.11970555782318115
1720785176699948000,5.359947998046875,0.484547883272171,0.12915951013565063,0.2411421239376068
1720785176709962000,5.3699619140625,0.20865251123905182,0.1653774231672287,0.2432725876569748
1720785176719976000,5.379975830078125,0.1681736707687378,0.005592473316937685,0.23901166021823883
1720785176729989600,5.38998974609375,0.08721595257520676,0.0023967742454260588,0.16018441319465637
1720785176740003600,5.400003662109375,0.038215234875679016,0.07589785009622574,-0.01983996480703354
1720785176750017300,5.410017333984375,0.013714875094592571,-0.04660394415259361,-0.15938548743724823
1720785176760031200,5.42003125,0.029693370684981346,-0.2628462612628937,-0.14766792953014374
1720785176770045000,5.430044921875,0.060585130006074905,-0.512243926525116,-0.05392742156982422
1720785176780059000,5.440058837890625,0.13728190958499908,-0.484547883272171,0.0185084231197834
1720785176790072600,5.450072509765625,0.24380521476268768,-0.19467133283615112,0.014247491955757141
1720785176800086300,5.460086181640625,0.3918725848197937,-0.05086487531661987,0.09840089827775955
1720785176810100200,5.470100341796875,0.549527108669281,-0.19041040539741516,0.4147751033306122
1720785176820114000,5.480114013671875,0.657115638256073,-0.1446053832769394,0.6906704902648926
1720785176830127900,5.4901279296875,0.6848116517066956,0.14194230735301971,0.7503235340118408
1720785176840141600,5.5001416015625,0.6645722389221191,0.16857312619686127,0.6565830111503601
1720785176850155300,5.5101552734375,0.6251586079597473,-0.33208638429641724,0.48401525616645813
1720785176860169200,5.520169189453125,0.6102453470230103,-0.8360747694969177,0.2869471311569214
1720785176870183000,5.530182861328125,0.587875485420227,-0.9138367772102356,0.13994498550891876
1720785176880196900,5.54019677734375,0.5612446665763855,-0.5718969702720642,0.14953207969665527
1720785176890210600,5.55021044921875,0.5644403696060181,-0.10306129604578018,0.3306216895580292
1720785176900224500,5.560224609375,0.5750926733016968,0.51796954870224,0.4872109591960907
1720785176910238200,5.57023828125,0.6177020072937012,1.0292813777923584,0.4456668794155121
1720785176920252000,5.580251953125,0.6230281591415405,1.0953258275985718,0.35299158096313477
1720785176930265900,5.590265869140625,0.6475285291671753,1.0441946983337402,0.37323102355003357
1720785176940279600,5.600279541015625,0.6901378631591797,1.1421960592269897,0.5585815906524658
1720785176950293500,5.61029345703125,0.6837464570999146,1.1911967992782593,0.7780195474624634
1720785176960307200,5.62030712890625,0.618767261505127,1.03141188621521,0.9239565134048462
1720785176970321000,5.63032080078125,0.6251586079597473,0.8290175795555115,0.9346088171005249
1720785176980334800,5.6403349609375,0.7114425301551819,0.8130391240119934,0.8248898386955261
1720785176990348500,5.6503486328125,0.7966611385345459,0.625558078289032,0.7173013091087341
1720785177000362200,5.6603623046875,0.8808145523071289,0.28894445300102234,0.6832138299942017
1720785177010376000,5.6703759765625,0.887205958366394,0.0034620072692632675,0.7641715407371521
1720785177020390000,5.680389892578125,0.8477923274040222,-0.30865126848220825,0.8888037800788879
1720785177030403600,5.690403564453125,0.7519213557243347,-0.5005263686180115,0.9825443029403687
1720785177040417300,5.700417236328125,0.6613765358924866,-0.512243926525116,0.9718919992446899
1720785177050431000,5.710430908203125,0.6134410500526428,-0.38654643297195435,0.8941299915313721
1720785177060445000,5.72044482421875,0.7018554210662842,-0.2713681161403656,0.9015865921974182
1720785177070458600,5.730458740234375,0.8403357267379761,-0.24260681867599487,0.9665657877922058
1720785177080472300,5.740472412109375,0.8382052183151245,-0.3118469715118408,0.9772181510925293
1720785177090486000,5.750486083984375,0.7732260227203369,-0.404655396938324,0.8983908891677856
1720785177100499700,5.760499755859375,0.7870740294456482,-0.5175700783729553,0.8270202875137329
1720785177110513700,5.770513671875,0.7678998708724976,-0.6624417901039124,0.8579120635986328
1720785177120527400,5.78052734375,0.6539199352264404,-0.6762897968292236,0.9101084470748901
1720785177130541000,5.790541015625,0.45898228883743286,-0.5825493335723877,0.9111737012863159
1720785177140554800,5.8005546875,0.2416747361421585,-0.4792217016220093,0.8493902087211609
1720785177150568400,5.810568359375,0.0712374597787857,-0.3726983964443207,0.7780195474624634
1720785177160582400,5.82058251953125,-0.011850717477500439,-0.4461994767189026,0.7481930255889893
1720785177170596000,5.83059619140625,-0.0555252730846405,-0.549527108669281,0.7769543528556824
1720785177180609800,5.84060986328125,-0.053394805639982224,-0.5825493335723877,0.8493902087211609
1720785177190623500,5.85062353515625,-0.027829213067889214,-0.5218310356140137,0.9111737012863159
1720785177200637200,5.86063720703125,-0.07363422960042953,-0.4014596939086914,0.856846809387207
1720785177210651100,5.870651123046875,-0.11624355614185333,-0.30971649289131165,0.6928009390830994
1720785177220664800,5.880664794921875,-0.1396786868572235,-0.5207657814025879,0.5351464152336121
1720785177230678500,5.890678466796875,-0.15352670848369598,-0.8967930674552917,0.42968836426734924
1720785177240692200,5.900692138671875,-0.16524426639080048,-0.9553808569908142,0.3082517981529236
1720785177250706200,5.9107060546875,-0.16417904198169708,-0.7987915873527527,0.17509767413139343
1720785177260719900,5.920719970703125,-0.15885287523269653,-0.8360747694969177,0.09733566641807556
1720785177270733600,5.930733642578125,-0.16098333895206451,-0.9212934374809265,0.06963960826396942
1720785177280747300,5.940747314453125,-0.14393961429595947,-0.8765535950660706,0.04194355010986328
1720785177290761000,5.950760986328125,-0.12689588963985443,-1.0267515182495117,0.02063889056444168
1720785177300775000,5.96077490234375,-0.16524426639080048,-1.1151658296585083,-0.02516612969338894
1720785177310788600,5.97078857421875,-0.2259625494480133,-0.8669665455818176,-0.14979839324951172
1720785177320802300,5.98080224609375,-0.23022349178791046,-0.484547883272171,-0.31810522079467773
1720785177330816300,5.990816162109375,-0.237680122256279,-0.47283029556274414,-0.43528082966804504
1720785177340830000,6.000829833984375,-0.32822492718696594,-0.6432675719261169,-0.48534679412841797
1720785177350844000,6.010843994140625,-0.3836170434951782,-0.9042496681213379,-0.4267589747905731
1720785177360857600,6.020857666015625,-0.3750951886177063,-1.1641665697097778,-0.30638766288757324
1720785177370871300,6.030871337890625,-0.41237834095954895,-1.1790797710418701,-0.2563216984272003
1720785177380885200,6.04088525390625,-0.43474823236465454,-0.9149020314216614,-0.312779039144516
1720785177390899000,6.05089892578125,-0.4155740439891815,-0.5761579275131226,-0.4299546778202057
1720785177400913000,6.060912841796875,-0.343138188123703,-0.4227643609046936,-0.5034557580947876
1720785177410926600,6.070926513671875,-0.17589659988880157,-0.3256950080394745,-0.5396736860275269
1720785177420940500,6.0809404296875,-0.07576470077037811,-0.2713681161403656,-0.5354127287864685
1720785177430954200,6.090954345703125,-0.07896039634943008,-0.33954301476478577,-0.4800206422805786
1720785177440968000,6.100968017578125,-0.18015754222869873,-0.22023692727088928,-0.4480636417865753
1720785177450982000,6.11098193359375,-0.3314206302165985,0.03541899845004082,-0.4725640118122101
1720785177460995600,6.12099560546875,-0.48800987005233765,0.0801587849855423,-0.42249804735183716
1720785177471009500,6.131009521484375,-0.6062507629394531,0.025831900537014008,-0.289343923330307
1720785177481023200,6.141023193359375,-0.6115769147872925,0.17176882922649384,-0.19134248793125153
1720785177491037000,6.151036865234375,-0.4720313847064972,0.39227205514907837,-0.16471165418624878
1720785177501051000,6.16105078125,-0.23981058597564697,0.671363115310669,-0.18601632118225098
1720785177511064600,6.171064697265625,-0.10985215753316879,0.9717588424682617,-0.19027724862098694
1720785177521078500,6.18107861328125,-0.043807707726955414,1.2881330251693726,-0.10612384229898453
1720785177531092200,6.19109228515625,0.058454662561416626,1.5139623880386353,-0.03049229457974434
1720785177541106200,6.201106201171875,-0.037416309118270874,1.6194205284118652,-0.03049229457974434
1720785177551120000,6.211119873046875,-0.27389803528785706,1.636464238166809,-0.05179695412516594
1720785177561133600,6.221133544921875,-0.530619204044342,1.6268771886825562,0.007856093347072601
1720785177571147500,6.2311474609375,-0.5913375020027161,1.6151596307754517,0.05685681104660034
1720785177581161200,6.2411611328125,-0.5029231309890747,1.700378179550171,0.02703028731048107
1720785177591175200,6.251175048828125,-0.3995955288410187,1.5874634981155396,0.011051792651414871
1720785177601188900,6.26118896484375,-0.2142449915409088,1.3733516931533813,-0.03688369318842888
1720785177611202600,6.27120263671875,-0.010785484686493874,1.246588945388794,-0.17110306024551392
1720785177621216500,6.281216552734375,0.10639014840126038,1.1645660400390625,-0.3564535975456238
1720785177631230200,6.291230224609375,0.18734785914421082,1.0889344215393066,-0.5066514611244202
1720785177641244200,6.301244140625,0.21291345357894897,1.00052011013031,-0.5577826499938965
1720785177651257900,6.3112578125,0.09680305421352386,0.7629731297492981,-0.5268908739089966
1720785177661271800,6.321271728515625,-0.067242830991745,0.4870778024196625,-0.4384765326976776
1720785177671285500,6.331285400390625,-0.12263495475053787,0.2623136341571808,-0.2712349593639374
1720785177681299200,6.34129931640625,-0.10985215753316879,0.2069215178489685,-0.15405932068824768
1720785177691313200,6.351313232421875,-0.12263495475053787,0.23035664856433868,-0.1412765234708786
1720785177701326800,6.361326904296875,-0.17483137547969818,0.26657456159591675,-0.2264951765537262
1720785177711340800,6.3713408203125,-0.2153102308511734,0.26550933718681335,-0.35006219148635864
1720785177721354500,6.3813544921875,-0.2057231217622757,0.2090519815683365,-0.47789016366004944
1720785177731368200,6.3913681640625,-0.18974463641643524,0.17283405363559723,-0.6227618455886841
1720785177741382100,6.401382080078125,-0.172700896859169,0.19307348132133484,-0.740070641040802
1720785177751395800,6.411395751953125,-0.17483137547969818,0.13448566198349,-0.763505756855011
1720785177761409800,6.421409912109375,-0.17802706360816956,-0.10732222348451614,-0.6452649235725403
1720785177771423500,6.431423583984375,-0.15778763592243195,-0.37482887506484985,-0.4395417869091034
1720785177781437200,6.441437255859375,0.19800019264221191,-0.06471290439367294,-0.481085866689682
1720785177791451100,6.451451171875,0.6784203052520752,0.9504541754722595,-0.6537867784500122
1720785177801464800,6.46146484375,0.39826399087905884,0.6053186655044556,-0.2989310026168823
1720785177811478800,6.471478759765625,0.060585130006074905,0.031158065423369408,0.10585752874612808
1720785177821492500,6.481492431640625,-0.13222205638885498,-0.14034445583820343,0.25605538487434387
1720785177831506400,6.49150634765625,-0.20359265804290771,-0.1115831583738327,0.20492419600486755
1720785177841520000,6.50152001953125,-0.24087581038475037,-0.05086487531661987,0.13248835504055023
1720785177851533800,6.511533935546875,-0.23235395550727844,-0.06045197322964668,0.09413997083902359
1720785177861547800,6.5215478515625,-0.19826649129390717,-0.09986559301614761,0.09520520269870758
1720785177871561500,6.5315615234375,-0.15991811454296112,-0.1754971444606781,0.11864032596349716
1720785177881575400,6.541575439453125,-0.1087869256734848,-0.15951864421367645,0.13355359435081482
1720785177891589000,6.551589111328125,-0.019307348877191544,-0.3022598624229431,0.2432725876569748
1720785177901602800,6.561602783203125,-0.08215609937906265,-1.97693932056427,0.9005213379859924
1720785177911616800,6.57161669921875,-0.172700896859169,-1.2089062929153442,0.7247579097747803
1720785177921630500,6.58163037109375,-0.11517832428216934,-0.35245898365974426,0.3583177626132965
1720785177931644400,6.59164453125,-0.09706936031579971,-0.6017234921455383,0.22516362369060516
1720785177941658000,6.601658203125,-0.0778951644897461,-1.0192948579788208,0.2613815665245056
1720785177951672000,6.611672119140625,0.06697652488946915,-1.170557975769043,0.3061213493347168
1720785177961685800,6.621685791015625,0.25658801198005676,-1.163101315498352,0.23901166021823883
1720785177971699500,6.631699462890625,0.3886769115924835,-1.4805407524108887,0.12183602899312973
1720785177981713400,6.64171337890625,0.41850343346595764,-1.8863945007324219,0.011051792651414871
1720785177991727000,6.65172705078125,0.33435001969337463,-1.9598956108093262,0.04194355010986328
1720785178001741000,6.661740966796875,0.19373925030231476,-1.5284762382507324,0.12290126085281372
1720785178011754800,6.671754638671875,0.17349982261657715,-0.9468590021133423,0.10692276805639267
1720785178021768400,6.6817685546875,0.22250054776668549,-0.34060826897621155,0.02916075475513935
1720785178031782100,6.6917822265625,0.2864145338535309,0.2825530469417572,-0.11677616834640503
1720785178041796000,6.701796142578125,0.24913136661052704,0.3049229383468628,-0.09334104508161545
1720785178051809800,6.711809814453125,0.2427399754524231,0.2942706346511841,-0.11677616834640503
1720785178061823500,6.721823486328125,0.11065108329057693,0.4327509105205536,-0.17003782093524933
1720785178071837200,6.731837158203125,-0.11730878800153732,0.43594661355018616,-0.22116900980472565
1720785178081851000,6.741850830078125,-0.23128871619701385,0.3049229383468628,-0.22010377049446106
1720785178091864800,6.75186474609375,-0.1418091505765915,0.09400681406259537,-0.1402112990617752
1720785178101878500,6.76187841796875,0.03288906812667847,-0.3469996452331543,0.009986559860408306
1720785178111892200,6.771892333984375,0.14260807633399963,-0.4216991364955902,0.02916075475513935
1720785178121906000,6.781906005859375,0.19586972892284393,-0.4323514401912689,0.09200949966907501
1720785178131920000,6.791919921875,0.2416747361421585,-0.32036882638931274,0.17616291344165802
1720785178141933600,6.80193359375,0.28854498267173767,-0.4248948097229004,0.20492419600486755
1720785178151947300,6.811947265625,0.3833507299423218,-0.8808145523071289,0.20279373228549957
1720785178161961000,6.8219609375,0.5836145281791687,-1.6179558038711548,0.2006632685661316
1720785178171974700,6.831974609375,0.8754884004592896,-2.212355852127075,0.20705467462539673
1720785178181988600,6.841988525390625,1.0150339603424072,-2.466946601867676,0.26670771837234497
1720785178192002300,6.852002197265625,1.0011858940124512,-2.2954440116882324,0.305056095123291
1720785178202016000,6.86201611328125,0.9553808569908142,-2.1825292110443115,0.2528596818447113
1720785178212029700,6.87202978515625,1.0597736835479736,-2.1271371841430664,0.20279373228549957
1720785178222043400,6.88204345703125,1.287733554840088,-2.1772031784057617,0.14846685528755188
1720785178232057300,6.892057373046875,1.4571056365966797,-2.3242053985595703,0.1985328048467636
1720785178242071000,6.902071044921875,1.4986497163772583,-2.474403142929077,0.2848166823387146
1720785178252084700,6.912084716796875,1.3377995491027832,-2.2847917079925537,0.2869471311569214
1720785178262098400,6.922098388671875,1.2653636932373047,-1.9556347131729126,0.26031631231307983
1720785178272112400,6.9321123046875,1.139666199684143,-1.7298052310943604,0.24646829068660736
1720785178282126000,6.9421259765625,1.0874698162078857,-1.5007802248001099,0.285881906747818
1720785178292139800,6.952139892578125,1.0619041919708252,-1.3516474962234497,0.24966399371623993
1720785178302153500,6.962153564453125,0.8861407041549683,-1.2674942016601562,0.15272778272628784
1720785178312167200,6.972167236328125,0.7231600880622864,-1.1194267272949219,0.04940018057823181
1720785178322181000,6.98218115234375,0.48135218024253845,-0.7604432106018066,-0.011318100616335869
1720785178332194800,6.99219482421875,0.3481980562210083,-0.5591141581535339,-0.04860125854611397
1720785178342208500,7.00220849609375,0.3460675776004791,-0.8999887704849243,-0.04114462435245514
1720785178352222200,7.01222216796875,0.381220281124115,-1.1758841276168823,-0.03049229457974434
1720785178362236000,7.02223583984375,0.26830556988716125,-1.1204919815063477,0.0003994623839389533
1720785178372249900,7.032249755859375,0.1564560979604721,-0.9937292337417603,0.04087831825017929
1720785178382263600,7.042263671875,0.08828118443489075,-0.7220948338508606,0.04300878196954727
1720785178392277200,7.05227734375,0.011584409512579441,-0.4579170346260071,0.05579157918691635
1720785178402291000,7.062291015625,0.008388710208237171,-0.4675041437149048,0.07070484012365341
1720785178412305000,7.072304931640625,-0.06404713541269302,-0.5793536305427551,0.12290126085281372
1720785178422318600,7.082318603515625,-0.0778951644897461,-0.49306973814964294,0.10479229688644409
1720785178432332300,7.092332275390625,0.1351514458656311,-0.4675041437149048,0.0003994623839389533
1720785178442346200,7.10234619140625,0.27043604850769043,-0.5644403696060181,-0.05073172226548195
1720785178452360000,7.11235986328125,0.3066539466381073,-0.7071815729141235,-0.12316756695508957
1720785178462374000,7.122373779296875,0.19373925030231476,-0.9596418142318726,-0.18814678490161896
1720785178472387600,7.1323876953125,-0.023568280041217804,-1.156709909439087,-0.1956034153699875
1720785178482401500,7.142401611328125,-0.2259625494480133,-1.317560076713562,-0.13808083534240723
1720785178492415200,7.152415283203125,-0.32929015159606934,-1.2717550992965698,-0.04220985993742943
1720785178502429000,7.162428955078125,-0.031024912372231483,-0.8169005513191223,-0.03262276202440262
1720785178512443000,7.17244287109375,0.2416747361421585,-0.5846797823905945,0.0824224054813385
1720785178522456600,7.18245654296875,0.25658801198005676,-0.6720288991928101,0.1889457106590271
1720785178532470500,7.192470458984375,0.17669552564620972,-0.5974625945091248,0.23794642090797424
1720785178542484200,7.202484130859375,0.13834713399410248,-0.3342168629169464,0.18042384088039398
1720785178552498000,7.212497802734375,0.09893351793289185,-0.2170412242412567,0.09840089827775955
1720785178562512000,7.222511962890625,-0.0033288532868027687,-0.36417654156684875,0.04620448127388954
1720785178572525600,7.232525634765625,-0.054460037499666214,-0.6762897968292236,0.05898727849125862
1720785178582539500,7.24253955078125,-0.11517832428216934,-1.0768173933029175,0.1985328048467636
1720785178592553200,7.25255322265625,-0.21850591897964478,-1.1652318239212036,0.4105141758918762
1720785178602567200,7.262567138671875,-0.2888112962245941,-0.7987915873527527,0.5713643431663513
1720785178612580900,7.272580810546875,-0.3963998258113861,-0.5228962898254395,0.5308855175971985
1720785178622594600,7.282594482421875,-0.4262263774871826,-0.6251586079597473,0.3487306535243988
1720785178632608500,7.2926083984375,-0.4720313847064972,-1.041664719581604,0.02596505545079708
1720785178642622200,7.302622314453125,-0.5487281680107117,-1.3761478662490845,-0.17855969071388245
1720785178652636200,7.31263623046875,-0.5178363919258118,-1.5274109840393066,-0.21264714002609253
1720785178662649900,7.32264990234375,-0.4283568263053894,-1.4421923160552979,-0.09334104508161545
1720785178672663600,7.33266357421875,-0.23128871619701385,-1.118361473083496,-0.010252867825329304
1720785178682677500,7.342677490234375,0.033954303711652756,-0.45046040415763855,-0.0347532257437706
1720785178692691200,7.352691162109375,0.07336792349815369,-0.22343263030052185,-0.04327509179711342
1720785178702705200,7.362705078125,-0.006524552125483751,-0.488808810710907,-0.05499265342950821
1720785178712718800,7.37271875,-0.17057043313980103,-0.9809464812278748,-0.008122402243316174
1720785178722732800,7.38273291015625,-0.3335510790348053,-1.1897320747375488,0.012117025442421436
1720785178732746500,7.39274658203125,-0.47416186332702637,-0.8680317401885986,0.02063889056444168
1720785178742760200,7.40276025390625,-0.427291601896286,-0.2948032319545746,0.12290126085281372
1720785178752774100,7.412774169921875,-0.46457475423812866,0.1547250896692276,0.13355359435081482
1720785178762787800,7.422787841796875,-0.4730966091156006,0.5872097015380859,0.09946613013744354
1720785178772801800,7.4328017578125,-0.4294220507144928,0.9035838842391968,-0.01877473294734955
1720785178782815500,7.4428154296875,-0.33674678206443787,1.0601731538772583,-0.17855969071388245
1720785178792829200,7.4528291015625,-0.26218047738075256,1.1741530895233154,-0.19879911839962006
1720785178802843100,7.462843017578125,-0.19080986082553864,1.2615022659301758,-0.16684211790561676
1720785178812856800,7.47285693359375,-0.172700896859169,1.0963910818099976,-0.14766792953014374
1720785178822870800,7.482870849609375,-0.21744069457054138,0.74699467420578,-0.08694964647293091
1720785178832884500,7.492884521484375,-0.19933173060417175,0.640471339225769,-0.04114462435245514
1720785178842898200,7.502898193359375,-0.11730878800153732,0.7789516448974609,-0.07842778414487839
1720785178852912000,7.512912109375,-0.12263495475053787,0.7171681523323059,-0.18708154559135437
1720785178862925800,7.52292578125,-0.23448441922664642,0.4870778024196625,-0.21903854608535767
1720785178872939800,7.532939697265625,-0.24300628900527954,0.5488613247871399,-0.14553746581077576
1720785178882953500,7.542953369140625,-0.20146219432353973,0.816234827041626,-0.14660269021987915
1720785178892967400,7.552967529296875,-0.1418091505765915,1.1656312942504883,-0.24034319818019867
1720785178902981000,7.562981201171875,-0.07469946891069412,1.6939867734909058,-0.37136685848236084
1720785178912994800,7.572994873046875,0.008388710208237171,2.5014333724975586,-0.4938686490058899
1720785178923008800,7.5830087890625,0.13834713399410248,3.562405586242676,-0.6121095418930054
1720785178933022500,7.5930224609375,0.2981320917606354,4.1205878257751465,-0.6270228028297424
1720785178943036400,7.603036376953125,0.33435001969337463,4.006607532501221,-0.481085866689682
1720785178953050000,7.613050048828125,0.2416747361421585,3.4335124492645264,-0.2680392563343048
1720785178963063800,7.623063720703125,0.1553908735513687,2.8476340770721436,-0.0773625448346138
1720785178973077800,7.633077880859375,0.09893351793289185,2.4556283950805664,-0.007057168986648321
1720785178983091500,7.643091552734375,0.031823836266994476,2.2532341480255127,-0.04114462435245514
1720785178993105400,7.65310546875,-0.034220609813928604,2.241516590118408,-0.1402112990617752
1720785179003119000,7.663119140625,-0.08109086751937866,2.3022348880767822,-0.2382127344608307
1720785179013133000,7.673133056640625,-0.12263495475053787,2.227668523788452,-0.265908807516098
1720785179023146800,7.683146728515625,-0.1407439112663269,2.0018391609191895,-0.24566936492919922
1720785179033160400,7.693160400390625,-0.10133028775453568,1.667356014251709,-0.1934729516506195
1720785179043174400,7.70317431640625,-0.067242830991745,1.3179595470428467,-0.12529803812503815
1720785179053188000,7.71318798828125,-0.03848154470324516,0.9749545454978943,-0.10718907415866852
1720785179063202000,7.7232021484375,-0.03209014609456062,0.816234827041626,-0.13808083534240723
1720785179073215700,7.7332158203125,-0.03954677656292915,0.8524527549743652,-0.18921200931072235
1720785179083229400,7.7432294921875,-0.0555252730846405,1.0484555959701538,-0.23501703143119812
1720785179093243400,7.753243408203125,-0.08535179495811462,1.3222204446792603,-0.2573869228363037
1720785179103257000,7.763257080078125,-0.07576470077037811,1.3222204446792603,-0.21797330677509308
1720785179113271000,7.77327099609375,-0.06298190355300903,1.1049129962921143,-0.12742850184440613
1720785179123284700,7.78328466796875,-0.05232957378029823,0.8130391240119934,-0.0667102187871933
1720785179133298700,7.793298583984375,-0.047003407031297684,0.6585803031921387,-0.07310161739587784
1720785179143312400,7.8033125,-0.033155377954244614,0.5595136284828186,-0.09653674066066742
1720785179153326000,7.813326171875,-0.027829213067889214,0.4519250988960266,-0.11145000159740448
1720785179163340000,7.823340087890625,-0.018242115154862404,0.29746630787849426,-0.09121058136224747
1720785179173353700,7.833353759765625,-0.007589785382151604,0.13022473454475403,-0.0560578890144825
1720785179183367400,7.843367431640625,-0.011850717477500439,0.07802832126617432,-0.01770949922502041
1720785179193381000,7.853381103515625,-0.018242115154862404,0.11637670546770096,0.006790860556066036
1720785179203395000,7.86339501953125,-0.026763979345560074,0.19307348132133484,0.005725627299398184
1720785179213408800,7.87340869140625,-0.04913387447595596,0.302792489528656,-0.02090519852936268
1720785179223422500,7.88342236328125,-0.09387365728616714,0.283618301153183,-0.08268871158361435
1720785179233436200,7.893436279296875,-0.12796111404895782,0.13661614060401917,-0.1306242048740387
1720785179243449900,7.903449951171875,-0.08641702681779861,0.022636201232671738,-0.1093195378780365
1720785179253463800,7.9134638671875,-0.03954677656292915,0.0790935531258583,-0.06457975506782532
1720785179263477500,7.9234775390625,-0.015046416781842709,0.08761541545391083,-0.02516612969338894
1720785179273491200,7.9334912109375,0.0009320789249613881,0.04394086077809334,-0.004926702938973904
1720785179283505000,7.9435048828125,-0.004394086077809334,0.005592473316937685,-0.01877473294734955
1720785179293518600,7.9535185546875,-0.015046416781842709,-0.027429750189185143,-0.02836182899773121
1720785179303532500,7.963532470703125,-0.008655018173158169,-0.015712186694145203,-0.013448567129671574
1720785179313546200,7.973546142578125,0.011584409512579441,0.016244804486632347,0.0238345880061388
1720785179323560000,7.983559814453125,0.021171506494283676,0.14194230735301971,0.0504654161632061
1720785179333573600,7.99357373046875,0.029693370684981346,0.2687050402164459,0.05685681104660034
1720785179343587600,8.003587646484375,0.033954303711652756,0.32835808396339417,0.04940018057823181
1720785179353601300,8.013601318359376,0.014780107885599136,0.21650861203670502,0.03661738336086273
1720785179363615000,8.023614990234375,-0.047003407031297684,-0.19041040539741516,0.04300878196954727
1720785179373628700,8.033628662109376,-0.13222205638885498,-0.6784203052520752,0.02703028731048107
1720785179383642400,8.043642333984375,-0.19080986082553864,-1.0246210098266602,-0.06457975506782532
1720785179393656300,8.05365625,-0.20039696991443634,-1.2664289474487305,-0.15938548743724823
1720785179403670000,8.063669921875,-0.1950708031654358,-1.478410243988037,-0.12636326253414154
1720785179413683700,8.07368359375,-0.17802706360816956,-1.4730840921401978,-0.02516612969338894
1720785179423697400,8.083697509765624,-0.16524426639080048,-1.2376675605773926,0.04940018057823181
1720785179433711000,8.093711181640625,-0.1950708031654358,-1.149253249168396,0.06644391268491745
1720785179443725000,8.10372509765625,-0.21957115828990936,-1.392126441001892,0.04940018057823181
1720785179453738800,8.11373876953125,-0.1716356724500656,-1.554041862487793,0.08987903594970703
1720785179463752400,8.12375244140625,-0.12263495475053787,-1.5050411224365234,0.1900109350681305
1720785179473766100,8.13376611328125,-0.11624355614185333,-1.540193796157837,0.24966399371623993
1720785179483779800,8.14377978515625,-0.10026505589485168,-1.5359328985214233,0.22409839928150177
1720785179493793800,8.153793701171875,-0.08428656309843063,-1.287733554840088,0.17403244972229004
1720785179503807500,8.163807373046875,-0.058720968663692474,-0.9308804869651794,0.11118369549512863
1720785179513821200,8.1738212890625,-0.027829213067889214,-0.6017234921455383,0.07496577501296997
1720785179523835000,8.1838349609375,-0.016111649572849274,-0.3278254568576813,0.08668334037065506
1720785179533848800,8.193848876953124,-0.0555252730846405,-0.3577851355075836,0.11757509410381317
1720785179543862500,8.203862548828125,-0.13861344754695892,-0.742334246635437,0.1452711522579193
1720785179553876200,8.213876220703124,-0.1822880059480667,-1.0097078084945679,0.17509767413139343
1720785179563890000,8.223889892578125,-0.18654893338680267,-0.9404675960540771,0.16551057994365692
1720785179573904000,8.23390380859375,-0.15565717220306396,-0.680550754070282,0.11864032596349716
1720785179583917600,8.24391748046875,-0.09280842542648315,-0.2841508984565735,0.06857437640428543
1720785179593931500,8.253931640625,-0.033155377954244614,0.1227681040763855,0.03022598661482334
1720785179603945200,8.2639453125,-0.008655018173158169,0.3645760118961334,0.011051792651414871
1720785179613959000,8.273958984375,0.028628136962652206,0.5733616948127747,0.03235645219683647
1720785179623972900,8.283972900390625,0.06804175674915314,0.8236914277076721,0.015312724746763706
1720785179633986600,8.293986572265625,0.13195574283599854,1.1677616834640503,-0.0347532257437706
1720785179644000500,8.30400048828125,0.23528334498405457,1.6077029705047607,-0.09014534205198288
1720785179654014200,8.31401416015625,0.335415244102478,2.0721445083618164,-0.15405932068824768
1720785179664028200,8.324028076171874,0.36311131715774536,2.311821937561035,-0.20092958211898804
1720785179674041900,8.334041748046875,0.35565468668937683,2.3863883018493652,-0.19773387908935547
1720785179684055600,8.3440556640625,0.339676171541214,2.3629531860351562,-0.17110306024551392
1720785179694069500,8.354069580078125,0.29067546129226685,2.201037645339966,-0.14553746581077576
1720785179704083200,8.364083251953126,0.20758728682994843,2.126471519470215,-0.11145000159740448
1720785179714097200,8.37409716796875,0.11065108329057693,2.163754463195801,-0.08162347972393036
1720785179724110800,8.38411083984375,0.037150003015995026,2.02740478515625,-0.08481918275356293
1720785179734124500,8.39412451171875,-0.005459319334477186,1.7057043313980103,-0.13488513231277466
1720785179744138500,8.404138427734376,-0.008655018173158169,1.2849373817443848,-0.1519288569688797
1720785179754152200,8.414152099609375,-0.0033288532868027687,0.8748226165771484,-0.1508636325597763
1720785179764166100,8.424166259765625,0.020106272771954536,0.5616441369056702,-0.14660269021987915
1720785179774179800,8.434179931640625,0.031823836266994476,0.4423380196094513,-0.14873315393924713
1720785179784193500,8.444193603515625,0.043541401624679565,0.4838820993900299,-0.13595037162303925
1720785179794207500,8.45420751953125,0.042476166039705276,0.5488613247871399,-0.10292813926935196
1720785179804221200,8.46422119140625,0.007323476951569319,0.5957315564155579,-0.0560578890144825
1720785179814235100,8.474235107421874,-0.009720250964164734,0.49133872985839844,-0.005991935729980469
1720785179824248800,8.484248779296875,-0.00226362026296556,0.30705341696739197,0.03235645219683647
1720785179834262800,8.4942626953125,0.009453942999243736,0.19094301760196686,0.02276935614645481
1720785179844276500,8.5042763671875,0.005193010903894901,0.21970431506633759,-0.03688369318842888
1720785179854290200,8.514290283203126,-0.007589785382151604,0.3571193814277649,-0.10186290740966797
1720785179864304000,8.52430419921875,-0.026763979345560074,0.5105129480361938,-0.14553746581077576
1720785179874317800,8.53431787109375,-0.034220609813928604,0.563774585723877,-0.14979839324951172
1720785179884331800,8.544331787109375,-0.03848154470324516,0.541404664516449,-0.1316894292831421
1720785179894345500,8.554345458984375,-0.048068638890981674,0.47962117195129395,-0.10718907415866852
1720785179904359200,8.564359130859375,-0.0555252730846405,0.38161972165107727,-0.07523208111524582
1720785179914373000,8.574373046875,-0.061916667968034744,0.31983622908592224,-0.0454055592417717
1720785179924386800,8.58438671875,-0.057655736804008484,0.4838820993900299,0.02276935614645481
1720785179934400800,8.59440087890625,-0.017176883295178413,0.38161972165107727,0.015312724746763706
1720785179944414500,8.60441455078125,-0.06511236727237701,0.6841459274291992,0.18255430459976196
1720785179954428400,8.614428466796875,-0.10772168636322021,1.316894292831421,0.3391435742378235
1720785179964442000,8.624442138671874,-0.06511236727237701,1.3531122207641602,0.2549901604652405
1720785179974455800,8.634455810546875,-0.05978620424866676,1.3435251712799072,0.22409839928150177
1720785179984469800,8.6444697265625,-0.006524552125483751,1.0963910818099976,0.16444534063339233
1720785179994483500,8.6544833984375,0.009453942999243736,0.7299509048461914,0.08455286920070648
1720785180004497400,8.664497314453126,0.029693370684981346,0.3230319023132324,0.02809552103281021
1720785180014511000,8.674510986328125,0.012649642303586006,0.15152940154075623,0.02596505545079708
1720785180024524800,8.68452490234375,0.057389430701732635,0.011983871459960938,-0.03368799388408661
1720785180034538800,8.694538818359375,0.07762885838747025,-0.16058388352394104,-0.10399337112903595
1720785180044552400,8.704552490234375,0.016910573467612267,-0.06258244067430496,0.011051792651414871
1720785180054566400,8.71456640625,-0.006524552125483751,-0.023168819025158882,0.03768261894583702
1720785180064580000,8.724580078125,-0.019307348877191544,0.05352795869112015,0.039813082665205
1720785180074594000,8.734593994140624,-0.021437814459204674,0.031158065423369408,0.0025299284607172012
1720785180084607700,8.744607666015625,0.014780107885599136,-0.28521615266799927,-0.1742987483739853
1720785180094621400,8.754621337890624,-0.025698747485876083,-0.030625449493527412,-0.07097115367650986
1720785180104635400,8.764635498046875,-0.0001331541279796511,0.112115778028965,0.01957365684211254
1720785180114649000,8.774649169921876,0.012649642303586006,0.17709499597549438,0.04726971685886383
1720785180124663000,8.7846630859375,0.019041040912270546,0.19520394504070282,0.0504654161632061
1720785180134676700,8.7946767578125,0.010519175790250301,-0.03488638252019882,-0.0027962366584688425
1720785180144690400,8.8046904296875,-0.00226362026296556,-0.26710718870162964,-0.05818835273385048
1720785180154704100,8.8147041015625,-0.015046416781842709,-0.32889068126678467,-0.07949301600456238
1720785180164718000,8.824718017578125,-0.023568280041217804,-0.18295377492904663,-0.04860125854611397
1720785180174731800,8.834731689453125,-0.018242115154862404,0.016244804486632347,0.0003994623839389533
1720785180184745500,8.844745361328124,-0.004394086077809334,0.17070358991622925,0.04513924941420555
1720785180194759200,8.85475927734375,0.013714875094592571,0.2740311920642853,0.0717700719833374
1720785180204772900,8.86477294921875,0.019041040912270546,0.3166405260562897,0.08668334037065506
1720785180214786800,8.874786865234375,0.021171506494283676,0.3794892728328705,0.10159660130739212
1720785180224800500,8.884800537109374,0.019041040912270546,0.4657731354236603,0.11331415921449661
1720785180234814200,8.894814208984375,0.021171506494283676,0.6212971806526184,0.1367492824792862
1720785180244828000,8.904827880859376,0.0009320789249613881,0.7757559418678284,0.1676410436630249
1720785180254841900,8.914841796875,-0.027829213067889214,0.8673660159111023,0.1878804713487625
1720785180264855600,8.92485546875,-0.011850717477500439,0.8279523849487305,0.19107617437839508
1720785180274869200,8.934869140625,0.016910573467612267,0.7523208260536194,0.18148908019065857
1720785180284883000,8.944883056640625,0.017975807189941406,0.6138405203819275,0.14101022481918335
1720785180294896600,8.954896728515624,-0.0001331541279796511,0.34966275095939636,0.0717700719833374
1720785180304910600,8.96491064453125,0.0030625448562204838,0.24420467019081116,0.04833494871854782
1720785180314924300,8.97492431640625,0.025432437658309937,0.2612484097480774,0.05898727849125862
1720785180324938000,8.98493798828125,0.027562905102968216,0.3059881925582886,0.08561810106039047
1720785180334951700,8.99495166015625,0.024367205798625946,0.37416309118270874,0.12183602899312973
1720785180344965400,9.00496533203125,0.023301972076296806,0.4721645414829254,0.13887976109981537
1720785180354979300,9.014979248046876,0.025432437658309937,0.5339480638504028,0.1346188187599182
1720785180364993000,9.024992919921875,0.014780107885599136,0.4764254689216614,0.10798799991607666
1720785180375006700,9.0350068359375,-0.040612008422613144,0.24740037322044373,0.03874785080552101
1720785180385020400,9.0450205078125,-0.09706936031579971,-0.09560466557741165,-0.07416684925556183
1720785180395034000,9.0550341796875,-0.1631138026714325,-0.4334166944026947,-0.2062557488679886
1720785180405048000,9.065048095703125,-0.2707023322582245,-0.6826812028884888,-0.3213009238243103
1720785180415061800,9.075061767578125,-0.4720313847064972,-0.9596418142318726,-0.44380271434783936
1720785180425075500,9.085075439453124,-0.7106435894966125,-1.1503185033798218,-0.5204994678497314
1720785180435089200,9.095089111328125,-0.8661676049232483,-0.6688331961631775,-0.41291093826293945
1720785180445103000,9.10510302734375,-0.8086450099945068,0.026897134259343147,-0.2147776037454605
1720785180455116800,9.11511669921875,-0.8288844227790833,0.1547250896692276,-0.08481918275356293
1720785180465130500,9.125130615234376,-0.8704285621643066,-0.0476691760122776,-0.04434032365679741
1720785180475144200,9.135144287109375,-0.829949676990509,-0.5015916228294373,-0.06990591436624527
1720785180485158000,9.145157958984376,-0.7521876692771912,-0.42063388228416443,-0.02942706272006035
1720785180495171800,9.155171875,-0.7702966332435608,-0.03808208182454109,-0.03901416063308716
1720785180505185500,9.165185546875,-1.0035827159881592,0.022636201232671738,-0.07629731297492981
1720785180515199200,9.17519921875,-1.3465876579284668,-0.1424749195575714,-0.11677616834640503
1720785180525213000,9.185212890625,-1.4999812841415405,-0.09986559301614761,-0.15832026302814484
1720785180535226600,9.1952265625,-1.488263726234436,0.018375270068645477,-0.16471165418624878
1720785180545240600,9.205240478515625,-1.374283790588379,0.13448566198349,-0.11571093648672104
1720785180555254300,9.215254150390624,-1.2485862970352173,0.03541899845004082,-0.04860125854611397
1720785180565268000,9.22526806640625,-1.0259525775909424,-0.15632294118404388,0.02809552103281021
1720785180575281700,9.23528173828125,-0.7031869292259216,-0.1872147023677826,0.08987903594970703
1720785180585295400,9.24529541015625,-0.3356815576553345,-0.04660394415259361,0.12396649271249771
1720785180595309300,9.255309326171876,0.03928046673536301,0.08868064731359482,0.13994498550891876
1720785180605323000,9.265322998046875,0.17989122867584229,0.0034620072692632675,0.19214141368865967
1720785180615336700,9.275336669921876,0.23315288126468658,0.017310036346316338,0.24753352999687195
1720785180625350400,9.285350341796875,0.31198012828826904,0.218639075756073,0.26777294278144836
1720785180635364400,9.2953642578125,0.37589409947395325,0.4412727653980255,0.2752295732498169
1720785180645378000,9.3053779296875,0.3716331720352173,0.32196667790412903,0.17296721041202545
1720785180655391700,9.315391845703125,0.38548120856285095,-0.05193011090159416,-0.000665770610794425
1720785180665405700,9.32540576171875,0.43980807065963745,-0.2404763549566269,-0.07310161739587784
1720785180675419400,9.33541943359375,0.4664389193058014,-0.04553871229290962,-0.04434032365679741
1720785180685433000,9.34543310546875,0.5197005867958069,0.34114086627960205,0.03129122033715248
1720785180695447000,9.355447021484375,0.4110468029975891,0.38161972165107727,0.09733566641807556
1720785180705460700,9.365460693359376,0.17563030123710632,0.29959678649902344,0.11650986224412918
1720785180715474700,9.375474609375,0.017975807189941406,0.31024911999702454,0.10053136944770813
1720785180725488400,9.38548828125,-0.013981183059513569,0.31983622908592224,0.07922670245170593
1720785180735502000,9.395502197265625,-0.024633513763546944,0.34966275095939636,0.0717700719833374
1720785180745516000,9.40551611328125,-0.018242115154862404,0.2633788585662842,0.05685681104660034
1720785180755529700,9.41552978515625,-0.023568280041217804,0.10039821267127991,0.01637795753777027
1720785180765543700,9.425543701171875,-0.053394805639982224,-0.021038351580500603,-0.01770949922502041
1720785180775557400,9.435557373046874,-0.041677240282297134,-0.08921326696872711,-0.01877473294734955
1720785180785571300,9.4455712890625,-0.009720250964164734,-0.1222354918718338,-0.011318100616335869
1720785180795585000,9.4555849609375,-0.008655018173158169,-0.22556309401988983,-0.0347532257437706
1720785180805598700,9.4655986328125,-0.027829213067889214,-0.33954301476478577,-0.06351451575756073
1720785180815612700,9.47561279296875,-0.028894444927573204,-0.3833507299423218,-0.09653674066066742
1720785180825626400,9.48562646484375,-0.025698747485876083,-0.1978670358657837,-0.07310161739587784
1720785180835640300,9.495640380859374,-0.03848154470324516,-0.023168819025158882,-0.0347532257437706
1720785180845654000,9.505654052734375,-0.05232957378029823,0.009853405877947807,-0.01770949922502041
1720785180855667700,9.515667724609376,-0.03954677656292915,-0.03275591507554054,0.0014646954368799925
1720785180865681700,9.525681640625,-0.013981183059513569,-0.04021254554390907,0.011051792651414871
1720785180875695400,9.5356953125,0.001997311832383275,-0.07430000603199005,0.011051792651414871
1720785180885709300,9.545709228515625,0.008388710208237171,-0.07643046975135803,0.013182258233428001
1720785180895723000,9.555722900390625,0.011584409512579441,-0.0689738392829895,0.01744319126009941
1720785180905737000,9.565737060546875,0.011584409512579441,-0.06684337556362152,0.02063889056444168
1720785180915750700,9.575750732421875,0.0030625448562204838,-0.06045197322964668,0.012117025442421436
1720785180925764400,9.585764404296874,-0.009720250964164734,-0.0583215095102787,-0.005991935729980469
1720785180935778300,9.5957783203125,-0.016111649572849274,-0.0583215095102787,-0.02090519852936268
1720785180945792000,9.6057919921875,-0.020372580736875534,-0.0476691760122776,-0.04007939249277115
1720785180955806000,9.615805908203125,-0.022503048181533813,-0.06045197322964668,-0.04327509179711342
1720785180965819600,9.625819580078126,-0.022503048181533813,-0.06577813625335693,-0.0347532257437706
1720785180975833300,9.635833251953125,-0.021437814459204674,-0.04340824484825134,-0.013448567129671574
1720785180985847300,9.645847412109376,-0.016111649572849274,-0.04127778112888336,0.011051792651414871
1720785180995861000,9.655861083984375,-0.010785484686493874,-0.03382114693522453,0.0238345880061388
1720785181005875000,9.665875,-0.005459319334477186,-0.0476691760122776,0.0238345880061388
1720785181015888600,9.675888671875,-0.006524552125483751,-0.05193011090159416,0.012117025442421436
1720785181025902600,9.685902587890626,-0.005459319334477186,-0.00399462366476655,-0.005991935729980469
1720785181035916300,9.695916259765625,-0.007589785382151604,-0.016777420416474342,-0.012383334338665009
1720785181045930000,9.705929931640625,-0.006524552125483751,-0.002929390873759985,-0.02516612969338894
1720785181055944000,9.71594384765625,-0.0011983871227130294,-0.0018641578499227762,-0.014513799920678139
1720785181065957600,9.72595751953125,0.010519175790250301,0.014114337973296642,0.011051792651414871
1720785181075971300,9.735971435546874,0.021171506494283676,0.04074516147375107,0.03235645219683647
1720785181085985000,9.745985107421875,0.029693370684981346,0.07270215451717377,0.04300878196954727
1720785181095998700,9.755998779296876,0.03288906812667847,0.07376738637685776,0.04940018057823181
1720785181106012700,9.7660126953125,0.026497671380639076,0.09826774895191193,0.03768261894583702
1720785181116026400,9.7760263671875,0.016910573467612267,0.09826774895191193,0.02276935614645481
1720785181126040000,9.7860400390625,0.001997311832383275,0.10039821267127991,0.013182258233428001
1720785181136053800,9.7960537109375,-0.011850717477500439,0.10892007499933243,0.006790860556066036
1720785181146067500,9.8060673828125,-0.023568280041217804,0.09826774895191193,0.013182258233428001
1720785181156081400,9.816081298828125,-0.025698747485876083,0.08441971987485886,0.02596505545079708
1720785181166095000,9.82609521484375,-0.021437814459204674,0.06737598776817322,0.03555215150117874
1720785181176108800,9.83610888671875,-0.008655018173158169,0.05352795869112015,0.04940018057823181
1720785181186122500,9.84612255859375,0.006258244160562754,0.07057169079780579,0.05259587988257408
1720785181196136400,9.856136474609375,0.019041040912270546,0.03648423030972481,0.05259587988257408
1720785181206150100,9.866150146484374,0.022236740216612816,0.010918638668954372,0.03448691964149475
1720785181216163800,9.876163818359375,0.016910573467612267,-0.015712186694145203,0.005725627299398184
1720785181226177500,9.886177490234376,0.006258244160562754,-0.023168819025158882,-0.02303566411137581
1720785181236191200,9.896191162109375,-0.00226362026296556,0.00452724052593112,-0.04114462435245514
1720785181246205200,9.906205078125,-0.012915950268507004,0.006657706573605537,-0.04114462435245514
1720785181256219000,9.916218994140625,-0.011850717477500439,0.027962366119027138,-0.03155753016471863
1720785181266232600,9.926232666015625,-0.008655018173158169,0.04713656008243561,-0.01983996480703354
1720785181276246300,9.936246337890625,-0.004394086077809334,0.031158065423369408,-0.0038614696823060513
1720785181286260000,9.946260009765625,-0.00226362026296556,0.010918638668954372,0.005725627299398184
1720785181296274000,9.95627392578125,-0.0001331541279796511,-0.025299284607172012,0.012117025442421436
1720785181306287600,9.96628759765625,-0.00226362026296556,-0.027429750189185143,0.013182258233428001
1720785181316301300,9.97630126953125,-0.00226362026296556,-0.03595161437988281,0.013182258233428001
1720785181326315000,9.98631494140625,-0.009720250964164734,-0.05086487531661987,0.008921326138079166
1720785181336328700,9.99632861328125,-0.015046416781842709,-0.024234050884842873,0.0025299284607172012
1720785181346342700,10.0063427734375,-0.022503048181533813,-0.022103585302829742,0.0014646954368799925
1720785181356356400,10.0163564453125,-0.021437814459204674,-0.008255556225776672,0.0003994623839389533
1720785181366370000,10.0263701171875,-0.020372580736875534,0.011983871459960938,-0.005991935729980469
1720785181376383700,10.0363837890625,-0.020372580736875534,0.0034620072692632675,-0.011318100616335869
1720785181386397700,10.046397705078125,-0.019307348877191544,-0.018907885998487473,-0.01983996480703354
1720785181396411400,10.056411376953125,-0.022503048181533813,-0.06790860742330551,-0.02623136341571808
1720785181406425000,10.066425048828124,-0.019307348877191544,-0.11477886140346527,-0.03049229457974434
1720785181416438800,10.076438720703125,-0.022503048181533813,-0.1861494779586792,-0.02303566411137581
1720785181426452500,10.086452392578124,-0.03209014609456062,-0.22130216658115387,-0.02197043038904667
1720785181436466400,10.096466552734375,-0.048068638890981674,-0.23195448517799377,-0.03901416063308716
1720785181446480100,10.106480224609374,-0.058720968663692474,-0.22556309401988983,-0.04434032365679741
1720785181456493800,10.116493896484375,-0.06404713541269302,-0.23195448517799377,-0.04647079110145569
1720785181466507500,10.126507568359376,-0.060851436108350754,-0.1978670358657837,-0.04860125854611397
1720785181476521200,10.136521240234375,-0.054460037499666214,-0.18934516608715057,-0.05073172226548195
1720785181486535200,10.14653515625,-0.0555252730846405,-0.21171505749225616,-0.05925358831882477
1720785181496548900,10.156548828125,-0.054460037499666214,-0.2596505582332611,-0.06777545064687729
1720785181506562600,10.1665625,-0.0555252730846405,-0.27882474660873413,-0.06990591436624527
1720785181516576300,10.176576171875,-0.06298190355300903,-0.25432437658309937,-0.07629731297492981
1720785181526590000,10.18658984375,-0.06937330216169357,-0.2596505582332611,-0.0773625448346138
1720785181536604000,10.19660400390625,-0.05978620424866676,-0.19147562980651855,-0.06990591436624527
1720785181546617600,10.20661767578125,-0.03954677656292915,-0.12010502070188522,-0.06138405203819275
1720785181556631300,10.21663134765625,0.019041040912270546,0.04394086077809334,-0.007057168986648321
1720785181566645000,10.22664501953125,0.010519175790250301,0.18987779319286346,0.02703028731048107
1720785181576659000,10.236658935546876,-0.016111649572849274,0.13022473454475403,0.01637795753777027
1720785181586672600,10.246672607421875,-0.011850717477500439,0.018375270068645477,0.008921326138079166
1720785181596686300,10.256686279296876,-0.028894444927573204,-0.04447348043322563,-0.0038614696823060513
1720785181606700000,10.266699951171875,-0.033155377954244614,-0.05938674136996269,-0.000665770610794425
1720785181616713700,10.276713623046875,-0.024633513763546944,-0.07962616533041,0.006790860556066036
1720785181626727700,10.286727783203125,-0.018242115154862404,-0.09773512929677963,0.0185084231197834
1720785181636741400,10.296741455078125,-0.015046416781842709,-0.07536523789167404,0.02703028731048107
1720785181646755000,10.306755126953124,-0.020372580736875534,-0.04234301298856735,0.02916075475513935
1720785181656768800,10.316768798828125,-0.023568280041217804,-0.04553871229290962,0.0238345880061388
1720785181666782500,10.326782470703124,-0.029959678649902344,-0.017842652276158333,0.009986559860408306
1720785181676796400,10.33679638671875,-0.037416309118270874,0.0023967742454260588,0.00359516148455441
1720785181686810000,10.34681005859375,-0.03954677656292915,0.017310036346316338,0.004660394508391619
1720785181696823800,10.35682373046875,-0.037416309118270874,0.011983871459960938,0.011051792651414871
1720785181706837500,10.36683740234375,-0.03528584539890289,-0.0061250897124409676,0.01637795753777027
1720785181716851200,10.376851318359375,-0.028894444927573204,-0.023168819025158882,0.0238345880061388
1720785181726865200,10.386865234375,-0.025698747485876083,-0.04234301298856735,0.02916075475513935
1720785181736878800,10.39687890625,-0.021437814459204674,-0.05725627392530441,0.03022598661482334
1720785181746892500,10.406892578125,-0.019307348877191544,-0.03808208182454109,0.02276935614645481
1720785181756906200,10.41690625,-0.015046416781842709,-0.030625449493527412,0.0185084231197834
1720785181766920200,10.426920166015625,-0.006524552125483751,-0.0061250897124409676,0.013182258233428001
1720785181776934100,10.43693408203125,-0.0033288532868027687,0.016244804486632347,0.006790860556066036
1720785181786948000,10.446947998046875,-0.0033288532868027687,0.030092833563685417,0.00359516148455441
1720785181796962000,10.456962158203124,-0.007589785382151604,0.03648423030972481,0.0025299284607172012
1720785181806975700,10.466975830078125,-0.006524552125483751,0.006657706573605537,0.006790860556066036
1720785181816989700,10.47698974609375,-0.004394086077809334,0.00133154122158885,0.005725627299398184
1720785181827003600,10.487003662109375,-0.0001331541279796511,-0.019973119720816612,0.005725627299398184
1720785181837017300,10.497017333984376,0.0009320789249613881,-0.029560215771198273,-0.000665770610794425
1720785181847031300,10.50703125,0.0009320789249613881,-0.009320789016783237,-0.011318100616335869
1720785181857045000,10.517044921875,-0.0033288532868027687,-0.008255556225776672,-0.015579032711684704
1720785181867058700,10.52705859375,-0.004394086077809334,0.017310036346316338,-0.01877473294734955
1720785181877072400,10.537072265625,-0.005459319334477186,0.04713656008243561,-0.02516612969338894
1720785181887086300,10.54708642578125,-0.006524552125483751,0.04926702752709389,-0.02410089783370495
1720785181897100000,10.55710009765625,-0.008655018173158169,0.05246272683143616,-0.02303566411137581
1720785181907113700,10.56711376953125,-0.009720250964164734,0.026897134259343147,-0.01877473294734955
1720785181917127400,10.57712744140625,-0.008655018173158169,0.0023967742454260588,-0.015579032711684704
1720785181927141000,10.58714111328125,-0.004394086077809334,-0.019973119720816612,-0.008122402243316174
1720785181937155000,10.597155029296875,-0.004394086077809334,-0.03275591507554054,-0.0017310036346316338
1720785181947168800,10.607168701171876,-0.007589785382151604,-0.025299284607172012,-0.0017310036346316338
1720785181957182500,10.617182373046875,-0.018242115154862404,-0.012516488321125507,-0.0017310036346316338
1720785181967196200,10.627196044921876,-0.022503048181533813,-0.017842652276158333,-0.000665770610794425
1720785181977209900,10.6372099609375,-0.022503048181533813,0.00133154122158885,-0.004926702938973904
1720785181987223800,10.647223876953126,-0.019307348877191544,0.0034620072692632675,-0.0038614696823060513
1720785181997237500,10.657237548828125,-0.012915950268507004,0.008788172155618668,-0.0017310036346316338
1720785182007251200,10.667251220703125,-0.005459319334477186,0.00133154122158885,0.0003994623839389533
1720785182017265000,10.677264892578124,-0.0001331541279796511,-0.0018641578499227762,0.0014646954368799925
1720785182027278600,10.687278564453125,0.006258244160562754,-0.0007989247678779066,0.0014646954368799925
1720785182037292500,10.69729248046875,0.008388710208237171,-0.0061250897124409676,-0.000665770610794425
1720785182047306200,10.70730615234375,0.008388710208237171,-0.00719032296910882,-0.004926702938973904
1720785182057320000,10.71731982421875,0.006258244160562754,0.013049104250967503,-0.014513799920678139
1720785182067333600,10.727333740234375,0.0009320789249613881,0.014114337973296642,-0.01877473294734955
1720785182077347600,10.73734765625,-0.0001331541279796511,0.03648423030972481,-0.02942706272006035
1720785182087361300,10.747361328125,-0.0033288532868027687,0.05672365799546242,-0.03901416063308716
1720785182097375000,10.757375,-0.006524552125483751,0.05139749497175217,-0.04220985993742943
1720785182107388700,10.767388671875,-0.011850717477500439,0.05459319427609444,-0.04434032365679741
1720785182117402400,10.77740234375,-0.022503048181533813,0.016244804486632347,-0.03688369318842888
1720785182127416300,10.787416259765624,-0.03528584539890289,-0.011451254598796368,-0.03049229457974434
1720785182137430000,10.797429931640625,-0.04274247586727142,-0.027429750189185143,-0.02303566411137581
1720785182147443700,10.807443603515624,-0.04913387447595596,-0.03595161437988281,-0.01664426550269127
1720785182157457400,10.81745751953125,-0.044872939586639404,-0.026364516466856003,-0.014513799920678139
1720785182167471000,10.82747119140625,-0.040612008422613144,-0.0050598569214344025,-0.014513799920678139
1720785182177485000,10.837485107421875,-0.029959678649902344,-0.0061250897124409676,-0.01664426550269127
1720785182187498800,10.847498779296876,-0.018242115154862404,0.011983871459960938,-0.02516612969338894
1720785182197512400,10.857512451171875,-0.011850717477500439,0.024766668677330017,-0.03368799388408661
1720785182207526100,10.867526123046876,-0.007589785382151604,0.026897134259343147,-0.03581846132874489
1720785182217539800,10.877539794921875,-0.008655018173158169,0.03541899845004082,-0.0347532257437706
1720785182227553800,10.8875537109375,-0.008655018173158169,0.0023967742454260588,-0.02836182899773121
1720785182237567500,10.8975673828125,-0.012915950268507004,-0.0050598569214344025,-0.02410089783370495
1720785182247581200,10.907581298828125,-0.017176883295178413,-0.011451254598796368,-0.01770949922502041
1720785182257595000,10.917594970703124,-0.024633513763546944,-0.021038351580500603,-0.012383334338665009
1720785182267608800,10.92760888671875,-0.03209014609456062,-0.018907885998487473,-0.004926702938973904
1720785182277622500,10.93762255859375,-0.040612008422613144,-0.03169068321585655,0.008921326138079166
1720785182287636200,10.94763623046875,-0.041677240282297134,-0.04127778112888336,0.02276935614645481
1720785182297650000,10.95764990234375,-0.036351077258586884,-0.016777420416474342,0.02703028731048107
1720785182307663600,10.96766357421875,-0.025698747485876083,-0.026364516466856003,0.02809552103281021
1720785182317677600,10.977677490234376,-0.016111649572849274,0.0002663082559593022,0.02596505545079708
1720785182327691300,10.987691162109375,-0.006524552125483751,-0.0061250897124409676,0.02489982172846794
1720785182337705000,10.997705078125,0.0009320789249613881,-0.016777420416474342,0.02170412242412567
1720785182347718700,11.00771875,0.006258244160562754,-0.012516488321125507,0.02063889056444168
1720785182357732400,11.017732421875,0.006258244160562754,-0.029560215771198273,0.02063889056444168
1720785182367746300,11.027746337890624,0.001997311832383275,-0.028494983911514282,0.01637795753777027
1720785182377760000,11.037760009765625,-0.008655018173158169,-0.027429750189185143,0.014247491955757141
1720785182387773700,11.047773681640624,-0.017176883295178413,-0.04873441159725189,0.01637795753777027
1720785182397787400,11.057787353515625,-0.023568280041217804,-0.016777420416474342,0.01637795753777027
1720785182407801300,11.06780126953125,-0.024633513763546944,-0.0018641578499227762,0.02276935614645481
1720785182417815000,11.07781494140625,-0.019307348877191544,0.011983871459960938,0.02703028731048107
1720785182427828700,11.087828857421876,-0.009720250964164734,0.031158065423369408,0.02703028731048107
1720785182437842400,11.097842529296875,0.006258244160562754,0.016244804486632347,0.0185084231197834
1720785182447856000,11.107856201171876,0.016910573467612267,0.026897134259343147,0.008921326138079166
1720785182457870000,11.1178701171875,0.027562905102968216,0.018375270068645477,0.0003994623839389533
1720785182467883800,11.1278837890625,0.029693370684981346,0.014114337973296642,-0.010252867825329304
1720785182477897500,11.1378974609375,0.025432437658309937,0.03967992961406708,-0.01877473294734955
1720785182487911200,11.1479111328125,0.017975807189941406,0.025831900537014008,-0.01877473294734955
1720785182497924900,11.1579248046875,0.013714875094592571,0.023701434955000877,-0.015579032711684704
1720785182507938800,11.167938720703125,0.011584409512579441,0.0375494658946991,-0.008122402243316174
1720785182517952500,11.177952392578124,0.010519175790250301,0.024766668677330017,0.004660394508391619
1720785182527966200,11.18796630859375,0.011584409512579441,0.04181039705872536,0.011051792651414871
1720785182537980000,11.19797998046875,0.015845341607928276,0.020505735650658607,0.012117025442421436
1720785182547993600,11.20799365234375,0.016910573467612267,0.020505735650658607,0.008921326138079166
1720785182558007600,11.218007568359376,0.017975807189941406,0.023701434955000877,0.004660394508391619
1720785182568021200,11.228021240234375,0.017975807189941406,0.014114337973296642,0.0014646954368799925
1720785182578035000,11.238034912109375,0.015845341607928276,0.029027599841356277,-0.008122402243316174
1720785182588048600,11.248048583984374,0.009453942999243736,0.03861469775438309,-0.013448567129671574
1720785182598062600,11.2580625,0.006258244160562754,0.024766668677330017,-0.012383334338665009
1720785182608076300,11.268076171875,0.008388710208237171,0.05352795869112015,-0.015579032711684704
1720785182618090000,11.278090087890625,0.010519175790250301,0.05139749497175217,-0.014513799920678139
1720785182628103700,11.288103759765624,0.015845341607928276,0.05033225938677788,-0.010252867825329304
1720785182638117400,11.298117431640625,0.022236740216612816,0.04607132822275162,-0.0038614696823060513
1720785182648131300,11.30813134765625,0.026497671380639076,0.016244804486632347,0.0003994623839389533
1720785182658145000,11.31814501953125,0.026497671380639076,0.013049104250967503,0.0014646954368799925
1720785182668158700,11.32815869140625,0.025432437658309937,0.0077229393646121025,0.00359516148455441
1720785182678172400,11.33817236328125,0.021171506494283676,0.010918638668954372,-0.000665770610794425
1720785182688186000,11.34818603515625,0.015845341607928276,0.03435376659035683,-0.009187635034322739
1720785182698200000,11.358199951171875,0.008388710208237171,0.03541899845004082,-0.013448567129671574
1720785182708213800,11.3682138671875,0.008388710208237171,0.027962366119027138,-0.012383334338665009
1720785182718227500,11.3782275390625,0.013714875094592571,0.03861469775438309,-0.012383334338665009
1720785182728241200,11.3882412109375,0.016910573467612267,0.021570969372987747,-0.005991935729980469
1720785182738254800,11.3982548828125,0.021171506494283676,0.023701434955000877,-0.0017310036346316338
1720785182748268800,11.408268798828125,0.024367205798625946,0.018375270068645477,-0.0038614696823060513
1720785182758282500,11.418282470703126,0.028628136962652206,-0.002929390873759985,-0.007057168986648321
1720785182768296200,11.428296142578125,0.027562905102968216,0.014114337973296642,-0.010252867825329304
1720785182778310000,11.438309814453126,0.025432437658309937,0.018375270068645477,-0.012383334338665009
1720785182788323800,11.44832373046875,0.021171506494283676,0.025831900537014008,-0.014513799920678139
1720785182798337500,11.458337646484376,0.016910573467612267,0.03435376659035683,-0.015579032711684704
1720785182808351200,11.468351318359375,0.010519175790250301,0.027962366119027138,-0.010252867825329304
1720785182818365000,11.478364990234375,0.010519175790250301,0.026897134259343147,-0.007057168986648321
1720785182828378600,11.488378662109374,0.013714875094592571,0.0375494658946991,-0.005991935729980469
1720785182838392600,11.498392578125,0.020106272771954536,0.024766668677330017,0.0014646954368799925
1720785182848406300,11.50840625,0.022236740216612816,0.04500609636306763,0.005725627299398184
1720785182858420000,11.518419921875,0.030758604407310486,0.0077229393646121025,0.02063889056444168
1720785182868433700,11.52843359375,0.030758604407310486,-0.03169068321585655,0.03661738336086273
1720785182878447400,11.538447265625,0.028628136962652206,-0.09560466557741165,0.0611177459359169
1720785182888461300,11.54846142578125,0.015845341607928276,0.12596380710601807,-0.01983996480703354
1720785182898475000,11.55847509765625,0.016910573467612267,0.08655018359422684,-0.01877473294734955
1720785182908488700,11.56848876953125,0.014780107885599136,0.04181039705872536,0.005725627299398184
1720785182918502400,11.57850244140625,0.015845341607928276,0.029027599841356277,0.03448691964149475
1720785182928516000,11.58851611328125,0.014780107885599136,0.03541899845004082,0.05685681104660034
1720785182938530000,11.598530029296874,0.014780107885599136,0.04074516147375107,0.0611177459359169
1720785182948543700,11.608543701171875,0.019041040912270546,0.04287562891840935,0.05472634732723236
1720785182958557400,11.618557373046874,0.024367205798625946,0.05778888985514641,0.05153064802289009
1720785182968571100,11.628571044921875,0.028628136962652206,0.04713656008243561,0.05685681104660034
1720785182978585000,11.638585205078124,0.029693370684981346,0.03435376659035683,0.06431344151496887
1720785182988598800,11.648598876953125,0.042476166039705276,0.06524552404880524,0.06537867337465286
1720785182998612500,11.658612548828126,0.038215234875679016,0.05565842613577843,0.04833494871854782
1720785183008626200,11.668626220703125,0.038215234875679016,0.05565842613577843,0.03342168778181076
1720785183018640000,11.678639892578126,0.038215234875679016,0.05672365799546242,0.0185084231197834
1720785183028653800,11.68865380859375,0.0712374597787857,-0.12117026001214981,0.1356840580701828
1720785183038667500,11.69866748046875,0.035019535571336746,-0.6709636449813843,0.41797080636024475
1720785183048681200,11.70868115234375,-0.03209014609456062,-0.6283543109893799,0.38601380586624146
1720785183058695000,11.71869482421875,-0.07256899774074554,-0.28947708010673523,0.20279373228549957
1720785183068708600,11.72870849609375,-0.05978620424866676,-0.08921326696872711,0.08774857223033905
1720785183078722600,11.73872265625,-0.0011983871227130294,-0.04979964345693588,0.05153064802289009
1720785183088736300,11.748736328125,0.03928046673536301,0.03435376659035683,0.0185084231197834
1720785183098750000,11.75875,0.008388710208237171,0.25379177927970886,-0.01770949922502041
1720785183108763600,11.768763671875,-0.012915950268507004,0.5477960705757141,-0.01877473294734955
1720785183118777300,11.77877734375,-0.007589785382151604,0.793864905834198,-0.06351451575756073
1720785183128791300,11.788791259765626,0.050998032093048096,1.0111724138259888,-0.1199718713760376
1720785183138805000,11.798804931640625,0.13195574283599854,1.021824836730957,-0.20306004583835602
1720785183148818700,11.808818603515626,0.07975932210683823,0.45938172936439514,-0.1934729516506195
1720785183158832600,11.81883251953125,0.010519175790250301,-0.09453943371772766,-0.14447222650051117
1720785183168846300,11.828846435546875,0.05632419511675835,-0.07536523789167404,-0.06138405203819275
1720785183178860000,11.838860107421874,0.09999874979257584,-0.0370168462395668,-0.012383334338665009
1720785183188874000,11.8488740234375,0.13302096724510193,-0.20319320261478424,-0.03901416063308716
1720785183198887700,11.8588876953125,0.17243459820747375,-0.21597599983215332,-0.04753602296113968
1720785183208901600,11.868901611328125,0.19693495333194733,0.005592473316937685,-0.02623136341571808
1720785183218915300,11.878915283203124,0.1362166702747345,0.22290000319480896,-0.01877473294734955
1720785183228929000,11.888928955078125,0.09467258304357529,0.3432713449001312,0.008921326138079166
1720785183238943000,11.89894287109375,0.09467258304357529,0.36138030886650085,0.06537867337465286
1720785183248956700,11.908956787109375,0.15006470680236816,-0.2628462612628937,0.3146432042121887
1720785183258970600,11.918970703125,0.07975932210683823,0.18135592341423035,0.17190198600292206
1720785183268984300,11.928984375,0.07762885838747025,0.2069215178489685,0.09200949966907501
1720785183278998000,11.938998046875,0.07975932210683823,0.016244804486632347,0.03448691964149475
1720785183289012000,11.949011962890625,0.06804175674915314,-0.0902784988284111,-0.03794892504811287
1720785183299025700,11.959025634765625,0.040345702320337296,-0.12330072373151779,-0.09227581322193146
1720785183309039600,11.96903955078125,-0.0001331541279796511,-0.09134373068809509,-0.1295589655637741
1720785183319053300,11.97905322265625,-0.050199106335639954,-0.05512581020593643,-0.13701559603214264
1720785183329067300,11.9890673828125,-0.07469946891069412,-0.028494983911514282,-0.08694964647293091
1720785183339081000,11.9990810546875,-0.08215609937906265,-0.027429750189185143,-0.03581846132874489
1720785183349094700,12.0090947265625,-0.061916667968034744,-0.07216953486204147,-0.02303566411137581
1720785183359108600,12.019108642578125,-0.037416309118270874,-0.1754971444606781,0.0003994623839389533
1720785183369122300,12.029122314453126,-0.022503048181533813,-0.32995593547821045,-0.03262276202440262
1720785183379136300,12.03913623046875,-0.03528584539890289,-0.4568518102169037,-0.10612384229898453
1720785183389150000,12.04914990234375,-0.051264338195323944,-0.5548532605171204,-0.14979839324951172
1720785183399163600,12.05916357421875,-0.03528584539890289,-0.5687012672424316,-0.15405932068824768
1720785183409177600,12.069177490234376,0.027562905102968216,-0.5250267386436462,-0.15618979930877686
1720785183419191300,12.07919140625,0.026497671380639076,-0.2287587970495224,-0.09547150880098343
1720785183429205200,12.089205322265625,-0.005459319334477186,-0.13608351349830627,-0.04647079110145569
1720785183439219000,12.099218994140625,-0.007589785382151604,-0.05406057462096214,0.03555215150117874
1720785183449232600,12.109232666015625,-0.0033288532868027687,0.006657706573605537,0.09520520269870758
1720785183459246600,12.11924658203125,-0.024633513763546944,0.2069215178489685,0.1346188187599182
1720785183469260300,12.12926025390625,-0.028894444927573204,0.6074491143226624,0.16444534063339233
1720785183479274000,12.13927392578125,-0.053394805639982224,0.578687846660614,0.07922670245170593
1720785183489287700,12.14928759765625,-0.0768299326300621,0.10678961127996445,-0.04966649040579796
1720785183499301400,12.15930126953125,-0.07363422960042953,-0.12543119490146637,-0.08908011019229889
1720785183509315300,12.1693154296875,-0.043807707726955414,-0.1115831583738327,-0.06138405203819275
1720785183519329000,12.1793291015625,-0.008655018173158169,-0.00719032296910882,-0.007057168986648321
1720785183529342700,12.1893427734375,-0.007589785382151604,0.05246272683143616,0.03022598661482334
1720785183539356400,12.1993564453125,-0.024633513763546944,0.0482017956674099,0.05472634732723236
1720785183549370000,12.2093701171875,-0.034220609813928604,0.04926702752709389,0.06324820965528488
1720785183559384000,12.219384033203125,-0.04593817517161369,0.06098458915948868,0.05898727849125862
1720785183569397800,12.229397705078124,-0.053394805639982224,0.04500609636306763,0.05685681104660034
1720785183579411500,12.239411376953125,-0.05232957378029823,0.024766668677330017,0.04513924941420555
1720785183589425200,12.249425048828124,-0.047003407031297684,0.14620323479175568,0.07603100687265396
1720785183599439000,12.259439208984375,-0.033155377954244614,1.5320713520050049,0.36257869005203247
1720785183609452800,12.269452880859374,0.058454662561416626,1.4883968830108643,0.305056095123291
1720785183619466500,12.279466552734375,0.043541401624679565,0.9046491384506226,0.2752295732498169
1720785183629480200,12.289480224609376,-0.010785484686493874,0.6830806732177734,0.26670771837234497
1720785183639494000,12.299493896484375,-0.2142449915409088,1.1560441255569458,0.30292564630508423
1720785183649507800,12.3095078125,-0.21957115828990936,0.3975982367992401,0.08348763734102249
1720785183659521500,12.319521484375,-0.1418091505765915,-0.12330072373151779,-0.012383334338665009
1720785183669535200,12.32953515625,-0.09067796170711517,-0.2191716879606247,-0.07097115367650986
1720785183679549000,12.339548828125,0.11597724258899689,-0.6517894268035889,-0.2147776037454605
1720785183689562600,12.349562744140625,-0.1311568170785904,-0.2905423045158386,-0.2264951765537262
1720785183699576600,12.35957666015625,-0.21744069457054138,0.555252730846405,0.06857437640428543
1720785183709590300,12.36959033203125,0.0009320789249613881,-0.06577813625335693,0.07496577501296997
1720785183719604000,12.37960400390625,-0.151396244764328,-0.04553871229290962,0.02276935614645481
1720785183729617700,12.38961767578125,-0.28241991996765137,-0.027429750189185143,-0.10079767554998398
1720785183739631400,12.39963134765625,-0.3101159632205963,-0.21064983308315277,-0.1625811904668808
1720785183749645300,12.409645263671875,-0.27389803528785706,-0.26817241311073303,-0.22116900980472565
1720785183759659000,12.419658935546876,-0.16950520873069763,-0.5111786723136902,-0.2360822707414627
1720785183769672700,12.429672607421875,0.25978371500968933,-0.7700303196907043,-0.22223423421382904
1720785183779686400,12.439686279296875,0.6869421601295471,-0.9372718930244446,-0.3862801194190979
1720785183789700400,12.449700439453125,0.3929378390312195,-0.09773512929677963,-0.22223423421382904
