time,seconds_elapsed,z,y,x
1696965898203218400,0.096218505859375,0,0,0
1696965898213218800,0.10621875,-0.050095558166503906,0.015080273151397705,0.057050466537475586
1696965898223220500,0.116220458984375,1.093735694885254,-0.10436904430389404,-0.007022678852081299
1696965898233223400,0.126223388671875,0.40054798126220703,-0.3636821210384369,-0.4779447615146637
1696965898243228400,0.136228515625,-0.8141040802001953,0.015067517757415771,0.06729233264923096
1696965898253235500,0.1462353515625,0.7150955200195312,0.2495383620262146,0.10475826263427734
1696965898263245000,0.1562451171875,-0.29462337493896484,-0.25962013006210327,0.2515180706977844
1696965898273257000,0.166257080078125,0.3207712173461914,-0.26686790585517883,-0.3153078556060791
1696965898283270000,0.176269775390625,-0.88140869140625,-0.23229476809501648,-0.1616499423980713
1696965898293284900,0.186284912109375,0.09481334686279297,0.3825671672821045,0.19203412532806396
1696965898303302400,0.196302490234375,0.9615364074707031,-0.172723650932312,-0.2749584913253784
1696965898313322000,0.206322021484375,-1.3841047286987305,-0.3990872800350189,-0.2344401478767395
1696965898323343400,0.21634326171875,0.02651691436767578,0.20401877164840698,-0.24309450387954712
1696965898333366300,0.2263662109375,-0.31264686584472656,0.15317624807357788,-0.14727365970611572
1696965898343390000,0.236389892578125,-0.5696992874145508,0.10676717758178711,0.07747626304626465
1696965898353414400,0.246414306640625,1.397989273071289,-0.3943365514278412,-0.7180936932563782
1696965898363439000,0.256439208984375,-2.1019368171691895,0.26819533109664917,-0.10556286573410034
1696965898373457400,0.26645751953125,1.3992481231689453,0.3134329319000244,0.05006086826324463
1696965898383471600,0.2764716796875,-0.7797327041625977,-0.7252349853515625,-0.05579495429992676
1696965898393485600,0.286485595703125,-0.9730892181396484,0.11109709739685059,-0.05376243591308594
1696965898403499800,0.296499755859375,1.8705968856811523,-0.16673505306243896,-0.2942624092102051
1696965898413513700,0.306513671875,-1.9046812057495117,0.48912513256073,0.5846171975135803
1696965898423528000,0.31652783203125,2.5403146743774414,-0.3550620973110199,-0.5998151898384094
1696965898433542000,0.3265419921875,-1.6370396614074707,-0.09876346588134766,0.0786203145980835
1696965898443555800,0.336555908203125,1.1643247604370117,0.11260455846786499,-0.15428400039672852
1696965898453570000,0.346570068359375,0.22649192810058594,-0.021497011184692383,0.06927180290222168
1696965898463584000,0.356583984375,0.1624736785888672,-0.27643683552742004,-0.006132066249847412
1696965898473598200,0.36659814453125,0.6236257553100586,0.03493756055831909,-0.2336476445198059
1696965898483612200,0.376612060546875,-0.25355052947998047,0.028965771198272705,0.268130898475647
1696965898493626400,0.38662646484375,1.7090530395507812,-0.017101287841796875,0.10393178462982178
1696965898503640300,0.396640380859375,0.017876625061035156,-0.23458683490753174,-0.093197762966156
1696965898513654300,0.406654296875,0.091522216796875,-0.34313222765922546,-0.029297232627868652
1696965898523668500,0.41666845703125,-0.212982177734375,0.16307473182678223,0.34100407361984253
1696965898533682400,0.426682373046875,1.7833290100097656,-0.28842905163764954,-0.10321855545043945
1696965898543696600,0.436696533203125,-1.0173864364624023,-0.2901524007320404,0.08921891450881958
1696965898553710600,0.446710693359375,0.1843576431274414,0.10137677192687988,0.1873517632484436
1696965898563724800,0.456724853515625,1.0747032165527344,0.020693480968475342,0.41888612508773804
1696965898573738800,0.46673876953125,-0.3667936325073242,-0.355891615152359,-0.0031026601791381836
1696965898583752700,0.476752685546875,0.030180931091308594,0.19310563802719116,0.13706433773040771
1696965898593767000,0.486766845703125,0.1323537826538086,0.10202401876449585,0.2550700902938843
1696965898603780900,0.49678076171875,0.03096294403076172,-0.11643284559249878,0.42757320404052734
1696965898613795000,0.506795166015625,0.1332540512084961,-0.37369129061698914,-0.22701972723007202
1696965898623809000,0.51680908203125,-1.1284074783325195,0.14330768585205078,0.2962130308151245
1696965898633823200,0.5268232421875,0.9615888595581055,0.333557665348053,0.11616009473800659
1696965898643837200,0.536837158203125,0.20048999786376953,-0.4365640878677368,0.19135403633117676
1696965898653851100,0.54685107421875,-1.3225278854370117,0.027599871158599854,-0.2656182646751404
1696965898663865300,0.556865234375,1.1624431610107422,0.023171722888946533,0.3845713138580322
1696965898673879300,0.56687939453125,-0.5362434387207031,-0.14892226457595825,-0.13101297616958618
1696965898683893500,0.5768935546875,-0.16434764862060547,-0.13940906524658203,0.15263009071350098
1696965898693907500,0.586907470703125,0.37919139862060547,-0.003063678741455078,-0.161973774433136
1696965898703921700,0.596921630859375,-0.5023174285888672,0.07360708713531494,0.4093497395515442
1696965898713935600,0.606935546875,1.5841197967529297,-0.40767616033554077,-0.20262837409973145
1696965898723949600,0.616949462890625,-1.4819965362548828,-0.023286938667297363,-0.07714134454727173
1696965898733963800,0.6269638671875,0.23776817321777344,0.06346017122268677,0.12689071893692017
1696965898743977700,0.636977783203125,1.1741876602172852,0.19730204343795776,0.19699859619140625
1696965898753992000,0.646991943359375,-0.7710285186767578,-0.5592429637908936,-0.7650165557861328
1696965898764006000,0.657005859375,-0.8094425201416016,0.25687098503112793,-0.07291924953460693
1696965898774020000,0.66702001953125,1.196084976196289,0.15698307752609253,0.0530279278755188
1696965898784034000,0.677033935546875,0.33747100830078125,-0.5545334815979004,-0.3219878077507019
1696965898794048000,0.687048095703125,-1.1188106536865234,0.13115465641021729,-0.3386952877044678
1696965898804062200,0.697062255859375,0.11988544464111328,0.18482577800750732,-0.15090763568878174
1696965898814076200,0.707076171875,-0.1930370330810547,0.4029465913772583,0.12370330095291138
1696965898824090400,0.71709033203125,1.1159534454345703,-0.40121349692344666,-0.30473804473876953
1696965898834104300,0.727104248046875,-1.2827796936035156,0.10208415985107422,-0.31588709354400635
1696965898844118500,0.737118408203125,0.2556295394897461,0.1021454930305481,-0.4077099561691284
1696965898854132500,0.747132568359375,0.3131675720214844,-0.03287285566329956,0.5095638632774353
1696965898864146400,0.757146484375,-0.06440067291259766,-0.1328369379043579,-0.9067724943161011
1696965898874160600,0.76716064453125,-1.4227027893066406,-0.04752904176712036,0.029717683792114258
1696965898884174600,0.777174560546875,1.118586540222168,0.20737522840499878,0.01067274808883667
1696965898894188800,0.787188720703125,-0.14362335205078125,-0.5140153169631958,-0.2367876172065735
1696965898904202800,0.79720263671875,-1.0347003936767578,0.10535651445388794,-0.675087571144104
1696965898914217000,0.807217041015625,0.20363426208496094,0.07290762662887573,0.06432795524597168
1696965898924231000,0.81723095703125,-0.06890869140625,0.1541980504989624,-0.14975738525390625
1696965898934245000,0.8272451171875,0.3152647018432617,-0.39463385939598083,-0.6184068918228149
1696965898944259000,0.837259033203125,-1.6364259719848633,0.06429934501647949,-0.07694971561431885
1696965898954273000,0.84727294921875,1.2546653747558594,0.13171744346618652,0.10109817981719971
1696965898964287200,0.857287353515625,-0.1230154037475586,-0.1623988151550293,-0.05461585521697998
1696965898974301200,0.86730126953125,-0.7648506164550781,-0.18247395753860474,-0.20864123106002808
1696965898984315400,0.8773154296875,0.8533010482788086,0.18761497735977173,-0.09841984510421753
1696965898994329300,0.887329345703125,-0.5104436874389648,-0.09947681427001953,0.031503498554229736
1696965899004343600,0.897343505859375,0.6883049011230469,-0.1647527813911438,-0.1157570481300354
1696965899014357500,0.907357421875,-0.47464656829833984,-0.04168546199798584,-0.18112099170684814
1696965899024371500,0.917371337890625,0.3592376708984375,-0.021281957626342773,0.17258960008621216
1696965899034385700,0.9273857421875,0.7527379989624023,-0.0792427659034729,-0.06653207540512085
1696965899044399600,0.937399658203125,-1.045577049255371,-0.3552074730396271,-0.3174169063568115
1696965899054413800,0.947413818359375,-0.08639907836914062,0.21289342641830444,-0.08179426193237305
1696965899064427800,0.957427734375,0.21770572662353516,0.08200663328170776,0.1705939769744873
1696965899074442000,0.96744189453125,0.33849620819091797,-0.34699520468711853,-0.21468740701675415
1696965899084456000,0.9774560546875,-0.7641448974609375,-0.01211404800415039,-0.13384169340133667
1696965899094470000,0.987469970703125,0.9403514862060547,0.002191483974456787,0.04934489727020264
1696965899104484000,0.997484130859375,-0.8417730331420898,-0.023808717727661133,0.16930615901947021
1696965899114498000,1.007498046875,0.5035333633422852,-0.24486353993415833,-0.21947699785232544
1696965899124512300,1.01751220703125,-0.2882270812988281,-0.01752561330795288,-0.35768306255340576
1696965899134526200,1.027526123046875,-0.49850940704345703,-0.1396738886833191,0.22882717847824097
1696965899144540400,1.03754052734375,1.246384620666504,-0.08062803745269775,0.04277414083480835
1696965899154554400,1.047554443359375,-0.6292829513549805,-0.44444119930267334,-0.3880155384540558
1696965899164568300,1.057568359375,-0.3907432556152344,0.19385051727294922,0.5082996487617493
1696965899174582500,1.06758251953125,1.7567148208618164,-0.09858298301696777,0.1290244460105896
1696965899184596500,1.077596435546875,-1.1157636642456055,-0.37556520104408264,-0.09634190797805786
1696965899194610700,1.087610595703125,0.6073751449584961,0.03864699602127075,-0.18438374996185303
1696965899204624600,1.097624755859375,0.8718671798706055,-0.20153099298477173,0.19805878400802612
1696965899214638800,1.107638916015625,-0.3417940139770508,0.005114316940307617,0.15961778163909912
1696965899224653000,1.117653076171875,0.48703765869140625,-0.5465375185012817,-0.1532454490661621
1696965899234667000,1.1276669921875,-0.46177196502685547,0.4111778736114502,0.34146714210510254
1696965899244681200,1.13768115234375,0.8851661682128906,-0.13715797662734985,0.305019736289978
1696965899254695400,1.1476953125,0.5067481994628906,-0.30437400937080383,-0.10001766681671143
1696965899264709400,1.15770947265625,-0.8744134902954102,-0.24520352482795715,-0.5106916427612305
1696965899274723600,1.1677236328125,0.14940452575683594,0.38804805278778076,0.09331870079040527
1696965899284737500,1.177737548828125,0.3376798629760742,-0.2607073485851288,0.05788975954055786
1696965899294751700,1.187751708984375,-0.13996124267578125,-0.4404996931552887,-0.1664140224456787
1696965899304766000,1.197765869140625,0.10333061218261719,-0.1234743595123291,-0.219762921333313
1696965899314780000,1.20777978515625,-0.9038877487182617,0.12701475620269775,0.18801885843276978
1696965899324794000,1.217794189453125,0.7417678833007812,0.2531437277793884,0.14415907859802246
1696965899334808300,1.227808349609375,0.009359359741210938,-0.785362958908081,-0.49301543831825256
1696965899344822300,1.237822265625,-1.5202789306640625,0.44391030073165894,-0.3865498900413513
1696965899354836500,1.24783642578125,0.44995594024658203,-0.1407080888748169,0.30730998516082764
1696965899364850700,1.2578505859375,0.5311670303344727,0.17582666873931885,-0.03213036060333252
1696965899374864600,1.26786474609375,-0.004790306091308594,-0.39031580090522766,-0.4070925712585449
1696965899384878800,1.27787890625,-1.0453824996948242,0.2554517388343811,-0.13517028093338013
1696965899394892800,1.287892822265625,0.649993896484375,0.2767583131790161,0.15536004304885864
1696965899404907000,1.297906982421875,0.3688974380493164,-0.3250317871570587,-0.08947676420211792
1696965899414921200,1.307921142578125,-0.89788818359375,-0.17649561166763306,-0.5130140781402588
1696965899424935200,1.31793505859375,-0.2017354965209961,-0.12194383144378662,0.07780754566192627
1696965899434949400,1.327949462890625,0.7264909744262695,0.24899280071258545,-0.18149793148040771
1696965899444963600,1.337963623046875,-0.4626178741455078,-0.5006951093673706,-0.24648743867874146
1696965899454977500,1.3479775390625,-0.09305953979492188,0.10208499431610107,-0.504322350025177
1696965899464991700,1.35799169921875,-0.4913768768310547,0.04232901334762573,-0.16901034116744995
1696965899475006000,1.368005859375,0.2917661666870117,-0.1469745635986328,-0.26896607875823975
1696965899485020000,1.37802001953125,-0.12363815307617188,-0.3295253813266754,-0.484566867351532
1696965899495034000,1.3880341796875,-0.7359142303466797,0.20471280813217163,-0.42849624156951904
1696965899505048000,1.398048095703125,0.4156169891357422,0.05117601156234741,-0.02796149253845215
1696965899515062300,1.408062255859375,0.4885978698730469,-0.059139788150787354,0.019568920135498047
1696965899525076500,1.418076416015625,-0.38010692596435547,-0.43250876665115356,-0.2162075638771057
1696965899535090400,1.42809033203125,-0.41529369354248047,0.3412187099456787,-0.06772923469543457
1696965899545104600,1.438104736328125,1.2474918365478516,0.28569912910461426,0.2941780090332031
1696965899555118800,1.448118896484375,-0.2738170623779297,-0.17519521713256836,0.006362259387969971
1696965899565132800,1.4581328125,0.01823711395263672,-0.06903243064880371,-0.19748073816299438
1696965899575147000,1.46814697265625,-0.16234874725341797,-0.10932362079620361,-0.24022239446640015
1696965899585161200,1.4781611328125,-0.2707948684692383,0.2638465166091919,0.1772977113723755
1696965899595175200,1.488175048828125,0.9394216537475586,-0.17676419019699097,-0.08536934852600098
1696965899605189400,1.498189453125,-0.7082738876342773,-0.04380601644515991,-0.2943044900894165
1696965899615203300,1.508203369140625,0.2622995376586914,0.1955554485321045,0.06051647663116455
1696965899625217500,1.518217529296875,0.17957305908203125,0.0039261579513549805,0.28867167234420776
1696965899635231700,1.528231689453125,0.18303394317626953,-0.31006237864494324,-0.1882752776145935
1696965899645245700,1.53824560546875,-0.3319883346557617,0.15304380655288696,-0.17367124557495117
1696965899655260000,1.548260009765625,-0.3678569793701172,-0.051405489444732666,0.09850633144378662
1696965899665274000,1.558274169921875,0.8001127243041992,0.08014875650405884,0.2143237590789795
1696965899675288000,1.5682880859375,0.08599281311035156,-0.646613359451294,-0.2504260540008545
1696965899685302300,1.57830224609375,-1.0806159973144531,0.21210980415344238,0.054635822772979736
1696965899695316200,1.588316162109375,1.7152099609375,0.14961189031600952,0.17508310079574585
1696965899705330400,1.598330322265625,-0.6755876541137695,-0.2903035581111908,0.10560101270675659
1696965899715344600,1.6083447265625,0.5374794006347656,-0.3331165015697479,-0.2509647607803345
1696965899725358600,1.618358642578125,-0.09394264221191406,0.05653679370880127,-0.07598567008972168
1696965899735372800,1.628372802734375,0.4298238754272461,-0.14523780345916748,0.18007153272628784
1696965899745387000,1.638386962890625,0.7891397476196289,-0.498858779668808,-0.18560165166854858
1696965899755401000,1.64840087890625,-0.1300334930419922,-0.05731886625289917,-0.13946837186813354
1696965899765415200,1.658415283203125,0.3280515670776367,-0.18747586011886597,-0.17384016513824463
1696965899775429400,1.668429443359375,0.2733640670776367,-0.008532583713531494,0.5150420069694519
1696965899785443300,1.678443359375,1.281142234802246,-0.5973094701766968,-0.39684364199638367
1696965899795457500,1.68845751953125,-1.0404291152954102,-0.05818372964859009,-0.42467886209487915
1696965899805471500,1.698471435546875,0.4227790832519531,-0.1618729829788208,0.05165809392929077
1696965899815485700,1.708485595703125,0.572758674621582,-0.025741934776306152,-0.10116177797317505
1696965899825500000,1.7185,-0.5256834030151367,-0.39513304829597473,-0.32938674092292786
1696965899835513900,1.728513916015625,0.22527313232421875,-0.03767329454421997,-0.2798352837562561
1696965899845528000,1.738528076171875,-0.21866226196289062,-0.0695720911026001,0.2071205973625183
1696965899855542300,1.748542236328125,-0.3029632568359375,-0.5664157867431641,-0.036088407039642334
1696965899865556200,1.75855615234375,0.1277303695678711,0.05263066291809082,-0.40769416093826294
1696965899875570400,1.7685703125,-1.3584785461425781,-0.018401682376861572,-0.007578253746032715
1696965899885584600,1.778584716796875,0.7115287780761719,0.24919641017913818,0.11485469341278076
1696965899895598600,1.7885986328125,-0.01602649688720703,-0.22485196590423584,0.011740386486053467
1696965899905612800,1.79861279296875,-0.9781169891357422,0.004448235034942627,-0.3338795006275177
1696965899915626800,1.808626708984375,0.23767375946044922,0.20683437585830688,-0.04307591915130615
1696965899925641000,1.818640869140625,-0.1877450942993164,0.11022621393203735,0.37387627363204956
1696965899935655200,1.8286552734375,0.061270713806152344,-0.20306050777435303,-0.5906002521514893
1696965899945669000,1.838669189453125,-1.3442678451538086,0.13609421253204346,-0.054657578468322754
1696965899955683300,1.848683349609375,0.9354619979858398,0.09811568260192871,-0.18036997318267822
1696965899965697500,1.858697509765625,-0.6178112030029297,-0.06163835525512695,-0.12446844577789307
1696965899975711500,1.86871142578125,0.11430740356445312,-0.3261171281337738,-0.37917742133140564
1696965899985725700,1.8787255859375,0.13791942596435547,0.15833812952041626,-0.23738420009613037
1696965899995740000,1.888739990234375,-0.7826213836669922,0.04061400890350342,-0.10110843181610107
1696965900005753900,1.89875390625,1.503988265991211,-0.38862696290016174,-0.28307008743286133
1696965900015768000,1.90876806640625,-1.2816543579101562,-0.14658105373382568,-0.3084146976470947
1696965900025782000,1.918781982421875,0.24037742614746094,-0.21507501602172852,-0.17800301313400269
1696965900035796200,1.928796142578125,0.7967443466186523,-0.005609393119812012,0.08367270231246948
1696965900045810400,1.938810546875,0.6019649505615234,-0.616944432258606,-0.4603593349456787
1696965900055824400,1.948824462890625,-0.6827821731567383,-0.08197909593582153,-0.25615689158439636
1696965900065838600,1.958838623046875,0.6931533813476562,-0.24759051203727722,0.06589818000793457
1696965900075852800,1.968852783203125,0.4943208694458008,0.1902756690979004,0.2543783187866211
1696965900085866800,1.97886669921875,-0.1467437744140625,-0.5514582395553589,-0.41390013694763184
1696965900095881000,1.988880859375,-0.24108123779296875,0.3414129614830017,-0.3660975694656372
1696965900105895200,1.998895263671875,0.10816287994384766,-0.32883748412132263,0.13185274600982666
1696965900115909000,2.0089091796875,0.49372291564941406,-0.42379525303840637,-0.3735365569591522
1696965900125923300,2.01892333984375,-1.3718738555908203,-0.14896678924560547,-0.685634970664978
1696965900135937300,2.028937255859375,0.0078277587890625,0.05263543128967285,0.2378290891647339
1696965900145951500,2.038951416015625,0.07475090026855469,-0.002141594886779785,0.15420955419540405
1696965900155965700,2.048965576171875,-0.0779256820678711,-0.4095548093318939,-0.057384610176086426
1696965900165979600,2.058979736328125,-0.5635671615600586,-0.13678127527236938,-0.10628783702850342
1696965900175993900,2.068993896484375,0.47385215759277344,0.17715984582901,0.17878353595733643
1696965900186008000,2.079008056640625,-0.024303436279296875,-0.24384158849716187,0.05993443727493286
1696965900196022000,2.08902197265625,-0.24320125579833984,-0.26801201701164246,-0.1003032922744751
1696965900206036200,2.0990361328125,0.12980937957763672,-0.062100768089294434,-0.06999677419662476
1696965900216050400,2.109050537109375,-0.23299407958984375,-0.2150753140449524,0.17179417610168457
1696965900226064400,2.119064453125,0.5927505493164062,-0.47053632140159607,0.0008699893951416016
1696965900236078600,2.12907861328125,-0.42050647735595703,-0.44262343645095825,-0.23497241735458374
1696965900246092500,2.139092529296875,-0.49481964111328125,-0.014593124389648438,0.2184348702430725
1696965900256106800,2.149106689453125,1.023625373840332,-0.13839775323867798,0.09961992502212524
1696965900266121000,2.159120849609375,0.1224660873413086,-0.42909231781959534,0.06883913278579712
1696965900276135000,2.169135009765625,-0.07357406616210938,-0.5039255619049072,-0.3937343657016754
1696965900286149000,2.179149169921875,0.18423175811767578,-0.1243215799331665,0.20856571197509766
1696965900296163300,2.189163330078125,0.8938026428222656,-0.30990859866142273,-0.039985716342926025
1696965900306177300,2.19917724609375,-0.4453392028808594,-0.5774146914482117,0.006872773170471191
1696965900316191500,2.20919140625,0.3243703842163086,-0.034928977489471436,-0.1691266894340515
1696965900326205700,2.219205810546875,0.14184188842773438,-0.5519420504570007,0.19827020168304443
1696965900336219600,2.2292197265625,0.8990554809570312,-0.29426392912864685,0.17618107795715332
1696965900346233900,2.23923388671875,0.4804983139038086,-0.6795697808265686,-0.6754106283187866
1696965900356247800,2.249247802734375,-1.2814445495605469,0.030297398567199707,0.21889585256576538
1696965900366262000,2.259261962890625,1.8908042907714844,-0.37511518597602844,-0.04576486349105835
1696965900376276200,2.269276123046875,-0.46369457244873047,-0.8315340876579285,-0.2577407956123352
1696965900386290200,2.279290283203125,-0.614293098449707,-0.22598719596862793,-0.4227214455604553
1696965900396304400,2.289304443359375,0.9339704513549805,-0.28540077805519104,-0.09199869632720947
1696965900406318600,2.299318603515625,-0.47231483459472656,-0.4186999499797821,0.23694634437561035
1696965900416332500,2.30933251953125,0.39806175231933594,-0.7063858509063721,-0.6314982175827026
1696965900426346800,2.3193466796875,-1.2154006958007812,-0.02915215492248535,-0.11178332567214966
1696965900436360700,2.329360595703125,0.8551263809204102,-0.20073187351226807,-0.10903394222259521
1696965900446375000,2.339375,-0.23084354400634766,-0.44329994916915894,-0.1354714035987854
1696965900456389000,2.34938916015625,-0.9547872543334961,-0.3036225140094757,-0.37798604369163513
1696965900466403000,2.359403076171875,0.5617866516113281,0.08087581396102905,-0.13458502292633057
1696965900476417300,2.369417236328125,-0.47089290618896484,0.11287766695022583,0.11378997564315796
1696965900486431500,2.379431396484375,0.2468709945678711,-0.47701457142829895,-0.10608220100402832
1696965900496445400,2.389445556640625,-0.6174564361572266,0.32034236192703247,-0.06814885139465332
1696965900506459600,2.399459716796875,0.4632444381713867,0.11799514293670654,0.048247694969177246
1696965900516473900,2.409473876953125,-0.09191703796386719,-0.12339997291564941,0.004951119422912598
1696965900526487800,2.41948779296875,-0.5399332046508789,0.01445680856704712,-0.11303716897964478
1696965900536502000,2.429501953125,0.07306098937988281,0.05631142854690552,-0.07412701845169067
1696965900546516700,2.439516845703125,0.2538900375366211,0.07547163963317871,-0.1193588376045227
1696965900556530700,2.44953076171875,0.27220630645751953,-0.22350257635116577,-0.2540523111820221
1696965900566544600,2.459544677734375,-0.983642578125,0.06351816654205322,-0.20513403415679932
1696965900576558600,2.46955859375,0.4326667785644531,-0.12279683351516724,-0.2045080065727234
1696965900586572500,2.479572509765625,0.16868019104003906,-0.11478233337402344,-0.1619170904159546
1696965900596586500,2.48958642578125,-0.6142339706420898,-0.0057713985443115234,0.02225816249847412
1696965900606600400,2.499600341796875,0.5857744216918945,0.12318670749664307,-0.401134729385376
1696965900616614400,2.509614501953125,0.4119224548339844,-0.1749744415283203,0.2745506167411804
1696965900626628400,2.51962841796875,0.4532613754272461,-0.09010154008865356,-0.4033268690109253
1696965900636642300,2.529642333984375,-0.9892349243164062,0.05622583627700806,0.16814547777175903
1696965900646656500,2.539656494140625,1.5147457122802734,0.17725259065628052,-0.006903946399688721
1696965900656670500,2.54967041015625,0.001285552978515625,0.009338140487670898,-0.05162936449050903
1696965900666684700,2.5596845703125,-0.8241987228393555,-0.10021805763244629,-0.4668880105018616
1696965900676699000,2.569698974609375,0.009307861328125,0.1006932258605957,-0.010338842868804932
1696965900686713000,2.579713134765625,0.6488981246948242,-0.293260782957077,-0.32120755314826965
1696965900696727300,2.589727294921875,-1.6153011322021484,0.1691417694091797,-0.49351105093955994
1696965900706741500,2.599741455078125,0.15182209014892578,0.13653230667114258,-0.1333528757095337
1696965900716755500,2.60975537109375,0.4568643569946289,-0.018978476524353027,-0.14830005168914795
1696965900726769700,2.619769775390625,-1.7970538139343262,0.08953607082366943,-0.3704880475997925
1696965900736784000,2.629783935546875,0.9202804565429688,0.10113310813903809,-0.34331387281417847
1696965900746798000,2.639798095703125,-0.44754886627197266,-0.14603257179260254,0.16216635704040527
1696965900756812300,2.649812255859375,-0.3553810119628906,-0.2820742428302765,-0.02730041742324829
1696965900766826500,2.659826416015625,0.0614776611328125,0.2711647152900696,-0.2975664734840393
1696965900776840400,2.66984033203125,-0.10107994079589844,-0.015278518199920654,-0.029492080211639404
1696965900786854700,2.679854736328125,0.3338165283203125,-0.05441099405288696,0.2545427083969116
1696965900796868900,2.689868896484375,-0.6935024261474609,0.012313604354858398,-0.19092559814453125
1696965900806883000,2.699883056640625,0.33512115478515625,-0.05288201570510864,-0.04682135581970215
1696965900816897300,2.709897216796875,1.546290397644043,0.14654898643493652,0.19029033184051514
1696965900826911500,2.719911376953125,-1.046208381652832,-0.247217059135437,-0.22674554586410522
1696965900836925700,2.72992578125,0.3368072509765625,-0.028280138969421387,-0.010499894618988037
1696965900846939600,2.739939697265625,1.6769399642944336,0.0889938473701477,0.26061075925827026
1696965900856953900,2.749953857421875,-1.2501802444458008,-0.14694654941558838,-0.014047861099243164
1696965900866968000,2.759968017578125,0.758697509765625,-0.13757508993148804,0.026885569095611572
1696965900876982300,2.769982177734375,2.016312599182129,-0.09729456901550293,0.034507036209106445
1696965900886996500,2.77999658203125,-1.6949338912963867,0.06861364841461182,-0.053177595138549805
1696965900897010700,2.7900107421875,0.9266443252563477,-0.20029395818710327,-0.04550135135650635
1696965900907024600,2.800024658203125,1.2195253372192383,0.09350186586380005,0.10984766483306885
1696965900917038800,2.810038818359375,-1.228780746459961,-0.06535720825195312,-0.23514801263809204
1696965900927053000,2.820052978515625,0.05481910705566406,-0.1685670018196106,-0.26678571105003357
1696965900937067300,2.8300673828125,0.8710441589355469,0.06523877382278442,0.13324803113937378
1696965900947081500,2.84008154296875,-0.24403667449951172,0.11434143781661987,-0.3124145269393921
1696965900957095700,2.850095703125,-1.2980966567993164,-0.4534972608089447,0.012048065662384033
1696965900967109600,2.860109619140625,1.1601686477661133,0.12180811166763306,0.017077863216400146
1696965900977123800,2.870123779296875,-0.8149557113647461,-0.07962125539779663,-0.014814257621765137
1696965900987137800,2.8801376953125,-1.3040437698364258,-0.1763802170753479,-0.1331602931022644
1696965900997152000,2.890152099609375,1.5268468856811523,0.1526983380317688,-0.08567583560943604
1696965901007166200,2.900166259765625,-1.371133804321289,-0.07646006345748901,-0.06331729888916016
1696965901017180200,2.91018017578125,-0.9368782043457031,-0.15913718938827515,-0.19631922245025635
1696965901027194400,2.9201943359375,1.0716524124145508,0.30780673027038574,-0.17195367813110352
1696965901037208600,2.93020849609375,-1.2662324905395508,-0.12117558717727661,0.0928545594215393
1696965901047222500,2.940222412109375,-0.7894668579101562,-0.1945667266845703,-0.4401783347129822
1696965901057236700,2.95023681640625,0.6075706481933594,0.06296098232269287,-0.2595880627632141
1696965901067251000,2.9602509765625,-0.12491226196289062,-0.024017632007598877,0.036773681640625
1696965901077265000,2.970264892578125,-0.5158700942993164,-0.1386318802833557,-0.43290191888809204
1696965901087279000,2.980279052734375,0.5838642120361328,-0.01226186752319336,0.15137845277786255
1696965901097293000,2.99029296875,0.7015790939331055,-0.024659156799316406,-0.18578898906707764
1696965901107307300,3.000307373046875,-1.5640363693237305,-0.11374330520629883,0.2392575740814209
1696965901117321500,3.010321533203125,2.2223939895629883,-0.21105241775512695,-0.6371510028839111
1696965901127335400,3.02033544921875,-0.2291107177734375,0.20063185691833496,0.2950478196144104
1696965901137349600,3.030349609375,0.24859905242919922,-0.30253472924232483,-0.3127586841583252
1696965901147363800,3.04036376953125,0.7542333602905273,-0.01721888780593872,-0.1812363862991333
1696965901157377800,3.050377685546875,0.12618732452392578,0.044847965240478516,0.043917953968048096
1696965901167392000,3.06039208984375,-0.21309852600097656,-0.2572438716888428,-0.19128257036209106
1696965901177406200,3.07040625,0.30313777923583984,-0.03986549377441406,-0.14226549863815308
1696965901187420200,3.080420166015625,1.0378408432006836,-0.0379146933555603,-0.17293661832809448
1696965901197434400,3.090434326171875,-1.0664777755737305,-0.3202020227909088,-0.07829099893569946
1696965901207448300,3.1004482421875,1.0904531478881836,-0.045513927936553955,-0.19669222831726074
1696965901217462500,3.110462646484375,0.32813072204589844,0.16998380422592163,0.0012796521186828613
1696965901227476700,3.120476806640625,-1.4158344268798828,-0.06390625238418579,0.06162077188491821
1696965901237490700,3.13049072265625,0.6945390701293945,-0.10117727518081665,0.11071175336837769
1696965901247505000,3.1405048828125,0.52069091796875,0.19701296091079712,0.003553032875061035
1696965901257519000,3.15051904296875,-1.5915603637695312,-0.2628777027130127,0.0071250200271606445
1696965901267533000,3.160532958984375,0.7627334594726562,0.11262458562850952,-0.07553428411483765
1696965901277547300,3.17054736328125,-0.22295761108398438,0.1082310676574707,0.15053719282150269
1696965901287561500,3.1805615234375,-1.7220354080200195,-0.028323650360107422,-0.024478137493133545
1696965901297575400,3.190575439453125,1.0913448333740234,0.0062105655670166016,-0.018053829669952393
1696965901307589600,3.200589599609375,-0.47353649139404297,-0.010204315185546875,0.14796555042266846
1696965901317603600,3.210603515625,-0.7063322067260742,-0.1510676145553589,-0.2420254945755005
1696965901327617800,3.22061767578125,0.22240161895751953,-0.04075521230697632,-0.0884392261505127
1696965901337632000,3.230632080078125,-0.08871650695800781,0.05976969003677368,0.15984243154525757
1696965901347646000,3.24064599609375,-0.25572776794433594,-0.05879098176956177,-0.06886124610900879
1696965901357660200,3.25066015625,-0.1212158203125,-0.34475836157798767,-0.00198286771774292
1696965901367674400,3.26067431640625,1.0395822525024414,0.11594969034194946,0.093936026096344
1696965901377688300,3.270688232421875,-0.6397590637207031,-0.4074985086917877,-0.21316295862197876
1696965901387702500,3.28070263671875,0.6561050415039062,-0.03955203294754028,-0.1768425703048706
1696965901397716700,3.290716796875,0.8504266738891602,0.1090630292892456,-0.01760929822921753
1696965901407730700,3.300730712890625,-1.1918258666992188,-0.22396308183670044,0.1132851243019104
1696965901417745000,3.310744873046875,1.8589859008789062,-0.18010759353637695,-0.13519448041915894
1696965901427758800,3.3207587890625,-0.33382320404052734,0.14160573482513428,0.3598066568374634
1696965901437773000,3.33077294921875,0.12061405181884766,-0.478005588054657,-0.4307871460914612
1696965901447787300,3.340787353515625,1.2047061920166016,0.2953268885612488,0.2181234359741211
1696965901457801200,3.35080126953125,-0.20790958404541016,-0.07551580667495728,-0.029192328453063965
1696965901467815400,3.3608154296875,-0.3124723434448242,-0.28486543893814087,-0.11377650499343872
1696965901477829600,3.37082958984375,1.7375373840332031,0.16872918605804443,-0.05469018220901489
1696965901487843600,3.380843505859375,-1.166585922241211,-0.24669188261032104,-0.018025338649749756
1696965901497857800,3.39085791015625,1.0144500732421875,-0.041735172271728516,-0.3810189962387085
1696965901507871700,3.400871826171875,0.6252975463867188,0.35270005464553833,-0.2649163007736206
1696965901517886000,3.410885986328125,-1.6504249572753906,-0.21550923585891724,-0.032881200313568115
1696965901527900200,3.420900146484375,2.2426280975341797,0.1429600715637207,-0.4471902847290039
1696965901537914000,3.4309140625,-1.188100814819336,0.15015870332717896,-0.07337754964828491
1696965901547928300,3.44092822265625,0.22408390045166016,-0.04260563850402832,-0.041140973567962646
1696965901557942500,3.450942626953125,1.9436264038085938,0.48712843656539917,-0.03908652067184448
1696965901567956500,3.46095654296875,-1.9261178970336914,-0.18698567152023315,-0.1312212347984314
1696965901577970700,3.470970703125,0.3673686981201172,-0.04575049877166748,0.21991151571273804
1696965901587985000,3.48098486328125,0.940037727355957,0.5649892687797546,-0.16413921117782593
1696965901597998800,3.490998779296875,-1.4223337173461914,-0.035674452781677246,0.2278914451599121
1696965901608013000,3.501012939453125,1.294952392578125,0.3562217950820923,-0.10907232761383057
1696965901618027000,3.511027099609375,-1.3880252838134766,0.1055222749710083,-0.15962302684783936
1696965901628041200,3.521041259765625,-0.16634178161621094,0.17018920183181763,-0.1163678765296936
1696965901638055400,3.531055419921875,-0.27027225494384766,0.03479057550430298,-0.3008582592010498
1696965901648069400,3.5410693359375,-1.8890933990478516,0.3894082307815552,0.01664489507675171
1696965901658083600,3.55108349609375,1.3743572235107422,0.24464261531829834,-0.22655004262924194
1696965901668097800,3.561097900390625,-1.777170181274414,0.4738576412200928,0.07105177640914917
1696965901678111700,3.57111181640625,0.44878292083740234,-0.13985037803649902,-0.0781661868095398
1696965901688126000,3.5811259765625,-0.4116640090942383,0.3901982307434082,-0.250201940536499
1696965901698140200,3.59114013671875,-0.34893131256103516,0.22600340843200684,-0.0166395902633667
1696965901708154000,3.601154052734375,1.0284814834594727,0.33169060945510864,0.012343049049377441
1696965901718168300,3.611168212890625,-1.2677583694458008,0.518084704875946,0.018936455249786377
1696965901728182300,3.621182373046875,1.2918100357055664,0.0385359525680542,-0.14438247680664062
1696965901738196500,3.631196533203125,-0.909144401550293,0.3277665376663208,0.049565792083740234
1696965901748210700,3.641210693359375,0.9324541091918945,0.19967877864837646,-0.16802990436553955
1696965901758224600,3.651224609375,0.61029052734375,0.3242642879486084,-0.28134068846702576
1696965901768238800,3.66123876953125,-0.4089927673339844,0.12714743614196777,0.05364716053009033
1696965901778253000,3.671253173828125,0.8679046630859375,0.09673911333084106,-0.1475684642791748
1696965901788267000,3.68126708984375,-0.05618476867675781,0.055541932582855225,0.20810341835021973
1696965901798281200,3.69128125,0.8565158843994141,0.21684002876281738,-0.2211819887161255
1696965901808295400,3.70129541015625,0.21454811096191406,0.4030699133872986,0.30068206787109375
1696965901818309400,3.711309326171875,0.02283763885498047,0.013362646102905273,-0.08930474519729614
1696965901828323600,3.721323486328125,0.5249404907226562,0.5163841843605042,-0.03532278537750244
1696965901838337500,3.731337646484375,-0.09261798858642578,-0.03783249855041504,0.13334745168685913
1696965901848351700,3.741351806640625,-0.20665740966796875,0.36053431034088135,-0.09339284896850586
1696965901858366000,3.751365966796875,0.009159088134765625,0.33290785551071167,0.484923779964447
1696965901868380000,3.7613798828125,-0.0718221664428711,0.28102225065231323,0.18289810419082642
1696965901878394000,3.77139404296875,-0.03310871124267578,0.4201890230178833,0.10615932941436768
1696965901888408300,3.781408203125,-0.43407630920410156,0.08606624603271484,-0.023025989532470703
1696965901898422300,3.79142236328125,-0.32747650146484375,0.6083130240440369,0.40177690982818604
1696965901908436500,3.8014365234375,-0.4076070785522461,0.3170902132987976,-0.047575533390045166
1696965901918450700,3.81145068359375,-0.6068792343139648,0.36619675159454346,0.5150719881057739
1696965901928464600,3.821464599609375,-0.5430049896240234,0.3391382098197937,0.16131889820098877
1696965901938478800,3.831478759765625,-0.3550081253051758,0.35585588216781616,0.016515374183654785
1696965901948492800,3.841492919921875,-0.13399982452392578,0.4289624094963074,0.025268197059631348
1696965901958507000,3.851507080078125,-1.1224794387817383,0.44554662704467773,0.2141675353050232
1696965901968521200,3.861521240234375,0.08936786651611328,0.3917649984359741,0.11380064487457275
1696965901978535200,3.87153515625,-1.1528291702270508,0.5656252503395081,-0.0001347064971923828
1696965901988549400,3.88154931640625,0.67523193359375,0.4950908422470093,0.43559277057647705
1696965901998563600,3.8915634765625,-0.6877927780151367,0.2130749225616455,-0.03808075189590454
1696965902008577500,3.90157763671875,-0.6003494262695312,0.47461581230163574,0.37762290239334106
1696965902018591700,3.911591796875,1.2124614715576172,0.2564087510108948,0.055805325508117676
1696965902028606000,3.92160595703125,-1.829751968383789,0.2327083945274353,0.4262605309486389
1696965902038620000,3.931619873046875,2.0880441665649414,0.2980690598487854,0.1415550708770752
1696965902048634000,3.941634033203125,-0.8602685928344727,0.283205509185791,0.3137734532356262
1696965902058648000,3.95164794921875,0.5746250152587891,0.1497936248779297,0.3522679805755615
1696965902068662300,3.961662353515625,1.1136808395385742,0.20262157917022705,0.00912564992904663
1696965902078676500,3.971676513671875,-1.3695411682128906,0.02654099464416504,0.17864125967025757
1696965902088690400,3.9816904296875,2.1604251861572266,0.3956865668296814,-0.011727690696716309
1696965902098704600,3.99170458984375,-0.5827960968017578,-0.05397152900695801,0.06304967403411865
1696965902108718800,4.00171875,0.46488380432128906,0.10583800077438354,0.06082695722579956
1696965902118732800,4.01173291015625,0.6553230285644531,0.1876775622367859,-0.07973337173461914
1696965902128747000,4.0217470703125,-0.2733745574951172,0.08146053552627563,0.2502986192703247
1696965902138761200,4.03176123046875,1.008223533630371,0.15557211637496948,-0.14671200513839722
1696965902148775200,4.041775146484375,-0.5135717391967773,0.041953444480895996,0.5399352312088013
1696965902158789400,4.051789306640625,0.8591241836547852,0.3136328458786011,-0.07467615604400635
1696965902168803300,4.06180322265625,0.03567981719970703,0.22654575109481812,0.2183361053466797
1696965902178817500,4.071817626953125,0.32204151153564453,0.22658365964889526,0.3315080404281616
1696965902188831700,4.081831787109375,0.09248065948486328,0.005184471607208252,-0.3254268169403076
1696965902198845700,4.091845703125,-1.2746381759643555,0.35464632511138916,0.4168228507041931
1696965902208860000,4.10185986328125,1.4239215850830078,0.12219560146331787,-0.13075417280197144
1696965902218874000,4.1118740234375,-1.75714111328125,0.36188608407974243,0.09151679277420044
1696965902228888000,4.12188818359375,1.0614862442016602,0.12950891256332397,-0.03704547882080078
1696965902238902300,4.13190234375,-0.7037906646728516,0.13273930549621582,-0.0792197585105896
1696965902248916200,4.141916259765625,-0.7456207275390625,0.4323210120201111,0.16377806663513184
1696965902258930400,4.151930419921875,0.843226432800293,0.01247096061706543,-0.03855025768280029
1696965902268944600,4.161944580078125,-1.6583251953125,0.41885244846343994,0.29159343242645264
1696965902278958600,4.17195849609375,1.6047945022583008,0.11796903610229492,-0.23192626237869263
1696965902288972800,4.181972900390625,-1.7677679061889648,0.012960672378540039,0.11882412433624268
1696965902298987000,4.191987060546875,0.8068742752075195,0.30503469705581665,-0.004643797874450684
1696965902309001000,4.2020009765625,-0.09270572662353516,-0.25151485204696655,-0.09540444612503052
1696965902319015200,4.21201513671875,-1.0058631896972656,0.19789445400238037,0.17550480365753174
1696965902329029400,4.222029296875,1.9312858581542969,-0.04444527626037598,-0.43761929869651794
1696965902339043300,4.232043212890625,-1.7291841506958008,-0.08433830738067627,-0.0750964879989624
1696965902349057500,4.2420576171875,1.4815597534179688,0.08564335107803345,-0.20345795154571533
1696965902359071500,4.252071533203125,-0.12242317199707031,-0.10094320774078369,-0.21129971742630005
1696965902369085700,4.262085693359375,0.785639762878418,0.23612761497497559,-0.00488203763961792
1696965902379100000,4.272099853515625,0.1584024429321289,-0.20408380031585693,-0.36849239468574524
1696965902389113900,4.28211376953125,-0.2436809539794922,0.21903467178344727,0.09683376550674438
1696965902399128000,4.292128173828125,1.0047988891601562,-0.09107798337936401,-0.22679895162582397
1696965902409142300,4.302142333984375,-1.5686101913452148,0.22883152961730957,0.005500972270965576
1696965902419156200,4.31215625,1.7565994262695312,0.06639373302459717,0.0730973482131958
1696965902429170400,4.32217041015625,-1.291274070739746,-0.0007555484771728516,-0.08415192365646362
1696965902439184600,4.3321845703125,-0.031577110290527344,0.13157755136489868,0.06068885326385498
1696965902449198600,4.342198486328125,0.045574188232421875,-0.0309065580368042,-0.09038424491882324
1696965902459212800,4.352212890625,-1.273667335510254,0.276767373085022,0.23409098386764526
1696965902469226800,4.362226806640625,0.9278926849365234,-0.0781944990158081,-0.17243117094039917
1696965902479241000,4.372240966796875,-1.9222068786621094,-0.004240930080413818,0.30222612619400024
1696965902489255200,4.382255126953125,0.48581409454345703,0.15737414360046387,0.4007267355918884
1696965902499269000,4.39226904296875,-0.8002986907958984,-0.05756664276123047,0.14277857542037964
1696965902509283300,4.402283447265625,-0.7894687652587891,0.5068538188934326,0.45663851499557495
1696965902519297500,4.412297607421875,0.7612524032592773,-0.012757301330566406,0.07090044021606445
1696965902529311500,4.4223115234375,-2.16090726852417,0.03252345323562622,0.44475942850112915
1696965902539325700,4.43232568359375,1.8630714416503906,-0.2171705961227417,0.1503140926361084
1696965902549340000,4.44233984375,-1.6823616027832031,-0.12376916408538818,0.362063467502594
1696965902559353900,4.452353759765625,0.8439531326293945,-0.22576230764389038,0.3875007629394531
1696965902569368000,4.4623681640625,0.9857082366943359,0.11637288331985474,0.30121880769729614
1696965902579382000,4.472382080078125,-0.8669795989990234,-0.15666282176971436,0.649843156337738
1696965902589396200,4.482396240234375,1.6151981353759766,-0.4077456593513489,0.27715635299682617
1696965902599410400,4.492410400390625,-0.3101186752319336,-0.17204999923706055,0.5215031504631042
1696965902609424400,4.50242431640625,0.340118408203125,-0.5659277439117432,-0.0013220906257629395
1696965902619438600,4.5124384765625,0.9172477722167969,0.08280074596405029,0.32478755712509155
1696965902629452800,4.522452880859375,0.556492805480957,-0.4724889099597931,0.08204925060272217
1696965902639466800,4.532466796875,-0.43447017669677734,-0.26833683252334595,0.3846858739852905
1696965902649481000,4.54248095703125,1.8077325820922852,-0.2527123689651489,0.08063089847564697
1696965902659495200,4.5524951171875,-1.4175004959106445,-0.5942016839981079,-0.1258411407470703
1696965902669509000,4.562509033203125,1.1612329483032227,0.02404773235321045,0.15011096000671387
1696965902679523300,4.5725234375,0.2032480239868164,-0.297527015209198,-0.057847440242767334
1696965902689537300,4.582537353515625,-1.2696151733398438,-0.19314837455749512,-0.14659714698791504
1696965902699551500,4.592551513671875,2.2271604537963867,-0.08451098203659058,-0.0028173327445983887
1696965902709565700,4.602565673828125,-1.8399343490600586,-0.4234020709991455,-0.6698495149612427
1696965902719579600,4.61257958984375,0.4630575180053711,-0.1945475935935974,-0.13312089443206787
1696965902729593900,4.62259375,0.6251544952392578,-0.13338100910186768,-0.4223062992095947
1696965902739608000,4.632608154296875,-2.181328773498535,-0.38761401176452637,-0.27196091413497925
1696965902749622000,4.6426220703125,1.7283267974853516,0.2220057249069214,-0.10305958986282349
1696965902759636200,4.65263623046875,-0.27707481384277344,-0.29436999559402466,-0.3199019134044647
1696965902769650400,4.662650390625,-1.8872427940368652,0.08247071504592896,0.12085628509521484
1696965902779664400,4.672664306640625,2.667630195617676,0.16855812072753906,-0.2686197757720947
1696965902789678600,4.6826787109375,-2.9440155029296875,0.27779871225357056,0.14814084768295288
1696965902799692500,4.692692626953125,1.879903793334961,-0.04859656095504761,-0.05833423137664795
1696965902809706800,4.702706787109375,-0.2502002716064453,0.20091140270233154,0.27002352476119995
1696965902819721000,4.712720947265625,-1.3587274551391602,0.08323150873184204,-0.07141894102096558
1696965902829735000,4.72273486328125,1.4550695419311523,0.5823290944099426,0.19451379776000977
1696965902839749000,4.7327490234375,-1.3819694519042969,0.6959313750267029,0.10169881582260132
1696965902849763300,4.742763427734375,0.22686100006103516,0.38614457845687866,0.4950208067893982
1696965902859777300,4.75277734375,1.4931402206420898,0.2622106075286865,0.024358689785003662
1696965902869791500,4.76279150390625,-1.038400650024414,-0.22366392612457275,-0.09067589044570923
1696965902879805700,4.7728056640625,0.9042654037475586,-0.4177764654159546,0.10662561655044556
1696965902889819600,4.782819580078125,-0.0007085800170898438,-0.005268752574920654,-0.23904508352279663
1696965902899833900,4.792833740234375,-1.558516502380371,-0.1635040044784546,0.553508996963501
1696965902909847800,4.802847900390625,0.26583099365234375,-0.4483568072319031,0.12989962100982666
1696965902919862000,4.812862060546875,-0.05455589294433594,-0.14372271299362183,0.3933994174003601
1696965902929876200,4.822876220703125,0.6191997528076172,-0.11400288343429565,-0.04484355449676514
1696965902939890200,4.83289013671875,0.13066864013671875,-0.16407358646392822,-0.07209068536758423
1696965902949904400,4.842904296875,1.0141592025756836,0.1631101369857788,-0.0700840950012207
1696965902959918600,4.852918701171875,0.08533477783203125,-0.10079103708267212,-0.23698019981384277
1696965902969932500,4.8629326171875,-1.0239276885986328,0.050045549869537354,0.09943264722824097
1696965902979946800,4.87294677734375,1.196441650390625,-0.24311816692352295,0.2248402237892151
1696965902989960700,4.882960693359375,-0.9521017074584961,-0.057637035846710205,0.22814464569091797
1696965902999975000,4.892974853515625,0.8233442306518555,-0.04259359836578369,0.2399715781211853
1696965903009989000,4.902989013671875,-0.34450626373291016,0.0227813720703125,0.012944340705871582
1696965903020003000,4.913003173828125,0.5070905685424805,-0.1876380443572998,0.2029963731765747
1696965903030017300,4.923017333984375,-0.15328693389892578,-0.3235390782356262,-0.2535661458969116
1696965903040031500,4.933031494140625,0.17201519012451172,0.060626447200775146,0.27191126346588135
1696965903050045400,4.94304541015625,1.3999099731445312,-0.44714611768722534,0.3856123089790344
1696965903060059600,4.9530595703125,-0.28555965423583984,-0.6679326295852661,0.0880054235458374
1696965903070073900,4.963073974609375,0.5085859298706055,0.021384000778198242,0.359134316444397
1696965903080087800,4.973087890625,0.3400154113769531,-0.16092240810394287,0.6178801655769348
1696965903090102000,4.98310205078125,1.0559005737304688,-0.24230915307998657,0.35611069202423096
1696965903100116000,4.993115966796875,-0.08379745483398438,-0.5506774187088013,0.3740025758743286
1696965903110130200,5.003130126953125,0.049920082092285156,0.1294981837272644,0.7025324702262878
1696965903120144100,5.01314404296875,0.4512500762939453,-0.3126119375228882,0.5031301379203796
1696965903130158300,5.023158447265625,-0.47240638732910156,-0.4842025637626648,-0.0012423396110534668
1696965903140172300,5.03317236328125,0.3604583740234375,-0.1841975450515747,-0.2626347541809082
1696965903150186200,5.043186279296875,-1.4515628814697266,-0.11328452825546265,0.06796348094940186
1696965903160200400,5.053200439453125,0.4776725769042969,-0.2880710959434509,-0.11148291826248169
1696965903170214400,5.06321435546875,-0.7463006973266602,-0.33946454524993896,-0.2768685221672058
1696965903180228600,5.073228515625,-1.8195676803588867,-0.08497214317321777,-0.1212393045425415
1696965903190242600,5.08324267578125,0.015346527099609375,-0.1414806842803955,0.3891642689704895
1696965903200256800,5.0932568359375,-0.0656900405883789,-0.1995214819908142,0.07538211345672607
1696965903210270700,5.103270751953125,-0.777252197265625,-0.644376277923584,-0.13898217678070068
1696965903220284700,5.11328466796875,0.6296606063842773,0.1513596773147583,0.03289508819580078
1696965903230299000,5.123298828125,-0.11689281463623047,-0.1911449432373047,0.4302952289581299
1696965903240312800,5.133312744140625,-0.011867523193359375,-0.12173348665237427,0.4561787247657776
1696965903250327000,5.1433271484375,0.8392782211303711,-0.6888073682785034,0.14276045560836792
1696965903260341000,5.153341064453125,-1.1700239181518555,0.14388620853424072,0.24416470527648926
1696965903270355200,5.163355224609375,1.690373420715332,-0.46275728940963745,0.39627575874328613
1696965903280369200,5.173369140625,0.13334178924560547,-0.6951082348823547,0.04733479022979736
1696965903290383000,5.183383056640625,0.02778911590576172,-0.6184022426605225,-0.17370283603668213
1696965903300397300,5.193397216796875,0.22385597229003906,0.15938043594360352,0.14822542667388916
1696965903310411300,5.203411376953125,0.94000244140625,-0.19596707820892334,0.013628661632537842
1696965903320425500,5.213425537109375,-0.16582298278808594,-0.7114091515541077,-0.20142900943756104
1696965903330439400,5.223439453125,-0.06494617462158203,-0.24275171756744385,-0.2861855626106262
1696965903340453600,5.23345361328125,0.1936187744140625,-0.1402273178100586,-0.07049477100372314
1696965903350467600,5.243467529296875,-0.5329961776733398,-0.17978322505950928,0.1479017734527588
1696965903360481800,5.253481689453125,0.9547185897827148,-0.46316444873809814,-0.1428108811378479
1696965903370495700,5.263495849609375,-0.9677944183349609,-0.042670249938964844,-0.502470076084137
1696965903380509700,5.273509765625,-0.2343463897705078,0.21686506271362305,0.502588152885437
1696965903390524000,5.28352392578125,1.3055238723754883,-0.22657477855682373,0.17453229427337646
1696965903400538000,5.2935380859375,-1.2586994171142578,-0.7169734835624695,0.18997067213058472
1696965903410552000,5.303552001953125,0.26902103424072266,-0.1138465404510498,-0.20706158876419067
1696965903420566300,5.313566162109375,-0.5051727294921875,0.025657057762145996,0.5161272287368774
1696965903430580500,5.32358056640625,0.389434814453125,-0.14524102210998535,0.6612968444824219
1696965903440594400,5.333594482421875,1.0053777694702148,-0.383539080619812,-0.1951146125793457
1696965903450608600,5.343608642578125,-1.6441726684570312,-0.3191978931427002,-0.13000136613845825
1696965903460622600,5.35362255859375,0.6916637420654297,0.10918498039245605,0.589945375919342
1696965903470636800,5.36363671875,1.4501323699951172,-0.5408633947372437,0.012492001056671143
1696965903480651000,5.373651123046875,-2.0655579566955566,-0.2843770980834961,-0.2817962169647217
1696965903490665000,5.3836650390625,0.2285594940185547,-0.034952521324157715,-0.25954943895339966
1696965903500679200,5.39367919921875,-0.034277915954589844,0.1145169734954834,-0.06612300872802734
1696965903510693400,5.403693359375,-0.4739828109741211,-0.463853120803833,-0.09775435924530029
1696965903520707300,5.413707275390625,0.09183979034423828,-0.4953104257583618,-0.22640615701675415
1696965903530721500,5.423721435546875,-0.7971057891845703,0.17922985553741455,0.3458244800567627
1696965903540735700,5.43373583984375,0.9971694946289062,0.0248945951461792,0.24841147661209106
1696965903550749700,5.443749755859375,-0.5581855773925781,-0.1392664909362793,0.4798946976661682
1696965903560764000,5.453763916015625,0.20302581787109375,-0.4734923839569092,0.00629425048828125
1696965903570777900,5.46377783203125,0.1741495132446289,0.1427764892578125,0.1281440258026123
1696965903580792000,5.4737919921875,0.39807701110839844,-0.2342531681060791,0.43131303787231445
1696965903590806300,5.48380615234375,0.7651758193969727,-0.3634040355682373,0.491783082485199
1696965903600820200,5.4938203125,-0.06346797943115234,-0.39236772060394287,0.03322678804397583
1696965903610834400,5.50383447265625,0.2615528106689453,-0.022848963737487793,0.4162113070487976
1696965903620848600,5.5138486328125,1.0970020294189453,-0.24697065353393555,0.4178222417831421
1696965903630862600,5.523862548828125,0.296356201171875,-0.4154489040374756,0.020246267318725586
1696965903640876800,5.533876708984375,0.3529376983642578,-0.2619287967681885,0.2506951689720154
1696965903650891000,5.54389111328125,0.37595176696777344,-0.15245270729064941,0.1753811240196228
1696965903660905000,5.553905029296875,0.7190351486206055,-0.4723372459411621,0.4197530150413513
1696965903670919200,5.563919189453125,0.1823596954345703,-0.7808650732040405,0.0035926103591918945
1696965903680933000,5.57393310546875,-0.701930046081543,0.01269996166229248,0.11202317476272583
1696965903690947300,5.583947265625,0.26987552642822266,-0.3562065362930298,0.4346633553504944
1696965903700961500,5.59396142578125,0.6518898010253906,-0.1668102741241455,0.01646941900253296
1696965903710975500,5.6039755859375,-1.2654733657836914,-0.3812539577484131,-0.20086675882339478
1696965903720989700,5.61398974609375,0.09008121490478516,-0.13650739192962646,-0.2425527572631836
1696965903731004000,5.62400390625,-0.10533809661865234,-0.2745000123977661,0.34671252965927124
1696965903741017900,5.634017822265625,-0.4634819030761719,-0.36560094356536865,-0.14502906799316406
1696965903751032000,5.644031982421875,-0.4184741973876953,-0.1352248191833496,0.20396757125854492
1696965903761046000,5.6540458984375,-0.3747425079345703,0.3206874132156372,0.3730792999267578
1696965903771060200,5.664060302734375,1.1082096099853516,-0.2954338788986206,0.27443569898605347
1696965903781074400,5.674074462890625,-1.8525872230529785,-0.36853206157684326,0.24615848064422607
1696965903791088400,5.68408837890625,0.6273632049560547,0.10664761066436768,0.012408137321472168
1696965903801102600,5.6941025390625,-0.31563282012939453,0.2152777910232544,0.40546196699142456
1696965903811116800,5.70411669921875,0.6454973220825195,-0.3865809440612793,0.033866941928863525
1696965903821130800,5.714130859375,-1.3965625762939453,-0.17677175998687744,0.152906596660614
1696965903831145000,5.72414501953125,0.5417547225952148,0.09493839740753174,-0.005927145481109619
1696965903841159200,5.7341591796875,0.1486196517944336,-0.4270104169845581,0.17076289653778076
1696965903851173000,5.744173095703125,-0.6978349685668945,-0.6878170967102051,-0.01454150676727295
1696965903861187300,5.754187255859375,0.31682872772216797,0.10870444774627686,0.05815774202346802
1696965903871201300,5.764201171875,0.02938079833984375,-0.279457688331604,0.0007072091102600098
1696965903881215500,5.774215576171875,-0.19552898406982422,-0.6691426038742065,0.18328309059143066
1696965903891229700,5.784229736328125,0.7275524139404297,-0.32488322257995605,-0.4923572242259979
1696965903901243600,5.79424365234375,-1.0373973846435547,-0.49751174449920654,-0.025274157524108887
1696965903911257900,5.8042578125,1.6410865783691406,-0.22176039218902588,-0.06651133298873901
1696965903921272000,5.81427197265625,-0.3737306594848633,-0.825958251953125,-0.12085825204849243
1696965903931286000,5.8242861328125,-1.2714920043945312,0.21091246604919434,0.2565650939941406
1696965903941300200,5.83430029296875,2.4021692276000977,-0.2552286386489868,0.4183461666107178
1696965903951314400,5.844314453125,0.02152538299560547,-0.11970531940460205,0.07624804973602295
1696965903961328400,5.854328369140625,-0.6663341522216797,-0.7043429613113403,0.16920626163482666
1696965903971342600,5.864342529296875,1.7818832397460938,0.5023471117019653,0.4588128328323364
1696965903981356500,5.8743564453125,-0.02834796905517578,-0.38382136821746826,0.17937129735946655
1696965903991370800,5.884370849609375,-0.3822450637817383,-0.30980122089385986,0.2675875425338745
1696965904001385000,5.894385009765625,0.961857795715332,-0.07324409484863281,-0.13794541358947754
1696965904011399000,5.90439892578125,-1.128875732421875,-0.2750922441482544,0.2981542944908142
1696965904021413000,5.9144130859375,1.4588384628295898,-0.25837159156799316,0.04469066858291626
1696965904031427300,5.92442724609375,-0.9572076797485352,-0.503756046295166,-0.10205602645874023
1696965904041441300,5.934441162109375,-0.5638256072998047,0.0660400390625,0.36284106969833374
1696965904051455500,5.94445556640625,1.4498176574707031,-0.051563382148742676,-0.11096382141113281
1696965904061469700,5.9544697265625,-1.3159513473510742,-0.6602418422698975,0.20624643564224243
1696965904071483600,5.964483642578125,-0.12295055389404297,-0.00264132022857666,-0.2368614673614502
1696965904081497900,5.974497802734375,0.020806312561035156,-0.2815958261489868,0.42497843503952026
1696965904091511800,5.98451171875,0.24504947662353516,-0.23197054862976074,0.1879628300666809
1696965904101526000,5.994526123046875,-0.08984088897705078,-0.44466114044189453,-0.15541023015975952
1696965904111540200,6.004540283203125,-0.4674081802368164,0.011500835418701172,0.19120711088180542
1696965904121554200,6.01455419921875,1.0915260314941406,-0.08899259567260742,0.21283972263336182
1696965904131568400,6.024568359375,-0.4927978515625,-0.37828147411346436,-0.1739283800125122
1696965904141582600,6.03458251953125,-0.8692684173583984,-0.2522083520889282,-0.057739198207855225
1696965904151596500,6.044596435546875,1.0728759765625,-0.19369077682495117,-0.049116551876068115
1696965904161610800,6.05461083984375,0.06692981719970703,-0.34359872341156006,-0.33217257261276245
1696965904171625000,6.064625,-0.5736589431762695,-0.5150055885314941,-0.4593849778175354
1696965904181639000,6.074638916015625,0.22110271453857422,0.07436943054199219,-0.08143103122711182
1696965904191653000,6.084653076171875,0.41177845001220703,-0.20417916774749756,-0.2666780948638916
1696965904201667000,6.0946669921875,-0.9270477294921875,-0.683539628982544,-0.46358081698417664
1696965904211681300,6.104681396484375,0.3654518127441406,0.012460708618164062,-0.2713133692741394
1696965904221695500,6.114695556640625,0.0017299652099609375,-0.3011314868927002,-0.35783904790878296
1696965904231710000,6.1247099609375,-0.2564363479614258,-0.34276342391967773,-0.3564963936805725
1696965904241723600,6.1347236328125,0.23685359954833984,-0.5642107725143433,-0.7975594997406006
1696965904251737300,6.1447373046875,-0.9295501708984375,-0.10554122924804688,-0.4051676094532013
1696965904261751000,6.1547509765625,0.5206899642944336,-0.05166041851043701,-0.33722662925720215
1696965904271764700,6.1647646484375,0.22854042053222656,-0.6915349960327148,-0.7551426887512207
1696965904281778400,6.1747783203125,-1.0095453262329102,-0.06441390514373779,-0.2780422568321228
1696965904291792100,6.184792236328125,0.8806161880493164,-0.07845330238342285,-0.31009238958358765
1696965904301806000,6.19480615234375,0.4488945007324219,-0.3158872127532959,-0.4320988059043884
1696965904311820000,6.204820068359375,-0.5125284194946289,-0.2496476173400879,-0.3467999994754791
1696965904321834000,6.214833984375,0.6645355224609375,-0.14475178718566895,-0.33250999450683594
1696965904331848000,6.224847900390625,0.01798248291015625,-0.16965103149414062,-0.027706682682037354
1696965904341862100,6.234862060546875,0.5486373901367188,-0.7633566856384277,-0.42530739307403564
1696965904351876400,6.24487646484375,-0.7665090560913086,-0.12272012233734131,-0.15117311477661133
1696965904361890600,6.254890625,0.9937610626220703,-0.07286536693572998,-0.3018866777420044
1696965904371904800,6.26490478515625,1.0779790878295898,-0.10435175895690918,0.18561875820159912
1696965904381919200,6.274919189453125,-1.2041053771972656,-0.6694256067276001,-0.5608014464378357
1696965904391933400,6.284933349609375,0.09415626525878906,-0.11731827259063721,-0.023101866245269775
1696965904401948000,6.294947998046875,1.0402460098266602,-0.11722314357757568,0.08585715293884277
1696965904411962400,6.30496240234375,-0.8109493255615234,-0.7810459733009338,-0.14454352855682373
1696965904421976800,6.314976806640625,-0.7566623687744141,0.16113388538360596,0.0791858434677124
1696965904431991300,6.3249912109375,1.5109386444091797,-0.2048419713973999,0.22868478298187256
1696965904442005500,6.335005615234375,-0.9871244430541992,-0.27246856689453125,0.1533026099205017
1696965904452019700,6.345019775390625,0.4826374053955078,-0.515699028968811,-0.10226720571517944
1696965904462034000,6.355033935546875,-0.6554393768310547,-0.010123491287231445,0.1949114203453064
1696965904472047900,6.3650478515625,0.7416057586669922,-0.00897359848022461,0.4944886565208435
1696965904482062000,6.37506201171875,-0.24884700775146484,-0.6530756950378418,0.13129037618637085
1696965904492076000,6.385075927734375,-0.6926240921020508,0.004192709922790527,0.08100837469100952
1696965904502090000,6.395090087890625,0.6282901763916016,-0.23087596893310547,0.34715282917022705
1696965904512104200,6.405104248046875,-0.2713165283203125,-0.1651020050048828,0.46726667881011963
1696965904522118100,6.4151181640625,-0.5572652816772461,-0.3950662612915039,-0.11698704957962036
1696965904532132400,6.42513232421875,0.18034076690673828,0.011237740516662598,0.5071439146995544
1696965904542146300,6.435146240234375,0.12743186950683594,-0.2718726396560669,0.41050148010253906
1696965904552160500,6.445160400390625,-0.3744363784790039,-0.40196526050567627,0.17934393882751465
1696965904562174500,6.455174560546875,0.1711902618408203,-0.1857771873474121,0.12776756286621094
1696965904572188400,6.4651884765625,-0.15390396118164062,-0.22540283203125,0.6660289764404297
1696965904582202600,6.47520263671875,0.9832944869995117,-0.09406697750091553,0.15868812799453735
1696965904592216600,6.485216552734375,0.016259193420410156,-0.6486622095108032,0.16977673768997192
1696965904602230800,6.495230712890625,-0.8398818969726562,0.17773282527923584,0.4564594030380249
1696965904612244700,6.50524462890625,2.04404354095459,-0.44596338272094727,0.13684475421905518
1696965904622259000,6.515259033203125,-1.6405267715454102,-0.2807586193084717,-0.040353477001190186
1696965904632273000,6.52527294921875,0.3607759475708008,-0.13488805294036865,0.0584331750869751
1696965904642287000,6.535287109375,0.5703582763671875,-0.2851834297180176,0.47980737686157227
1696965904652301000,6.545301025390625,0.2200307846069336,-0.47153401374816895,-0.13623899221420288
1696965904662315000,6.55531494140625,-0.5065727233886719,-0.3198477029800415,-0.2518033981323242
1696965904672329200,6.5653291015625,0.21145915985107422,-0.15143442153930664,0.437614381313324
1696965904682343200,6.57534326171875,0.3544769287109375,-0.24867558479309082,0.20306944847106934
1696965904692357400,6.585357421875,-0.03815269470214844,-0.272929310798645,-0.017624199390411377
1696965904702371300,6.595371337890625,0.6310663223266602,-0.1732698678970337,-0.08797818422317505
1696965904712385500,6.605385498046875,-0.6604690551757812,-0.41391539573669434,0.3691258430480957
1696965904722399500,6.6153994140625,0.8269777297973633,-0.40204548835754395,-0.07145655155181885
1696965904732414000,6.6254140625,-0.24003887176513672,-0.4199635982513428,-0.31394970417022705
1696965904742428400,6.635428466796875,-0.6365041732788086,0.00324857234954834,0.1346827745437622
1696965904752442600,6.645442626953125,1.1046838760375977,-0.22715365886688232,0.020592808723449707
1696965904762456800,6.655456787109375,-1.0292577743530273,-0.2955741882324219,-0.13736474514007568
1696965904772470800,6.665470703125,0.4640960693359375,-0.15991246700286865,-0.11109781265258789
1696965904782485000,6.675485107421875,-0.3494224548339844,-0.2468167543411255,0.35862427949905396
1696965904792499000,6.6854990234375,0.6546535491943359,-0.37372922897338867,-0.3845768868923187
1696965904802513200,6.69551318359375,-1.1720657348632812,-0.3952254056930542,0.011268079280853271
1696965904812527000,6.705527099609375,-0.22345352172851562,-0.2337578535079956,-0.17621910572052002
1696965904822541300,6.715541259765625,0.6421489715576172,-0.27704918384552,0.06864577531814575
1696965904832555300,6.72555517578125,-0.6353359222412109,-0.7839666604995728,-0.3232823610305786
1696965904842569200,6.7355693359375,-0.1846446990966797,-0.15035545825958252,-0.23123258352279663
1696965904852583400,6.74558349609375,0.2030649185180664,-0.4137763977050781,-0.13097518682479858
1696965904862597400,6.755597412109375,-0.47600841522216797,-0.5706675052642822,-0.025889575481414795
1696965904872611600,6.765611572265625,0.09411430358886719,-0.4318885803222656,-0.7154513001441956
1696965904882625500,6.77562548828125,-0.8090429306030273,-0.2787119150161743,0.028650879859924316
1696965904892639700,6.7856396484375,0.6265459060668945,-0.4683734178543091,-0.3005934953689575
1696965904902653700,6.79565380859375,-0.4447898864746094,-0.6088005304336548,-0.21963626146316528
1696965904912667600,6.805667724609375,-0.6491298675537109,-0.3535856008529663,-0.05794006586074829
1696965904922681900,6.815681884765625,0.050380706787109375,-0.3290661573410034,0.07890188694000244
1696965904932695800,6.82569580078125,0.47579479217529297,-0.3668276071548462,0.27210313081741333
1696965904942710000,6.8357099609375,-1.2406129837036133,-0.9375463724136353,-0.10774451494216919
1696965904952724000,6.845723876953125,0.40137672424316406,-0.02447497844696045,0.20316660404205322
1696965904962738200,6.85573828125,0.02801990509033203,-0.653427243232727,0.3114057183265686
1696965904972752100,6.865752197265625,-0.1298980712890625,-0.694354772567749,-0.017788708209991455
1696965904982766000,6.87576611328125,-0.30138397216796875,-0.5693471431732178,0.12380820512771606
1696965904992780300,6.8857802734375,0.2822589874267578,-0.49122607707977295,0.09180247783660889
1696965905002794200,6.895794189453125,0.09516048431396484,-0.6000039577484131,0.28783565759658813
1696965905012808400,6.905808349609375,0.6015853881835938,-0.804989218711853,-0.3338853120803833
1696965905022822400,6.915822509765625,-0.4510688781738281,-0.27318763732910156,0.32422178983688354
1696965905032836600,6.925836669921875,0.9069547653198242,-0.7780121564865112,0.20236176252365112
1696965905042850600,6.9358505859375,0.18827342987060547,-0.8547730445861816,0.02707427740097046
1696965905052864500,6.945864501953125,-0.28054237365722656,-0.6328325271606445,-0.039788126945495605
1696965905062878700,6.955878662109375,0.6998205184936523,-0.4204314947128296,0.30396294593811035
1696965905072892700,6.965892578125,0.6026182174682617,-0.7211525440216064,0.1781899333000183
1696965905082907000,6.975906982421875,-0.11093902587890625,-0.8243259191513062,-0.257638156414032
1696965905092920800,6.9859208984375,0.9026269912719727,-0.3633296489715576,-0.07774907350540161
1696965905102935000,6.99593505859375,-0.16056537628173828,-0.6724057197570801,0.46149539947509766
1696965905112949200,7.00594921875,1.3067693710327148,-1.071095585823059,-0.19774657487869263
1696965905122963200,7.015963134765625,-0.8418216705322266,-0.9694390296936035,-0.3495784401893616
1696965905132977400,7.025977294921875,0.7272806167602539,-0.6903181076049805,0.454817533493042
1696965905142991600,7.03599169921875,1.0840730667114258,-0.8768064379692078,-0.043204545974731445
1696965905153005600,7.046005615234375,-0.7059640884399414,-1.2897868156433105,-0.0919690728187561
1696965905163019800,7.056019775390625,0.7006359100341797,-0.644749641418457,0.1811334490776062
1696965905173033700,7.06603369140625,0.3833770751953125,-1.0639487504959106,0.3640408515930176
1696965905183048000,7.0760478515625,0.49675846099853516,-0.8969697952270508,0.08830654621124268
1696965905193062100,7.086062255859375,-0.11137199401855469,-0.9629759788513184,-0.46959951519966125
1696965905203076000,7.096076171875,0.1370067596435547,-0.6383070945739746,0.35629206895828247
1696965905213090300,7.10609033203125,0.7575521469116211,-0.8318308591842651,-0.09430235624313354
1696965905223104500,7.1161044921875,-0.6541919708251953,-1.418453335762024,-0.22574776411056519
1696965905233118500,7.126118408203125,-0.7341156005859375,-0.734584629535675,-0.44298356771469116
1696965905243132700,7.136132568359375,0.22309589385986328,-0.8311945199966431,0.46941661834716797
1696965905253147000,7.14614697265625,0.7096776962280273,-0.9913285970687866,-0.9420448541641235
1696965905263160800,7.156160888671875,-1.4902925491333008,-1.1754167079925537,-0.21978920698165894
1696965905273175000,7.166175048828125,1.3036823272705078,-0.8251534104347229,-0.49127820134162903
1696965905283189000,7.17618896484375,-1.3754119873046875,-1.1458543539047241,-0.12400972843170166
1696965905293203200,7.186203125,0.6630706787109375,-1.099831223487854,-0.24825191497802734
1696965905303217400,7.196217529296875,-0.01678466796875,-1.1624497175216675,-0.40186476707458496
1696965905313231400,7.2062314453125,-0.5383005142211914,-0.8438740968704224,0.021772027015686035
1696965905323245600,7.21624560546875,2.1486520767211914,-1.2531038522720337,-0.30474013090133667
1696965905333259800,7.226259765625,-1.5170745849609375,-1.1904300451278687,-0.787909746170044
1696965905343273700,7.236273681640625,0.35459423065185547,-1.010617971420288,-0.1994718313217163
1696965905353288000,7.246287841796875,1.290487289428711,-0.9669592976570129,-0.025550365447998047
1696965905363302100,7.25630224609375,-0.6722202301025391,-1.4906175136566162,-0.45821452140808105
1696965905373316000,7.266316162109375,-0.020656585693359375,-1.0853019952774048,-0.6045490503311157
1696965905383330300,7.276330322265625,0.24204158782958984,-1.1254686117172241,-0.23694390058517456
1696965905393344300,7.28634423828125,0.5424938201904297,-0.8548921942710876,-0.46567270159721375
1696965905403358500,7.2963583984375,-0.5721759796142578,-1.3518571853637695,-0.6936116814613342
1696965905413372700,7.30637255859375,-0.13591957092285156,-0.9173620343208313,-0.5156643986701965
1696965905423386600,7.31638671875,0.5573310852050781,-1.0249260663986206,-0.1888517141342163
1696965905433400800,7.32640087890625,-0.07455158233642578,-1.3354017734527588,-0.6344048380851746
1696965905443415000,7.3364150390625,-0.939295768737793,-1.0733799934387207,-0.5631420612335205
1696965905453429000,7.346428955078125,0.726222038269043,-1.0660340785980225,-0.1901416778564453
1696965905463443200,7.356443115234375,0.06984806060791016,-0.9823739528656006,-0.08669853210449219
1696965905473457400,7.36645751953125,0.12731170654296875,-1.5170443058013916,-0.7142298221588135
1696965905483471400,7.376471435546875,-0.8523130416870117,-0.8258159756660461,-0.24903202056884766
1696965905493485600,7.386485595703125,1.0325689315795898,-0.8802075386047363,0.22118782997131348
1696965905503499500,7.39649951171875,0.23234272003173828,-1.5402483940124512,0.10312873125076294
1696965905513513700,7.406513671875,-1.068039894104004,-1.2452256679534912,-0.43789589405059814
1696965905523528000,7.41652783203125,1.156839370727539,-0.9984372854232788,0.05098026990890503
1696965905533542000,7.4265419921875,0.12659740447998047,-1.0115920305252075,0.017327487468719482
1696965905543556000,7.43655615234375,0.9004697799682617,-1.5020848512649536,-0.17260640859603882
1696965905553570300,7.4465703125,-0.4634437561035156,-0.9894099235534668,-0.0974918007850647
1696965905563584300,7.456584228515625,0.03456401824951172,-1.1161375045776367,-0.09441196918487549
1696965905573598500,7.466598388671875,0.5601730346679688,-0.8504751920700073,0.13983052968978882
1696965905583612700,7.47661279296875,0.20535945892333984,-1.5491336584091187,-0.23713797330856323
1696965905593626600,7.486626708984375,-0.03879833221435547,-0.7765114307403564,-0.25598055124282837
1696965905603640800,7.496640869140625,0.3771181106567383,-0.6031020879745483,-0.04495036602020264
1696965905613654800,7.50665478515625,0.6821727752685547,-1.0385905504226685,-0.27332133054733276
1696965905623669000,7.5166689453125,-0.7385625839233398,-0.9805142283439636,-0.6286506056785583
1696965905633683200,7.52668310546875,-0.15826416015625,-0.7351826429367065,0.12140238285064697
1696965905643697200,7.536697265625,0.926884651184082,-0.5041908025741577,0.07961761951446533
1696965905653711400,7.54671142578125,-0.2695474624633789,-1.1050859689712524,-0.19098979234695435
1696965905663725600,7.5567255859375,-0.5030794143676758,-0.705437183380127,-0.19508814811706543
1696965905673739500,7.566739501953125,0.8795642852783203,-0.3523215651512146,0.34950846433639526
1696965905683753700,7.576753662109375,0.42815685272216797,-0.6113889813423157,-0.14105844497680664
1696965905693768000,7.586767822265625,-0.49475765228271484,-0.7428104877471924,-0.3243081569671631
1696965905703782000,7.596781982421875,0.4286966323852539,-0.1868799924850464,-0.029589831829071045
1696965905713796000,7.606796142578125,1.1255321502685547,-0.3954273462295532,-0.2898550033569336
1696965905723810000,7.61681005859375,-1.137434959411621,-0.5258245468139648,-0.1374732255935669
1696965905733824300,7.62682421875,1.7755012512207031,-0.26192349195480347,-0.45205456018447876
1696965905743838500,7.63683837890625,-1.143202781677246,-0.36383765935897827,-0.1490105390548706
1696965905753852400,7.646852294921875,0.7272729873657227,0.15832018852233887,-0.12190264463424683
1696965905763866600,7.65686669921875,1.28076171875,-0.6578277349472046,-0.8077220916748047
1696965905773880800,7.666880859375,-2.860905170440674,-0.07895314693450928,-0.4143677353858948
1696965905783894800,7.676894775390625,2.130204200744629,-0.0813589096069336,-0.4226553440093994
1696965905793909000,7.686908935546875,-0.8944473266601562,-0.2700195908546448,-0.3116183876991272
1696965905803923000,7.6969228515625,-0.3766183853149414,-0.27595168352127075,-0.6603690385818481
1696965905813937200,7.706937255859375,0.2655963897705078,-0.20946431159973145,-0.4967160224914551
1696965905823951400,7.716951416015625,-0.4666938781738281,0.20923608541488647,-0.1336234211921692
1696965905833965300,7.72696533203125,0.4718656539916992,-0.5226420164108276,-0.5528635382652283
1696965905843979500,7.7369794921875,-1.5700654983520508,-0.25812870264053345,-0.45440658926963806
1696965905853993700,7.74699365234375,0.9526653289794922,-0.05807995796203613,-0.1977481245994568
1696965905864007700,7.757007568359375,-1.061666488647461,-0.02560102939605713,-0.17639410495758057
1696965905874022000,7.76702197265625,1.2252635955810547,-0.5846445560455322,-0.40890949964523315
1696965905884036000,7.7770361328125,-0.8801040649414062,-0.003203451633453369,-0.5489562749862671
1696965905894050000,7.787050048828125,-0.45290470123291016,0.104056715965271,-0.28747260570526123
1696965905904064300,7.797064208984375,0.9245119094848633,-0.19235438108444214,-0.510578989982605
1696965905914078200,7.807078125,-0.7548723220825195,-0.4520430862903595,-0.6263923645019531
1696965905924092400,7.817092529296875,-0.4998970031738281,-0.25791800022125244,-0.4333365559577942
1696965905934106600,7.827106689453125,0.3806791305541992,-0.060447633266448975,-0.21373480558395386
1696965905944120600,7.83712060546875,0.8479843139648438,-0.346447229385376,-0.3370211124420166
1696965905954134800,7.847134765625,-0.8120050430297852,-0.44324004650115967,-0.6411474347114563
1696965905964149000,7.85714892578125,0.3987083435058594,0.04415518045425415,0.06858247518539429
1696965905974163000,7.867162841796875,1.1100234985351562,-0.2873995304107666,-0.2961389422416687
1696965905984177200,7.87717724609375,-0.8185195922851562,-0.7079586982727051,-0.03405630588531494
1696965905994191400,7.88719140625,0.2635335922241211,-0.1606755256652832,-0.15865635871887207
1696965906004205300,7.897205322265625,0.4540681838989258,-0.2611899971961975,0.23394280672073364
1696965906014219500,7.907219482421875,0.8209209442138672,-0.35147911310195923,-0.12494760751724243
1696965906024233500,7.9172333984375,-0.24649333953857422,-0.6212409734725952,-0.4171355962753296
1696965906034247700,7.92724755859375,-0.049904823303222656,-0.2230510115623474,0.15684884786605835
1696965906044262000,7.937261962890625,0.996790885925293,-0.060688793659210205,0.2009684443473816
1696965906054275800,7.94727587890625,0.19180583953857422,-0.5947691202163696,-0.2967711091041565
1696965906064290000,7.9572900390625,-0.8407697677612305,-0.1542462706565857,-0.06355905532836914
1696965906074304300,7.96730419921875,0.9629831314086914,-0.18818974494934082,0.268144428730011
1696965906084318200,7.977318115234375,0.2009124755859375,-0.14717096090316772,0.05788999795913696
1696965906094332400,7.98733251953125,0.019008636474609375,-0.7748386263847351,-0.32947900891304016
1696965906104346600,7.9973466796875,0.1720895767211914,-0.04871875047683716,-0.07992267608642578
1696965906114360600,8.007360595703124,-0.23928546905517578,-0.43679648637771606,0.2940332293510437
1696965906124374800,8.017374755859375,1.266571044921875,0.0515742301940918,-0.26835691928863525
1696965906134388700,8.027388671875,-0.9964065551757812,-0.5129172801971436,-0.1313973069190979
1696965906144403000,8.03740283203125,0.24341392517089844,-0.031402647495269775,0.15895748138427734
1696965906154417200,8.047417236328124,0.5250558853149414,-0.053217947483062744,-0.013819336891174316
1696965906164431000,8.05743115234375,-0.5944643020629883,-0.7765268087387085,-0.2080157995223999
1696965906174445300,8.0674453125,-0.4065408706665039,-0.26358598470687866,-0.1983233094215393
1696965906184459500,8.07745947265625,0.7412986755371094,0.16700762510299683,-0.14756256341934204
1696965906194473500,8.087473388671874,-0.22081375122070312,-0.6339374780654907,-0.00991511344909668
1696965906204487700,8.09748779296875,-0.4259452819824219,-0.5791114568710327,-0.34237945079803467
1696965906214502000,8.107501953125,0.16319561004638672,-0.44108736515045166,-0.19926846027374268
1696965906224515800,8.117515869140625,-0.9078226089477539,-0.3058118224143982,0.0511508584022522
1696965906234530000,8.127530029296874,1.1635818481445312,-0.6386933922767639,-0.014573752880096436
1696965906244544000,8.1375439453125,-0.2964963912963867,-0.5548330545425415,-0.6224156618118286
1696965906254558200,8.14755810546875,-0.6112909317016602,-0.08826076984405518,-0.06708270311355591
1696965906264572400,8.157572509765625,1.645787239074707,-0.5710760354995728,-0.2648771405220032
1696965906274586400,8.16758642578125,-1.0435619354248047,-0.8600401878356934,-0.39659035205841064
1696965906284600600,8.1776005859375,0.5357589721679688,-0.3491480350494385,-0.3979853391647339
1696965906294614800,8.18761474609375,-0.1913890838623047,-0.4673573672771454,-0.4715917110443115
1696965906304628700,8.197628662109375,0.6831674575805664,-0.46777400374412537,0.19670462608337402
1696965906314643000,8.207642822265624,1.375105857849121,-0.8929682970046997,-0.823948860168457
1696965906324657000,8.217656982421875,-2.427359104156494,-0.17015355825424194,-0.04086536169052124
1696965906334671000,8.227671142578124,2.8253936767578125,-0.266899049282074,-0.14034610986709595
1696965906344685000,8.23768505859375,-0.29157543182373047,-0.8003443479537964,-0.3139672577381134
1696965906354699000,8.247698974609374,-0.87451171875,-0.541212797164917,-0.4713044762611389
1696965906364713200,8.257713134765625,1.307560920715332,-0.20991301536560059,-0.4118736982345581
1696965906374727200,8.26772705078125,-0.9897432327270508,-0.065940260887146,0.10728436708450317
1696965906384741400,8.277741455078125,1.2878093719482422,-0.8041214942932129,-0.5390197038650513
1696965906394755300,8.28775537109375,-1.6921672821044922,-0.0744510293006897,-0.22096776962280273
1696965906404769500,8.29776953125,0.4717092514038086,-0.1623847484588623,0.040898025035858154
1696965906414783500,8.307783447265624,0.37557315826416016,-0.3626028895378113,-0.0862884521484375
1696965906424797400,8.31779736328125,-1.6038446426391602,-0.6152902841567993,-0.20058846473693848
1696965906434811600,8.327811767578124,1.2339773178100586,0.0032434463500976562,0.030554115772247314
1696965906444825600,8.33782568359375,-0.8045034408569336,-0.08664536476135254,-0.004232883453369141
1696965906454839800,8.34783984375,-0.5113096237182617,-0.591244101524353,0.3092244863510132
1696965906464853800,8.357853759765625,0.10658550262451172,-0.1086624264717102,-0.12601792812347412
1696965906474868000,8.367867919921874,-0.5533828735351562,-0.12700992822647095,0.12064927816390991
1696965906484882000,8.3778818359375,0.4896049499511719,-0.6085531711578369,-0.0780685544013977
1696965906494895900,8.387895751953126,-1.1267080307006836,-0.49909618496894836,-0.24057632684707642
1696965906504910000,8.39791015625,0.17542362213134766,0.03125262260437012,-0.00650554895401001
1696965906514924000,8.407924072265626,0.39498233795166016,-0.45753732323646545,-0.34652620553970337
1696965906524938200,8.417938232421875,-0.5668706893920898,-0.4498339593410492,-0.22891473770141602
1696965906534952200,8.4279521484375,0.11813163757324219,-0.5829193592071533,-0.23098665475845337
1696965906544966400,8.43796630859375,-0.12627696990966797,-0.38283658027648926,-0.19475477933883667
1696965906554980400,8.44798046875,1.43701171875,-0.4974994957447052,-0.31170397996902466
1696965906564994300,8.457994384765625,-0.9080438613891602,-0.3778854012489319,-0.2367323637008667
1696965906575008500,8.468008544921876,0.1645498275756836,-0.6804094314575195,-0.0030170083045959473
1696965906585022500,8.4780224609375,1.9610939025878906,-0.373602032661438,-0.1987270712852478
1696965906595036700,8.48803662109375,-0.8149614334106445,-0.5914367437362671,-0.5427167415618896
1696965906605050600,8.498050537109375,0.5774326324462891,-0.6351609230041504,-0.10511654615402222
1696965906615064800,8.50806494140625,0.8585615158081055,-0.5511248111724854,-0.19074976444244385
1696965906625078800,8.518078857421875,0.024984359741210938,-0.5036097764968872,-0.6195952296257019
1696965906635092700,8.5280927734375,-0.28035831451416016,-0.6243228912353516,-0.4756518602371216
1696965906645107000,8.53810693359375,1.1873502731323242,-0.49803635478019714,-0.042739927768707275
1696965906655121200,8.54812109375,1.0945243835449219,-0.6233413219451904,-0.5154879093170166
1696965906665135000,8.558135009765625,-1.6987810134887695,-0.5662075281143188,-0.4695590138435364
1696965906675149300,8.5681494140625,1.6364641189575195,-0.39341795444488525,-0.03324407339096069
1696965906685163300,8.578163330078125,0.3000526428222656,-0.6967597603797913,-0.113700270652771
1696965906695177500,8.588177490234376,-1.139012336730957,-0.25163036584854126,-0.29117679595947266
1696965906705191700,8.598191650390625,1.248976707458496,-0.5658283233642578,-0.20960283279418945
1696965906715205600,8.60820556640625,0.26671504974365234,-0.17215532064437866,0.0708092451095581
1696965906725219800,8.6182197265625,-0.4980916976928711,-0.8356035947799683,-0.3032909035682678
1696965906735234000,8.628234130859376,-0.25292110443115234,-0.3673972487449646,-0.19226878881454468
1696965906745248000,8.638248046875,0.8759613037109375,-0.19736826419830322,0.2792533040046692
1696965906755262200,8.64826220703125,-1.2045574188232422,-0.5362982749938965,-0.004157662391662598
1696965906765276400,8.6582763671875,0.06471443176269531,-0.30425024032592773,-0.0751689076423645
1696965906775290400,8.668290283203126,1.039937973022461,-0.42205584049224854,0.10984480381011963
1696965906785304600,8.6783046875,-1.332733154296875,-0.5000685453414917,0.008460402488708496
1696965906795318500,8.688318603515626,0.4816102981567383,-0.45904451608657837,-0.0047438740730285645
1696965906805332700,8.698332763671875,0.8057661056518555,-0.5903719663619995,0.11389702558517456
1696965906815347000,8.708346923828126,-1.0647039413452148,-0.2454354166984558,0.26069700717926025
1696965906825361000,8.71836083984375,1.1407670974731445,-0.7070558071136475,0.14340001344680786
1696965906835375000,8.728375,0.31152915954589844,-0.7466509342193604,-0.07317131757736206
1696965906845389300,8.738389404296875,-0.20063400268554688,-0.2760288715362549,0.2088438868522644
1696965906855403300,8.7484033203125,0.6839780807495117,-0.9555167555809021,-0.2574384808540344
1696965906865417500,8.75841748046875,0.10407447814941406,-0.3796688914299011,-0.028439223766326904
1696965906875431700,8.768431640625,1.4659671783447266,-0.7920825481414795,0.040034472942352295
1696965906885445600,8.778445556640625,-1.7583684921264648,-0.7163347601890564,-0.06203198432922363
1696965906895459800,8.7884599609375,1.8583755493164062,-0.5636199712753296,-0.20997697114944458
1696965906905473800,8.798473876953125,0.4210052490234375,-0.5889917612075806,-0.23220747709274292
1696965906915488000,8.808488037109376,-1.3245735168457031,-0.7153918743133545,-0.4261503517627716
1696965906925502200,8.818502197265625,1.8137941360473633,-0.39966487884521484,-0.308716744184494
1696965906935516200,8.82851611328125,-0.22577571868896484,-0.5675595998764038,-0.2679576873779297
1696965906945530400,8.8385302734375,-1.372293472290039,-0.670840322971344,-0.14640748500823975
1696965906955544600,8.848544677734376,0.9826765060424805,-0.5524121522903442,-0.456875205039978
1696965906965558500,8.85855859375,-0.23326683044433594,-0.3634716272354126,-0.15973854064941406
1696965906975572700,8.86857275390625,-0.3088655471801758,-0.7376912832260132,-0.7192708849906921
1696965906985587000,8.8785869140625,0.3945331573486328,-0.5606808662414551,-0.582858681678772
1696965906995601000,8.888600830078126,0.5518035888671875,-0.6306041479110718,-0.3730102479457855
1696965907005615000,8.898614990234375,-0.9690618515014648,-0.5738139152526855,-0.563546895980835
1696965907015629000,8.908629150390626,0.9068136215209961,-0.6310451030731201,-0.30341437458992004
1696965907025643300,8.918643310546875,0.33635807037353516,-0.47127842903137207,-0.012530863285064697
1696965907035657500,8.928657470703126,0.1969738006591797,-0.6248481273651123,-0.44986969232559204
1696965907045671400,8.93867138671875,0.32581615447998047,-0.5641307830810547,-0.3532549738883972
1696965907055685600,8.948685546875,0.7456645965576172,-0.14447373151779175,-0.3025558888912201
1696965907065699800,8.958699951171875,-0.8996219635009766,-0.8418689966201782,-0.42715176939964294
1696965907075713800,8.9687138671875,-0.33860206604003906,-0.5424656867980957,-0.5599901676177979
1696965907085728000,8.97872802734375,0.8480453491210938,-0.4934217035770416,-0.5559931397438049
1696965907095742000,8.988741943359376,-1.0274429321289062,-0.488233357667923,-0.5100124478340149
1696965907105756200,8.998756103515625,1.1592636108398438,-0.7847695350646973,-0.7524275183677673
1696965907115770400,9.008770263671876,-0.6446895599365234,-0.5722742080688477,-0.4810350835323334
1696965907125784300,9.018784423828125,-1.1496047973632812,-0.6759412884712219,-0.6479650139808655
1696965907135798500,9.028798583984376,0.8462152481079102,-0.579066276550293,-0.4038706123828888
1696965907145812700,9.038812744140625,-0.3499879837036133,-0.7345210313796997,-0.2735432982444763
1696965907155826700,9.04882666015625,-0.9321260452270508,-0.7174640893936157,-0.4086014926433563
1696965907165841000,9.0588408203125,1.7752132415771484,-0.22860443592071533,-0.40396106243133545
1696965907175855000,9.068855224609376,-1.0861396789550781,-0.6304231882095337,-0.4709469676017761
1696965907185869000,9.078869140625,-0.6728382110595703,-0.5005935430526733,-0.2068670392036438
1696965907195883300,9.08888330078125,0.7488136291503906,-0.7470873594284058,-0.4680006504058838
1696965907205897200,9.098897216796875,-1.1454219818115234,-0.33935004472732544,0.08618330955505371
1696965907215911400,9.108911376953126,0.9458770751953125,-0.7543286681175232,-0.4352055490016937
1696965907225925600,9.118925537109375,-0.26990795135498047,-0.6454912424087524,0.17513000965118408
1696965907235939600,9.128939697265626,-0.11157798767089844,-0.6251178979873657,-0.0532146692276001
1696965907245953800,9.138953857421875,-0.3309011459350586,-0.6161351203918457,-0.005556702613830566
1696965907255968000,9.148968017578126,0.4008455276489258,-0.6760664582252502,0.026540815830230713
1696965907265982000,9.15898193359375,0.20433712005615234,-0.5783228874206543,0.0025954246520996094
1696965907275996200,9.16899609375,-0.5038290023803711,-0.6332502365112305,-0.22215288877487183
1696965907286010400,9.17901025390625,0.9791965484619141,-0.8406579494476318,-0.21083688735961914
1696965907296024300,9.1890244140625,-0.6289606094360352,-0.3957020044326782,0.06438833475112915
1696965907306038500,9.19903857421875,0.09921646118164062,-0.9999178647994995,-0.47390714287757874
1696965907316052500,9.209052490234376,-0.7707767486572266,-0.534637451171875,-0.0895235538482666
1696965907326066700,9.219066650390625,1.620802879333496,-0.9852295517921448,-0.4840239882469177
1696965907336081000,9.229080810546876,-1.5032730102539062,-0.49003759026527405,-0.4054388105869293
1696965907346094800,9.2390947265625,1.5443286895751953,-0.61153244972229,-0.3337664008140564
1696965907356109000,9.249109130859376,0.4090118408203125,-0.3265698552131653,-0.2435004711151123
1696965907366123300,9.259123291015625,-1.2169570922851562,-0.9274810552597046,-0.29935842752456665
1696965907376137200,9.26913720703125,1.8067445755004883,-0.2825203537940979,0.020016491413116455
1696965907386151400,9.2791513671875,0.015467643737792969,-0.6977679133415222,0.02816617488861084
1696965907396165600,9.28916552734375,0.05375099182128906,-0.4672560691833496,-0.15396714210510254
1696965907406179600,9.2991796875,1.6690340042114258,-0.4446103572845459,0.23569899797439575
1696965907416193800,9.30919384765625,0.49927616119384766,-0.5059318542480469,-0.17055505514144897
1696965907426207700,9.319207763671875,-1.6237373352050781,-0.6348497867584229,0.0021933317184448242
1696965907436222000,9.329221923828126,1.959263801574707,-0.5755311250686646,-0.3191073536872864
1696965907446236200,9.339236083984375,-0.9790401458740234,-0.5905990600585938,-0.12559473514556885
1696965907456250000,9.34925,-0.7527999877929688,-0.6761873960494995,-0.0026810169219970703
1696965907466264300,9.359264404296875,1.7200441360473633,-0.5683369636535645,-0.7979754209518433
1696965907476278500,9.369278564453126,-2.126178741455078,-0.5653282403945923,-0.1039699912071228
1696965907486292500,9.37929248046875,0.31092166900634766,-0.727836012840271,-0.7228343486785889
1696965907496306700,9.389306640625,-0.47784423828125,-0.79229736328125,-0.8092913627624512
1696965907506321000,9.39932080078125,-0.539093017578125,-0.5064429044723511,-0.5564743876457214
1696965907516334800,9.4093349609375,-0.09778118133544922,-0.9514449238777161,-0.9299514293670654
1696965907526349000,9.41934912109375,-0.929072380065918,-0.6901453733444214,-0.6856412887573242
1696965907536363000,9.429363037109376,1.4628305435180664,-0.44961148500442505,-0.6614428162574768
1696965907546377200,9.439377197265625,-1.5317087173461914,-0.829910159111023,-0.790878415107727
1696965907556391200,9.44939111328125,0.679478645324707,-0.5934205055236816,-0.31534960865974426
1696965907566405400,9.4594052734375,2.2365293502807617,-0.6113998889923096,-0.6734890937805176
1696965907576419300,9.46941943359375,-2.24172306060791,-0.8935285806655884,-0.3426562547683716
1696965907586433500,9.47943359375,2.6139488220214844,-0.5094771385192871,-0.2718279957771301
1696965907596447500,9.489447509765625,0.8836326599121094,-0.7092770338058472,-0.288607120513916
1696965907606461400,9.49946142578125,-2.096278667449951,-0.6277607679367065,-0.07160729169845581
1696965907616475600,9.5094755859375,2.8840408325195312,-0.9531301259994507,-0.6107810139656067
1696965907626489600,9.519489501953124,-0.45342063903808594,-0.26304173469543457,0.04716610908508301
1696965907636503800,9.52950390625,0.2692270278930664,-0.7926851511001587,-0.8544549345970154
1696965907646517800,9.539517822265625,0.8328361511230469,-0.44502854347229004,-0.2652384340763092
1696965907656532000,9.549531982421875,-0.08156490325927734,-0.6242952346801758,-0.3334561884403229
1696965907666546000,9.5595458984375,-0.8314990997314453,-0.5475466251373291,-0.23286336660385132
1696965907676560000,9.569559814453125,0.43234920501708984,-0.5806164741516113,-0.35210442543029785
1696965907686574000,9.579573974609374,0.2309560775756836,-0.32401978969573975,-0.2815353274345398
1696965907696588000,9.589588134765625,-0.4144773483276367,-0.45878344774246216,-0.30227696895599365
1696965907706602200,9.599602294921874,-0.08838367462158203,-0.41932612657546997,-0.1407809853553772
1696965907716616200,9.6096162109375,1.1402873992919922,-0.36288881301879883,-0.1939939260482788
1696965907726630400,9.61963037109375,-1.691049575805664,-0.35084253549575806,-0.20929402112960815
1696965907736644400,9.629644287109375,0.15737247467041016,-0.934363067150116,0.152271568775177
1696965907746658600,9.639658447265624,1.3189201354980469,-0.08977800607681274,-0.09688413143157959
1696965907756672500,9.649672607421875,-1.035466194152832,-0.6880394220352173,-0.05464857816696167
1696965907766686500,9.6596865234375,1.1701335906982422,-0.5031758546829224,-0.1941286325454712
1696965907776700700,9.66970068359375,0.8714542388916016,-0.2572445273399353,0.03298056125640869
1696965907786714600,9.679714599609374,-1.1710395812988281,-0.6260086297988892,-0.003447890281677246
1696965907796728800,9.689728759765625,0.7766561508178711,-0.9619021415710449,-0.04008287191390991
1696965907806742800,9.69974267578125,1.0859756469726562,-0.35206174850463867,0.1429431438446045
1696965907816757000,9.709757080078125,-0.5797052383422852,-0.6053898334503174,-0.03470146656036377
1696965907826771000,9.71977099609375,0.6452207565307617,-0.6332073211669922,-0.306876003742218
1696965907836785000,9.729784912109375,0.8638248443603516,-0.4765431880950928,0.10759347677230835
1696965907846799000,9.739799072265624,-0.6241121292114258,-0.5127615928649902,-0.2286902666091919
1696965907856813000,9.74981298828125,-0.656071662902832,-0.9461040496826172,-0.17963528633117676
1696965907866827300,9.7598271484375,1.8978567123413086,-0.49716916680336,-0.18473058938980103
1696965907876841200,9.76984130859375,-1.2792997360229492,-0.7457078099250793,-0.11634242534637451
1696965907886855400,9.77985546875,0.3723907470703125,-0.6707799434661865,-0.410351425409317
1696965907896869600,9.78986962890625,1.2658119201660156,-0.44477564096450806,-0.10640335083007812
1696965907906883600,9.799883544921874,-0.04631519317626953,-0.7295984029769897,-0.1695101261138916
1696965907916897800,9.809897705078125,-0.6337833404541016,-0.47103428840637207,0.03952813148498535
1696965907926912000,9.819912109375,1.6283416748046875,-0.4672359228134155,0.027496159076690674
1696965907936926000,9.829926025390625,0.08611679077148438,-0.3567270040512085,0.08730810880661011
1696965907946940200,9.839940185546874,-0.24393367767333984,-0.7623371481895447,0.11298364400863647
1696965907956954000,9.8499541015625,1.405527114868164,-0.17511200904846191,-0.1235916018486023
1696965907966968300,9.85996826171875,-0.6809787750244141,-0.6151316165924072,-0.052790820598602295
1696965907976982500,9.869982421875,-1.186141014099121,-0.5744972229003906,-0.24504446983337402
1696965907986996500,9.87999658203125,0.9483470916748047,-0.6279034614562988,-0.32802706956863403
1696965907997010700,9.8900107421875,-0.7739658355712891,-0.5636413097381592,-0.13225287199020386
1696965908007025000,9.90002490234375,-1.0063199996948242,-0.5141850709915161,-0.330996036529541
1696965908017038800,9.910038818359375,0.41580677032470703,-0.5295898914337158,-0.5072126388549805
1696965908027053000,9.920052978515624,-0.7605571746826172,-0.41091322898864746,-0.024782955646514893
1696965908037067000,9.93006689453125,-0.696380615234375,-0.6644537448883057,-0.6606007814407349
1696965908047081200,9.940081298828124,-0.2500467300415039,-0.4818539619445801,-0.024755477905273438
1696965908057095400,9.950095458984375,0.7447910308837891,-0.3958052396774292,0.041103482246398926
1696965908067109400,9.960109375,-0.4944734573364258,-0.5215951204299927,-0.18525177240371704
1696965908077123600,9.97012353515625,0.17572689056396484,-0.29510366916656494,0.006960690021514893
1696965908087137800,9.9801376953125,0.7299861907958984,-0.5406253337860107,0.14899569749832153
1696965908097151700,9.99015185546875,-0.9396276473999023,-0.2588043212890625,0.08310878276824951
1696965908107166000,10.000166015625,0.3672161102294922,-0.6545555591583252,0.30998867750167847
1696965908117180200,10.01018017578125,0.8345756530761719,-0.05685770511627197,0.24105709791183472
1696965908127194000,10.020194091796874,-0.6631574630737305,-0.676268458366394,0.1761077642440796
1696965908137208300,10.030208251953125,-0.5376873016357422,-0.37231242656707764,0.195720374584198
1696965908147222300,10.04022216796875,0.7681236267089844,-0.1382148265838623,0.11940193176269531
1696965908157236500,10.050236572265625,-0.8394975662231445,-0.5660537481307983,0.3197881579399109
1696965908167250700,10.060250732421874,-0.7519922256469727,-0.5340505838394165,-0.40926897525787354
1696965908177264600,10.0702646484375,1.19488525390625,-0.20906436443328857,-0.8444671630859375
1696965908187278800,10.08027880859375,0.44657421112060547,-1.4828784465789795,0.34521013498306274
1696965908197293000,10.09029296875,-2.1398324966430664,-1.102518081665039,-1.3387112617492676
1696965908207307000,10.10030712890625,0.07814693450927734,-0.5553555488586426,-0.6456936597824097
1696965908217321200,10.1103212890625,1.230031967163086,0.012421131134033203,-0.7799579501152039
1696965908227335400,10.12033544921875,-1.4818220138549805,-0.4750974178314209,-0.5849826335906982
1696965908237349400,10.130349365234375,0.8440713882446289,-0.213201642036438,-0.5238844156265259
1696965908247363600,10.140363525390624,0.26033496856689453,-0.4259992837905884,-0.7440692186355591
1696965908257377500,10.15037744140625,-1.5084962844848633,-0.5916920900344849,-0.18005484342575073
1696965908267391700,10.160391845703124,0.11613655090332031,0.3624296188354492,-0.16420722007751465
1696965908277406000,10.170406005859375,-2.153925895690918,0.04918205738067627,0.12175214290618896
1696965908287420000,10.180419921875,0.6276798248291016,-0.301737904548645,-0.9908077716827393
1696965908297434000,10.19043408203125,1.4200315475463867,-0.003285050392150879,-0.3048737049102783
1696965908307448300,10.2004482421875,1.1630001068115234,-0.14035439491271973,-0.6092718839645386
1696965908317462300,10.210462158203125,-0.3158149719238281,-2.079407215118408,0.30273497104644775
1696965908327476500,10.2204765625,0.16651630401611328,-0.2958015203475952,-0.04117262363433838
1696965908337490700,10.23049072265625,2.2220001220703125,-1.8925650119781494,-0.906909704208374
1696965908347504600,10.240504638671876,-1.6171064376831055,-0.6550024747848511,0.019042909145355225
1696965908357518800,10.250518798828125,5.177651405334473,-1.1753402948379517,0.5603060722351074
1696965908367532800,10.26053271484375,-1.5397272109985352,0.4035823345184326,0.5852135419845581
1696965908377547000,10.270547119140625,1.6169376373291016,1.1789522171020508,0.5711268186569214
1696965908387561200,10.280561279296874,0.7201423645019531,-0.9514262080192566,1.2799267768859863
1696965908397575200,10.2905751953125,-1.9826765060424805,0.2785269021987915,1.9260869026184082
1696965908407589400,10.30058935546875,0.2824535369873047,-0.575891375541687,-0.3178943991661072
1696965908417603600,10.310603515625,-2.52354097366333,-0.016190409660339355,-0.01844000816345215
1696965908427617500,10.320617431640626,0.6409769058227539,-0.7168092131614685,-0.8302462100982666
1696965908437631700,10.3306318359375,-1.0323896408081055,0.8752870559692383,-0.8718663454055786
1696965908447646000,10.34064599609375,-0.9348659515380859,-0.7636510729789734,-2.042283773422241
1696965908457660000,10.350659912109375,1.5820789337158203,-1.324183464050293,-0.21754425764083862
1696965908467674000,10.360674072265626,-0.5769815444946289,-0.9019678831100464,0.9959560036659241
1696965908477688000,10.37068798828125,0.9876317977905273,-1.1072231531143188,-0.7747208476066589
1696965908487702300,10.380702392578126,-3.2528076171875,-0.06735479831695557,1.238856315612793
1696965908497716500,10.390716552734375,4.357377052307129,0.1318436861038208,0.6241272687911987
1696965908507730400,10.40073046875,2.259791374206543,0.8118624687194824,-0.4799784719944
1696965908517744600,10.41074462890625,-0.5850210189819336,-0.09645724296569824,-0.6789695024490356
1696965908527758800,10.4207587890625,0.014664649963378906,-0.6853539943695068,-0.02195492386817932
1696965908537772800,10.430772705078125,-0.6454238891601562,-0.013805866241455078,-0.2610267996788025
1696965908547787000,10.440787109375,-0.0648031234741211,0.09475624561309814,-0.4392547607421875
1696965908557801200,10.45080126953125,-1.4556217193603516,-0.3541916608810425,-0.7343287467956543
1696965908567815200,10.460815185546876,0.2782154083251953,-0.4553487300872803,-0.7952176332473755
1696965908577829400,10.470829345703125,0.08161735534667969,-1.1776139736175537,-0.4651280641555786
1696965908587843300,10.48084326171875,0.740849494934082,-0.5781264305114746,-0.9435334205627441
1696965908597857500,10.490857421875,-0.24492359161376953,-0.06987035274505615,-0.3548196852207184
1696965908607871700,10.500871826171876,-0.665283203125,0.4143613576889038,0.3161202669143677
1696965908617885700,10.5108857421875,1.1239118576049805,-0.22027695178985596,0.04025465250015259
1696965908627900000,10.52089990234375,-2.58720064163208,-0.23161554336547852,0.21350780129432678
1696965908637914000,10.5309140625,0.7543907165527344,-1.184504747390747,0.47866368293762207
1696965908647928000,10.540927978515626,-0.21737194061279297,0.1296919584274292,-0.1759815812110901
1696965908657942300,10.5509423828125,-0.4367094039916992,-0.1249932050704956,-0.6881852149963379
1696965908667956200,10.560956298828126,-1.080845832824707,0.5159868001937866,-0.5279914736747742
1696965908677970400,10.570970458984375,0.3315868377685547,0.022320151329040527,-0.4053669571876526
1696965908687984600,10.580984619140626,-2.259072780609131,-0.1474989652633667,-0.2968604266643524
1696965908697998600,10.59099853515625,-1.5177583694458008,-0.5314315557479858,-0.4060300588607788
1696965908708012500,10.601012451171876,-0.04202079772949219,-0.309456467628479,-0.10143324732780457
1696965908718026800,10.61102685546875,-0.5053024291992188,-0.3040122985839844,-0.5969687700271606
1696965908728040700,10.621040771484376,0.11722564697265625,0.34835827350616455,-0.6374919414520264
1696965908738055000,10.631054931640625,0.5423593521118164,0.13358283042907715,-0.17705711722373962
1696965908748068900,10.64106884765625,-0.23787593841552734,-0.18144476413726807,-0.20893560349941254
1696965908758083000,10.6510830078125,-0.33770751953125,-0.1502361297607422,-0.31202471256256104
1696965908768097000,10.661096923828126,-0.25559520721435547,-0.31089890003204346,0.18201854825019836
1696965908778111000,10.671111083984375,0.10776042938232422,-0.24369001388549805,0.24920699000358582
1696965908788125200,10.681125244140626,1.7943181991577148,0.2651115655899048,-0.282228946685791
1696965908798139100,10.69113916015625,-0.6712398529052734,0.001893162727355957,-0.14571624994277954
1696965908808153300,10.7011533203125,0.5768728256225586,-0.029752612113952637,0.09767472743988037
1696965908818167300,10.711167236328125,0.6663999557495117,-0.3796379566192627,-0.2048029899597168
1696965908828181500,10.721181396484376,-1.9212207794189453,-0.006284952163696289,-0.3318794369697571
1696965908838195500,10.731195556640625,1.1128835678100586,-0.39809751510620117,-0.3963869512081146
1696965908848209400,10.74120947265625,-0.4764823913574219,-0.1812835931777954,-0.16848477721214294
1696965908858223600,10.7512236328125,-0.17958545684814453,-0.3194659352302551,-0.4620850086212158
1696965908868237600,10.761237548828126,0.23192882537841797,0.05062371492385864,-0.7711910009384155
1696965908878251800,10.771251708984375,-0.1944408416748047,-0.20272964239120483,0.09509307146072388
1696965908888265700,10.781265625,0.8192710876464844,-0.5977621078491211,-0.4875277280807495
1696965908898280000,10.791280029296875,-1.3095521926879883,-0.29209816455841064,-0.3802075982093811
1696965908908294000,10.8012939453125,1.1879119873046875,-0.42470020055770874,-0.07052275538444519
1696965908918307800,10.811307861328125,0.8888206481933594,-0.22720378637313843,0.015795469284057617
1696965908928322000,10.821322021484375,-0.6236972808837891,-0.2952059507369995,-0.5708252191543579
1696965908938336000,10.8313359375,0.37169742584228516,-0.40097326040267944,-0.14228355884552002
1696965908948350200,10.84135009765625,1.1209335327148438,0.2095332145690918,-0.005800575017929077
1696965908958364200,10.8513642578125,-0.13385295867919922,-0.6123490333557129,-0.32466161251068115
1696965908968378400,10.86137841796875,-0.21024608612060547,-0.176652193069458,-0.5941962599754333
1696965908978392300,10.871392333984375,0.8893938064575195,-0.19721412658691406,-0.043010205030441284
1696965908988406500,10.881406494140625,0.28014659881591797,-0.6346096992492676,-0.46983030438423157
1696965908998420500,10.89142041015625,-0.3799924850463867,-0.6307194232940674,-0.808855414390564
1696965909008434400,10.901434326171875,-0.2598285675048828,0.015184760093688965,0.11311882734298706
1696965909018448600,10.91144873046875,0.4385700225830078,-0.41370445489883423,-0.3295736312866211
1696965909028462600,10.921462646484375,-2.0714163780212402,0.2683587074279785,-0.38253235816955566
1696965909038476800,10.931476806640624,0.4994525909423828,-0.017882823944091797,0.2454662322998047
1696965909048490800,10.94149072265625,-1.078690528869629,0.14071929454803467,0.5649782419204712
1696965909058505000,10.9515048828125,-2.1090283393859863,-0.43153122067451477,0.041174352169036865
1696965909068519000,10.961518798828125,-0.7898712158203125,0.8023421168327332,-0.1806889772415161
1696965909078533000,10.971533203125,-0.23904991149902344,0.1334889531135559,-0.5801651477813721
1696965909088547300,10.98154736328125,1.2762470245361328,-0.1683673858642578,0.08707982301712036
1696965909098561300,10.991561279296874,-2.5215444564819336,-0.7331326007843018,-0.452914834022522
1696965909108575500,11.001575439453125,0.6854314804077148,-0.8302927613258362,-0.7291900515556335
1696965909118589700,11.011589599609374,1.391779899597168,-2.3781051635742188,1.114680528640747
1696965909128603600,11.021603759765625,-1.838653564453125,1.098296880722046,0.22668832540512085
1696965909138617900,11.031617919921874,5.931395530700684,-0.8794455528259277,-0.7187219262123108
1696965909148631800,11.0416318359375,-0.24796390533447266,-0.6041735410690308,0.8045403361320496
1696965909158646000,11.05164599609375,2.2036209106445312,-1.8750615119934082,0.7275440096855164
1696965909168660200,11.06166015625,-3.4504899978637695,1.2734127044677734,-0.1790674328804016
1696965909178674200,11.071674072265624,0.5948905944824219,0.1158980131149292,1.913517951965332
1696965909188688400,11.0816884765625,2.2657995223999023,-0.41639336943626404,2.4273791313171387
1696965909198702600,11.09170263671875,2.2495555877685547,0.7367187142372131,2.3272199630737305
1696965909208716500,11.101716552734375,-1.0156793594360352,-0.23737728595733643,-0.5499538779258728
1696965909218730800,11.111730712890624,-3.1068320274353027,-0.229625403881073,0.43208298087120056
1696965909228745000,11.121744873046875,-0.1948528289794922,0.613447904586792,0.4103941321372986
1696965909238759000,11.131759033203124,0.1640625,0.6564188003540039,-1.6493414640426636
1696965909248773000,11.141773193359375,-2.474933624267578,-0.3965115249156952,0.33676013350486755
1696965909258787000,11.151787109375,3.1267709732055664,-1.0858266353607178,0.2114732265472412
1696965909268801300,11.16180126953125,-3.369957447052002,-0.6468228101730347,0.06726804375648499
1696965909278815500,11.1718154296875,0.8138542175292969,-2.631347894668579,-0.033084481954574585
1696965909288829400,11.181829345703125,1.992746353149414,0.42447394132614136,-0.9008702039718628
1696965909298843600,11.19184375,-0.4353036880493164,0.7958033084869385,-0.8665233850479126
1696965909308857900,11.20185791015625,1.3765792846679688,0.1684470772743225,0.26285508275032043
1696965909318871800,11.211871826171874,2.419729232788086,0.33670932054519653,-0.10886669158935547
1696965909328886000,11.221885986328125,-2.2600278854370117,0.019943833351135254,-0.49772655963897705
1696965909338900200,11.231900146484374,-2.751317024230957,-0.5432759523391724,-0.5664821863174438
1696965909348914200,11.2419140625,-0.18845844268798828,1.4667718410491943,0.6301908493041992
1696965909358928400,11.251928466796874,0.38620758056640625,1.2268810272216797,-1.620445728302002
1696965909368942300,11.2619423828125,-4.451379299163818,0.2619744539260864,-1.5496786832809448
1696965909378956500,11.27195654296875,1.4614734649658203,-0.31321215629577637,-2.9222464561462402
1696965909388970800,11.281970703125,-3.167297840118408,-0.11233103275299072,-0.646050214767456
1696965909398984700,11.291984619140624,-3.21270751953125,-1.3286503553390503,-1.6727802753448486
1696965909408999000,11.3019990234375,-0.17930221557617188,-0.0138014554977417,-1.6789352893829346
1696965909419013000,11.31201318359375,-0.6282958984375,0.9669108986854553,0.13044562935829163
1696965909429027000,11.322027099609375,2.593679428100586,-0.24797004461288452,-1.368100881576538
1696965909439041300,11.332041259765624,-1.0109376907348633,-0.15748095512390137,-1.7120282649993896
1696965909449055500,11.342055419921875,-0.029715538024902344,0.9315274357795715,0.13436013460159302
1696965909459069400,11.3520693359375,1.7716293334960938,-0.5947949886322021,1.299408197402954
1696965909469083600,11.362083740234375,-1.3877534866333008,-1.3296103477478027,0.36589622497558594
1696965909479097600,11.37209765625,-0.1280832290649414,-0.29643985629081726,0.352787047624588
1696965909489111800,11.38211181640625,1.2664575576782227,2.635733127593994,0.8514745831489563
1696965909499126000,11.3921259765625,2.978184700012207,1.5642070770263672,0.8039951324462891
1696965909509140000,11.402139892578125,-1.479161262512207,-0.6808681488037109,0.16317319869995117
1696965909519154200,11.412154296875,-2.36997652053833,-1.5558397769927979,0.661063551902771
1696965909529168400,11.42216845703125,-0.3531637191772461,0.3127908706665039,0.32128530740737915
1696965909539182300,11.432182373046874,1.7691974639892578,0.5826641917228699,-1.0664795637130737
1696965909549196500,11.442196533203125,-2.655710220336914,-0.04110991954803467,-0.2932175397872925
1696965909559210500,11.45221044921875,0.9102859497070312,-0.35369643568992615,0.014723747968673706
1696965909569224700,11.462224609375,1.4959402084350586,-1.1438348293304443,-0.0301954448223114
1696965909579239000,11.472239013671874,-0.17592620849609375,1.0979840755462646,0.40343108773231506
1696965909589252900,11.4822529296875,1.8838739395141602,0.2568541169166565,1.2779241800308228
1696965909599267000,11.49226708984375,0.3353586196899414,-0.9628078937530518,0.880088210105896
1696965909609281300,11.50228125,-0.9990959167480469,-0.23720255494117737,0.3961242139339447
1696965909619295200,11.512295166015624,2.1233253479003906,2.9607338905334473,0.707044243812561
1696965909629309400,11.522309326171875,2.930026054382324,0.6116859316825867,0.2768177092075348
1696965909639323600,11.53232373046875,-1.2687177658081055,-0.6142808794975281,-0.15426293015480042
1696965909649337600,11.542337646484375,-0.16242599487304688,-0.8435873985290527,-0.7407568693161011
1696965909659351800,11.552351806640624,0.5067110061645508,1.5917487144470215,0.6362621188163757
1696965909669365800,11.56236572265625,0.9012823104858398,-0.38037043809890747,-0.26361554861068726
1696965909679380000,11.5723798828125,-1.452322006225586,-1.0985794067382812,-0.5752647519111633
1696965909689394200,11.582394287109375,-0.17344093322753906,-0.11325395107269287,-0.3441939055919647
1696965909699408100,11.592408203125,1.4991979598999023,1.574513554573059,0.8916157484054565
1696965909709422300,11.60242236328125,2.182981491088867,-0.5183684825897217,-0.8179352283477783
1696965909719436500,11.6124365234375,-2.5345306396484375,-1.3195303678512573,-0.7978709936141968
1696965909729450500,11.622450439453125,-0.07280254364013672,-0.12020659446716309,0.23865991830825806
1696965909739464700,11.632464599609374,0.7968177795410156,0.7473976612091064,0.2712458670139313
1696965909749479000,11.64247900390625,0.034415245056152344,-0.3102419078350067,-0.6989487409591675
1696965909759492900,11.652492919921874,-1.275308609008789,-0.4443211555480957,-0.4831734895706177
1696965909769507000,11.662507080078125,0.2612485885620117,0.14707863330841064,0.1496756672859192
1696965909779521000,11.67252099609375,0.34650135040283203,0.4346964955329895,-0.6813102960586548
1696965909789535200,11.68253515625,-1.8338332176208496,-0.5854029655456543,-0.674275815486908
1696965909799549400,11.692549560546874,-0.13313865661621094,-0.3295625150203705,-0.0544927716255188
1696965909809563400,11.7025634765625,0.3305950164794922,0.07532286643981934,0.11286085844039917
1696965909819577600,11.71257763671875,-0.4016256332397461,0.0012308955192565918,-0.7176072597503662
1696965909829591600,11.722591552734375,-0.33386707305908203,-0.05272984504699707,-0.4878759980201721
1696965909839605800,11.732605712890624,0.6558990478515625,0.3293539881706238,-0.1173836886882782
1696965909849619700,11.74261962890625,-0.674224853515625,-0.36924561858177185,-0.6063247919082642
1696965909859634000,11.752634033203124,-0.8066797256469727,0.07162356376647949,-0.6424064636230469
1696965909869648000,11.76264794921875,0.28484344482421875,-0.08892419934272766,-0.3547517657279968
1696965909879662000,11.772662109375,0.38422107696533203,0.6178990602493286,-0.24804849922657013
1696965909889676000,11.782676025390625,-0.0037479400634765625,-0.2968018054962158,-0.8083268404006958
1696965909899690000,11.79268994140625,-1.0362377166748047,0.4298701286315918,-0.22841984033584595
1696965909909704200,11.8027041015625,1.1883792877197266,-0.08938714861869812,-0.4275614619255066
1696965909919718100,11.81271826171875,-1.7391843795776367,0.13007336854934692,-0.25244617462158203
1696965909929732400,11.822732421875,0.2717618942260742,0.06018626689910889,-0.6583669185638428
1696965909939746300,11.832746337890624,0.8256120681762695,0.35550791025161743,-0.03383594751358032
1696965909949760500,11.842760498046875,-0.7538108825683594,-0.02456343173980713,-0.2649216949939728
1696965909959774500,11.8527744140625,-0.40303802490234375,0.11971932649612427,-0.8062056303024292
1696965909969788400,11.862788330078125,-0.3735837936401367,0.07040727138519287,-0.3782668709754944
1696965909979802600,11.872802734375,0.31070613861083984,0.26794809103012085,-0.030149996280670166
1696965909989816600,11.882816650390625,0.0708475112915039,-0.1895006000995636,-0.7416704893112183
1696965909999830800,11.892830810546876,-0.5887107849121094,-0.04002654552459717,-0.20899470150470734
1696965910009844700,11.9028447265625,1.266596794128418,0.4293566346168518,0.5057902336120605
1696965910019859000,11.91285888671875,0.8335733413696289,-0.09542462229728699,-0.6639877557754517
1696965910029873000,11.922872802734375,-2.3274693489074707,0.05632328987121582,-0.37440675497055054
1696965910039886800,11.932886962890626,2.347003936767578,0.22958970069885254,0.21123185753822327
1696965910049901000,11.942901123046875,0.6974401473999023,0.04969900846481323,0.1546606719493866
1696965910059915000,11.9529150390625,-0.5614194869995117,-0.2569704055786133,-0.6338825821876526
1696965910069929200,11.96292919921875,1.1508197784423828,0.3907187581062317,-0.43805408477783203
1696965910079943200,11.972943115234376,0.010589599609375,-0.09198549389839172,0.024066388607025146
1696965910089957400,11.982957275390625,-0.31445884704589844,-0.5440660715103149,-0.7178272008895874
1696965910099971300,11.992971435546876,-0.10813426971435547,0.018331825733184814,-0.8823171854019165
1696965910109985500,12.002985595703125,0.9625720977783203,0.06453871726989746,-0.13774611055850983
1696965910119999500,12.01299951171875,0.9316492080688477,-0.20352771878242493,-0.6905924677848816
1696965910130013400,12.023013427734375,-0.8912649154663086,0.022463977336883545,-1.287893295288086
1696965910140027600,12.033027587890626,0.1289052963256836,0.09257727861404419,-0.08055096864700317
1696965910150041600,12.04304150390625,2.0641260147094727,0.2990266680717468,-0.19803188741207123
1696965910160055800,12.053055908203126,-1.5868635177612305,-0.479391872882843,-0.8320542573928833
1696965910170069800,12.06306982421875,0.0656595230102539,0.3152041435241699,0.33910778164863586
1696965910180084000,12.073083984375,1.9916696548461914,0.139512836933136,0.4077591598033905
1696965910190098000,12.083097900390625,-1.1193647384643555,0.0395047664642334,-0.053439587354660034
1696965910200112000,12.093112060546876,-0.2086343765258789,-0.8019003868103027,-0.15162742137908936
1696965910210126000,12.1031259765625,0.12656688690185547,-0.6589686870574951,0.168531596660614
1696965910220140300,12.113140380859376,0.81915283203125,-0.6821881532669067,-0.36463475227355957
1696965910230154500,12.123154541015625,-1.4715337753295898,0.3751133680343628,-1.6780024766921997
1696965910240168400,12.13316845703125,-0.07745742797851562,0.0150337815284729,-0.4823104739189148
1696965910250182700,12.1431826171875,1.3711175918579102,0.9052345752716064,-0.5615004301071167
1696965910260196600,12.153196533203126,-1.6382122039794922,-0.9169173240661621,-0.4866971969604492
1696965910270210800,12.1632109375,0.14363574981689453,-0.7389773726463318,0.5713654160499573
1696965910280225000,12.17322509765625,0.931640625,0.957817554473877,2.1277661323547363
1696965910290239000,12.183239013671875,0.2697439193725586,0.47209542989730835,0.7629010677337646
1696965910300253200,12.193253173828126,-0.8831796646118164,0.04092460870742798,0.2842102646827698
1696965910310267400,12.203267333984375,0.729278564453125,0.04622626304626465,0.8243091702461243
1696965910320281300,12.21328125,-1.275404930114746,0.2637588381767273,1.2985730171203613
1696965910330295600,12.223295654296875,0.7057428359985352,0.38068199157714844,-0.19580529630184174
1696965910340309500,12.2333095703125,-1.6090593338012695,0.16641098260879517,-1.0367721319198608
1696965910350323700,12.24332373046875,-1.2040300369262695,0.8315222859382629,-0.4389292001724243
1696965910360338000,12.253337890625,1.2122802734375,-0.915823757648468,-0.6494325399398804
1696965910370351900,12.263351806640625,-1.8969616889953613,-0.19565680623054504,-0.10767585039138794
1696965910380366000,12.273365966796876,2.1645565032958984,-1.2683793306350708,-0.37419894337654114
1696965910390380300,12.28338037109375,-0.2726907730102539,0.18070882558822632,-0.0035386979579925537
1696965910400394200,12.293394287109376,0.4106636047363281,1.7060551643371582,1.6060795783996582
1696965910410408400,12.303408447265625,2.9998931884765625,-0.6194088459014893,-0.019464313983917236
1696965910420422700,12.313422607421876,-2.436666488647461,-0.649510383605957,0.19202467799186707
1696965910430436600,12.3234365234375,1.1531429290771484,1.3173527717590332,0.1445501148700714
1696965910440450800,12.333450927734376,1.47015380859375,1.1999824047088623,-0.3792172074317932
1696965910450464800,12.34346484375,-0.8037729263305664,-0.3636679947376251,-1.1203792095184326
1696965910460479000,12.35347900390625,-1.375380516052246,-0.21878212690353394,-1.0285584926605225
1696965910470493200,12.3634931640625,-1.7735395431518555,1.0117994546890259,-0.8759578466415405
1696965910480507100,12.373507080078125,0.13753032684326172,0.30411070585250854,-1.5361391305923462
1696965910490521300,12.383521240234375,-1.0620298385620117,-0.7750899195671082,-1.6558557748794556
1696965910500535600,12.39353564453125,-1.7187118530273438,-0.4105496108531952,-1.9421634674072266
1696965910510549500,12.403549560546875,-0.022459030151367188,0.23102009296417236,-0.5524616837501526
1696965910520563700,12.413563720703126,1.3971834182739258,0.5907876491546631,-0.16150476038455963
1696965910530578000,12.423577880859375,-0.6465721130371094,-0.40903240442276,-0.5280724763870239
1696965910540591900,12.433591796875,0.5832767486572266,-0.2944088280200958,-0.5356746315956116
1696965910550606000,12.443606201171875,0.4721851348876953,0.15132927894592285,-0.024650484323501587
1696965910560620000,12.4536201171875,1.0779380798339844,-0.10042175650596619,-0.4696352481842041
