time,seconds_elapsed,z,y,x
1696958504923588400,0.14458837890625,-2.0354747772216797,0.43578410148620605,0.5936909914016724
1696958504933603600,0.154603515625,1.9924449920654297,0.3915266990661621,0.6189270615577698
1696958504943620900,0.164620849609375,-0.561915397644043,-0.3462389409542084,0.23876014351844788
1696958504953640000,0.174639892578125,-0.7919607162475586,0.11969882249832153,-0.20378664135932922
1696958504963660800,0.184660888671875,0.21553611755371094,-0.1878066062927246,0.5031126141548157
1696958504973683000,0.194682861328125,0.28461647033691406,0.4667896032333374,0.4442214071750641
1696958504983706000,0.2047060546875,0.14064502716064453,-0.23746603727340698,-0.10243259370326996
1696958504993729800,0.214729736328125,-1.3144006729125977,0.07359224557876587,0.1271558552980423
1696958505003753200,0.224753173828125,1.1572542190551758,0.11904340982437134,0.5982178449630737
1696958505013768700,0.234768798828125,0.22442054748535156,-0.20239466428756714,0.05085385963320732
1696958505023782400,0.244782470703125,-1.9523138999938965,-0.011203408241271973,-0.09314935654401779
1696958505033795800,0.2547958984375,1.4131278991699219,0.3362525701522827,0.41351333260536194
1696958505043809300,0.264809326171875,0.26015377044677734,0.0021768808364868164,0.3140256404876709
1696958505053823000,0.274822998046875,-0.7074508666992188,-0.22230660915374756,-0.45274490118026733
1696958505063836400,0.28483642578125,0.006215095520019531,-0.06252986192703247,-0.014658305794000626
1696958505073850000,0.29485009765625,-0.2923698425292969,0.22341549396514893,0.2617451548576355
1696958505083863600,0.304863525390625,0.055126190185546875,-0.25076234340667725,-0.2053609937429428
1696958505093877000,0.314876953125,-0.6009912490844727,0.07491296529769897,-0.5328482389450073
1696958505103890700,0.324890625,0.150177001953125,0.06781405210494995,-0.05141090229153633
1696958505113904000,0.334904052734375,0.77783203125,0.16127502918243408,-0.2049117386341095
1696958505123917800,0.344917724609375,-1.4274873733520508,-0.20314443111419678,-0.6269134879112244
1696958505133931300,0.35493115234375,-0.5557022094726562,-0.10658448934555054,0.03080137073993683
1696958505143944700,0.36494482421875,0.8996791839599609,0.19172507524490356,0.16648170351982117
1696958505153958400,0.37495849609375,-0.7760086059570312,-0.17238909006118774,-0.5896973013877869
1696958505163971800,0.384971923828125,-0.13924407958984375,0.11153286695480347,-0.7014554738998413
1696958505173985300,0.3949853515625,0.106597900390625,0.08090311288833618,0.04333866387605667
1696958505183999000,0.4049990234375,0.32697200775146484,-0.11704361438751221,-0.119423508644104
1696958505194012400,0.415012451171875,-1.1959495544433594,0.156802237033844,-0.7484865188598633
1696958505204026000,0.425026123046875,0.7893075942993164,0.019634664058685303,-0.08777052164077759
1696958505214039600,0.43503955078125,-0.0011157989501953125,0.1072535514831543,-0.028487280011177063
1696958505224053000,0.445052978515625,0.6941556930541992,-0.4754306972026825,-0.5128459334373474
1696958505234066700,0.455066650390625,-0.9439992904663086,0.16104483604431152,-0.3471584916114807
1696958505244080000,0.465080078125,1.0183544158935547,-0.034399569034576416,0.36132004857063293
1696958505254093800,0.47509375,1.3636960983276367,-0.09989279508590698,-0.13460206985473633
1696958505264107300,0.485107177734375,-1.5084762573242188,-0.2430793046951294,-0.10943751037120819
1696958505274120700,0.49512060546875,1.4470224380493164,-0.20913416147232056,0.2928304970264435
1696958505284134400,0.505134521484375,0.8999500274658203,-0.05841934680938721,0.16943222284317017
1696958505294147800,0.51514794921875,-0.10403251647949219,-0.2891453504562378,-0.2087128460407257
1696958505304161500,0.52516162109375,0.12350273132324219,-0.2008047103881836,-0.22247837483882904
1696958505314175000,0.535175048828125,0.7776241302490234,0.37221240997314453,0.4648143947124481
1696958505324188400,0.5451884765625,1.555154800415039,-0.3086298108100891,0.16572928428649902
1696958505334202000,0.5552021484375,-1.433645248413086,-0.16853970289230347,-0.3543528616428375
1696958505344215600,0.565215576171875,0.5201873779296875,-0.15914016962051392,0.3800826668739319
1696958505354229200,0.575229248046875,1.3327598571777344,0.2598802447319031,0.25778451561927795
1696958505364242700,0.58524267578125,-0.2479724884033203,-0.4008731544017792,-0.4217844009399414
1696958505374256000,0.595256103515625,-0.47843360900878906,-0.18172556161880493,-0.11802949011325836
1696958505384269800,0.605269775390625,0.9370498657226562,-0.3221212923526764,0.2115599662065506
1696958505394283300,0.615283203125,-0.5474796295166016,-0.5113746523857117,-0.6319606304168701
1696958505404297000,0.625296875,-0.6364345550537109,-0.2882225513458252,-0.9921807646751404
1696958505414310400,0.635310302734375,-0.35684967041015625,-0.4079163372516632,-0.591010332107544
1696958505424323800,0.64532373046875,0.4642677307128906,0.12894487380981445,-0.7459523677825928
1696958505434337500,0.655337646484375,-1.0317354202270508,-0.4763479232788086,-1.2634414434432983
1696958505444351000,0.66535107421875,-1.7122306823730469,-0.13474702835083008,-0.8764593601226807
1696958505454364700,0.67536474609375,0.2576570510864258,-0.3425354063510895,-0.45591604709625244
1696958505464378000,0.685378173828125,-0.8683481216430664,-0.3303717076778412,-0.9242366552352905
1696958505474391600,0.6953916015625,-0.8310031890869141,-0.24736815690994263,-1.107494831085205
1696958505484405200,0.7054052734375,0.13938331604003906,0.0385819673538208,-0.22466465830802917
1696958505494418700,0.715418701171875,-0.32004547119140625,-0.41311874985694885,-0.3680093586444855
1696958505504432400,0.725432373046875,-1.1268749237060547,-0.6152358055114746,-0.7703750729560852
1696958505514445800,0.73544580078125,0.15490150451660156,-0.19657063484191895,-0.4750509262084961
1696958505524459300,0.745459228515625,0.14818191528320312,-0.5166940093040466,-0.29073312878608704
1696958505534473000,0.755472900390625,-0.2079324722290039,-0.8635576367378235,-0.6356362104415894
1696958505544486400,0.765486328125,-0.11492729187011719,-0.4094715416431427,-1.1700469255447388
1696958505554500000,0.7755,-0.3069639205932617,-0.2482374608516693,-0.5763821601867676
1696958505564513500,0.785513427734375,0.689753532409668,-0.3869684040546417,-0.6211378574371338
1696958505574527000,0.79552685546875,-0.7654914855957031,-0.7720283269882202,-0.7712506651878357
1696958505584540700,0.805540771484375,-0.816889762878418,-0.6044613718986511,-0.41249701380729675
1696958505594554000,0.81555419921875,0.8346433639526367,-0.5411612391471863,-0.1921529471874237
1696958505604567800,0.82556787109375,0.1760091781616211,-0.5393711924552917,-0.7380616068840027
1696958505614581200,0.835581298828125,-0.9753961563110352,-0.6478965878486633,-0.8612862825393677
1696958505624595000,0.845594970703125,0.9713897705078125,-0.33493009209632874,-0.28994277119636536
1696958505634608400,0.8556083984375,0.8270950317382812,-0.41949114203453064,-0.07205548882484436
1696958505644622000,0.8656220703125,-0.8629636764526367,-0.8264018297195435,-0.11556932330131531
1696958505654635500,0.875635498046875,0.29288768768310547,-0.4997519254684448,0.009297817945480347
1696958505664649200,0.885649169921875,0.37474822998046875,-0.543298602104187,0.4833005666732788
1696958505674663000,0.895662841796875,1.184657096862793,-0.44284552335739136,-0.11228439211845398
1696958505684676400,0.90567626953125,-0.7036628723144531,-0.3003915846347809,-0.8170969486236572
1696958505694690000,0.91568994140625,-0.13689136505126953,-0.6932990550994873,0.038404107093811035
1696958505704703500,0.925703369140625,1.579545021057129,-0.37658053636550903,-0.33644381165504456
1696958505714717200,0.93571728515625,-1.8247489929199219,-0.5701991319656372,-0.6733350157737732
1696958505724731000,0.94573095703125,-0.5775575637817383,-0.5252054333686829,-0.2904920279979706
1696958505734744300,0.955744384765625,0.997349739074707,-0.3950733244419098,-0.08226332068443298
1696958505744758000,0.965758056640625,-0.5347251892089844,-0.7476023435592651,-0.5548621416091919
1696958505754771500,0.975771484375,-0.3345375061035156,-0.48603519797325134,-0.9106010794639587
1696958505764785200,0.98578515625,0.1710948944091797,-0.6231289505958557,-0.08320418000221252
1696958505774798800,0.995798828125,1.3591089248657227,-0.5442196130752563,0.17095991969108582
1696958505784812300,1.005812255859375,-1.3099842071533203,-0.9386184811592102,-0.09121954441070557
1696958505794826000,1.015825927734375,1.055044174194336,-0.549346387386322,0.2571948170661926
1696958505804839400,1.02583935546875,0.7645530700683594,-0.6279904842376709,0.6698333024978638
1696958505814853000,1.03585302734375,0.6761655807495117,-0.9021582007408142,0.02713039517402649
1696958505824866800,1.04586669921875,-0.16042709350585938,-0.5881949663162231,-0.16812798380851746
1696958505834880300,1.05588037109375,0.6427125930786133,-0.6447466015815735,0.5384230017662048
1696958505844894000,1.06589404296875,0.8500585556030273,-0.920555830001831,0.5923620462417603
1696958505854907400,1.075907470703125,-0.46730709075927734,-0.9723851680755615,0.09950420260429382
1696958505864921000,1.085921142578125,0.2631349563598633,-0.5312308073043823,0.4923897385597229
1696958505874934800,1.095934814453125,0.8920307159423828,-0.49181631207466125,0.5476276874542236
1696958505884948200,1.1059482421875,-0.3690013885498047,-1.1487585306167603,-0.2903100252151489
1696958505894962000,1.1159619140625,-1.1105384826660156,-0.8930935859680176,-0.1794281303882599
1696958505904975400,1.125975341796875,1.1638002395629883,-0.8140954375267029,0.37756243348121643
1696958505914989000,1.135989013671875,0.19913482666015625,-0.5815808773040771,0.03261891007423401
1696958505925002800,1.146002685546875,-0.22045612335205078,-0.8387863636016846,0.006205767393112183
1696958505935016200,1.15601611328125,0.28943920135498047,-0.7977540493011475,0.3084206283092499
1696958505945030000,1.16602978515625,0.47203922271728516,-0.6405329704284668,0.7411158084869385
1696958505955043300,1.176043212890625,0.14966487884521484,-0.8341712355613708,-0.15879252552986145
1696958505965057000,1.18605712890625,-0.8819732666015625,-1.0807074308395386,0.037411123514175415
1696958505975070700,1.19607080078125,0.9158544540405273,-0.4331924617290497,0.6886378526687622
1696958505985084200,1.206084228515625,0.779994010925293,-1.027176856994629,0.34822750091552734
1696958505995097900,1.216097900390625,-1.8248958587646484,-0.6428030729293823,-0.017799317836761475
1696958506005111300,1.226111328125,1.0123376846313477,-0.6670470237731934,0.46366679668426514
1696958506015125000,1.236125,-0.1741943359375,-0.43585848808288574,0.4029543995857239
1696958506025138700,1.246138671875,0.1267404556274414,-0.7858405113220215,0.12092477083206177
1696958506035152100,1.256152099609375,-0.10693836212158203,-0.633668065071106,-0.15344062447547913
1696958506045165800,1.266165771484375,0.3217000961303711,-0.2797100245952606,1.049662709236145
1696958506055179300,1.27617919921875,1.1081266403198242,-0.6872713565826416,0.17677445709705353
1696958506065193000,1.28619287109375,-2.4881582260131836,-0.5166805386543274,-0.2906968593597412
1696958506075206700,1.29620654296875,1.267049789428711,-0.5379416942596436,0.46659496426582336
1696958506085220000,1.30622021484375,-0.40112876892089844,-0.13291782140731812,0.4112548530101776
1696958506095233800,1.31623388671875,-1.0395631790161133,-0.7959911227226257,-0.4121409058570862
1696958506105247200,1.326247314453125,-0.2325420379638672,-0.31845441460609436,-0.012227237224578857
1696958506115261000,1.336260986328125,-0.2591695785522461,-0.1033606231212616,0.3446826934814453
1696958506125274600,1.346274658203125,-0.22369861602783203,-0.5988023281097412,0.06844621896743774
1696958506135288000,1.3562880859375,-1.4388694763183594,-0.0638171136379242,-0.4014378786087036
1696958506145301800,1.3663017578125,0.3500957489013672,-0.4999583959579468,0.5925524830818176
1696958506155315200,1.376315185546875,-0.5699653625488281,-0.23319301009178162,0.3997526168823242
1696958506165329000,1.386328857421875,-0.5181245803833008,-0.5442694425582886,-0.3200111985206604
1696958506175342300,1.39634228515625,-0.06720352172851562,-0.23305946588516235,-0.09001517295837402
1696958506185356000,1.40635595703125,0.16625022888183594,-0.42147842049598694,0.30401289463043213
1696958506195369500,1.416369384765625,0.012979507446289062,-0.5623457431793213,-0.12931591272354126
1696958506205383200,1.426383056640625,-0.8431606292724609,-0.2889881134033203,-0.17243963479995728
1696958506215396600,1.436396728515625,0.6421108245849609,-0.21579840779304504,-0.08650150895118713
1696958506225410000,1.44641015625,-1.1698694229125977,-0.13169807195663452,-0.1200980544090271
1696958506235423700,1.456423828125,-1.304281234741211,-0.2542985677719116,-0.7818092107772827
1696958506245437200,1.466437255859375,-2.9600319862365723,0.43965184688568115,-0.4519118070602417
1696958506255451000,1.476450927734375,-1.6835365295410156,0.9767829179763794,-0.3612496554851532
1696958506265464300,1.48646435546875,-3.493948459625244,0.3464028537273407,-0.24194484949111938
1696958506275477800,1.496477783203125,-2.8850560188293457,0.1885593831539154,0.8671491146087646
1696958506285491500,1.506491455078125,3.1724796295166016,-1.8270459175109863,0.7900900840759277
1696958506295505000,1.5165048828125,2.6660919189453125,-1.8889638185501099,-0.6353606581687927
1696958506305518600,1.5265185546875,2.266421318054199,0.021458089351654053,1.0184781551361084
1696958506315532000,1.536531982421875,-1.127471923828125,-3.9788057804107666,1.5183454751968384
1696958506325545500,1.54654541015625,-2.5142855644226074,1.9076429605484009,-0.5805312991142273
1696958506335559200,1.55655908203125,6.7828874588012695,-0.8213269710540771,-3.8135592937469482
1696958506345572600,1.566572509765625,-5.949572563171387,0.9264901876449585,-1.3137500286102295
1696958506355586300,1.57658642578125,7.008581161499023,0.3379214107990265,0.6218185424804688
1696958506365599700,1.586599853515625,2.7328319549560547,-0.43996357917785645,1.6355483531951904
1696958506375613200,1.59661328125,-4.644388198852539,-1.3734551668167114,0.8993310928344727
1696958506385627000,1.606626953125,4.977063179016113,0.16781198978424072,1.4356237649917603
1696958506395640300,1.616640380859375,-1.818964958190918,1.9962888956069946,0.36049261689186096
1696958506405654000,1.626654052734375,3.2720565795898438,0.5592527389526367,-2.149073600769043
1696958506415667500,1.63666748046875,0.7238016128540039,0.6535460948944092,-1.1446833610534668
1696958506425681000,1.646680908203125,1.9281291961669922,-0.3837204575538635,-0.5707036256790161
1696958506435694600,1.656694580078125,-2.0590133666992188,-1.7015712261199951,1.0105376243591309
1696958506445708000,1.6667080078125,2.338489532470703,-0.9534774422645569,2.1803343296051025
1696958506455721700,1.6767216796875,1.5915765762329102,0.8568464517593384,0.9418538212776184
1696958506465735200,1.686735107421875,-1.098952293395996,0.7851325869560242,-0.7731807827949524
1696958506475748600,1.69674853515625,2.1269989013671875,0.6505008935928345,-1.139163613319397
1696958506485762300,1.70676220703125,-0.4334125518798828,-0.1063239574432373,-0.5550788640975952
1696958506495775700,1.716775634765625,-0.28295040130615234,-0.06691783666610718,-0.2890646457672119
1696958506505789400,1.72678955078125,2.3906631469726562,0.36624690890312195,0.20857782661914825
1696958506515803000,1.736802978515625,-1.5426092147827148,0.16892912983894348,0.178179070353508
1696958506525816300,1.74681640625,0.3097562789916992,0.3049837350845337,0.05948531627655029
1696958506535830000,1.756830078125,1.3896265029907227,1.0716161727905273,-0.10393697023391724
1696958506545843500,1.766843505859375,-1.290308952331543,-0.4537564516067505,-0.2518703043460846
1696958506555857200,1.776857177734375,-0.3727560043334961,-0.3352668881416321,-0.4804759621620178
1696958506565870600,1.78687060546875,0.6822566986083984,-0.24638816714286804,0.11267587542533875
1696958506575884300,1.79688427734375,-0.3215065002441406,-0.16072949767112732,-0.09389546513557434
1696958506585898000,1.80689794921875,0.07132911682128906,-0.15355601906776428,-0.7597514390945435
1696958506595911400,1.816911376953125,-0.7242631912231445,0.8039544820785522,-0.5635533332824707
1696958506605925000,1.826925048828125,0.8665246963500977,0.8594978451728821,-0.23109576106071472
1696958506615938600,1.8369384765625,-0.328857421875,0.001610398292541504,-0.1674729585647583
1696958506625952300,1.8469521484375,-0.39801883697509766,-0.6831101179122925,-0.5365558862686157
1696958506635966000,1.856966064453125,-1.4054479598999023,-0.20260784029960632,0.1559133231639862
1696958506645979400,1.8669794921875,1.1803808212280273,0.2587129473686218,0.14903604984283447
1696958506655993000,1.8769931640625,-1.036067008972168,-0.6448099613189697,-0.894364595413208
1696958506666006500,1.887006591796875,-1.496938705444336,0.0908249020576477,-0.9302140474319458
1696958506676020200,1.897020263671875,0.522552490234375,0.37200069427490234,-0.21327608823776245
1696958506686034000,1.907033935546875,-0.4754371643066406,0.3227428197860718,-0.33087077736854553
1696958506696047400,1.91704736328125,-0.5008440017700195,-0.13010534644126892,-0.9539796113967896
1696958506706061000,1.92706103515625,-0.9645967483520508,-0.12449529767036438,-0.7857260704040527
1696958506716074800,1.93707470703125,0.017884254455566406,-0.21192964911460876,-0.5233902335166931
1696958506726088200,1.947088134765625,0.5761117935180664,-0.8304632902145386,-1.5080410242080688
1696958506736102000,1.957101806640625,-2.033230781555176,-0.28335779905319214,-1.567276954650879
1696958506746115300,1.967115234375,0.8607816696166992,-0.1360119879245758,-0.4217963218688965
1696958506756129000,1.97712890625,1.0954294204711914,0.24746018648147583,-0.5944845080375671
1696958506766142700,1.987142822265625,-1.7408876419067383,-0.3449760377407074,-0.8605418801307678
1696958506776156200,1.99715625,0.29874324798583984,0.3063371777534485,-0.4029664993286133
1696958506786169900,2.007169921875,0.2406301498413086,-0.10270988941192627,0.026385784149169922
1696958506796183300,2.017183349609375,0.43532466888427734,-0.6155579090118408,-1.0079193115234375
1696958506806197000,2.027197021484375,-1.1342449188232422,-0.24022158980369568,-1.2600117921829224
1696958506816210700,2.037210693359375,0.6589546203613281,0.19842135906219482,-0.45506322383880615
1696958506826224000,2.04722412109375,0.933131217956543,0.23018109798431396,-0.06062912940979004
1696958506836237800,2.05723779296875,-1.492915153503418,-0.42576906085014343,-0.36302828788757324
1696958506846251300,2.067251220703125,-0.05939769744873047,0.021621346473693848,0.42432665824890137
1696958506856265000,2.077264892578125,0.08913803100585938,0.10259193181991577,1.43528413772583
1696958506866278700,2.087278564453125,0.7050342559814453,-0.917090892791748,1.1406363248825073
1696958506876292000,2.0972919921875,-1.1229228973388672,-0.983844518661499,-0.01972031593322754
1696958506886305800,2.107305908203125,-1.3634939193725586,-0.7858778238296509,-0.8085537552833557
1696958506896319200,2.1173193359375,-2.151642322540283,-1.141851782798767,-1.9389851093292236
1696958506906333000,2.1273330078125,0.6631574630737305,-0.08542776107788086,-3.3108763694763184
1696958506916346600,2.1373466796875,-4.754811763763428,0.024194538593292236,-3.4633779525756836
1696958506926360000,2.147360107421875,-2.9980239868164062,1.9112294912338257,-0.4509621858596802
1696958506936373800,2.157373779296875,9.583775520324707,-2.1637485027313232,1.31203293800354
1696958506946387200,2.16738720703125,-2.9244918823242188,-1.001511573791504,1.3898844718933105
1696958506956401000,2.17740087890625,0.9841804504394531,0.5473676323890686,2.1043944358825684
1696958506966414600,2.18741455078125,0.38535308837890625,3.9987826347351074,0.9734461307525635
1696958506976428000,2.197427978515625,2.0382909774780273,-1.7047057151794434,-0.9279059767723083
1696958506986441700,2.207441650390625,0.5090703964233398,-1.6258211135864258,-1.6616041660308838
1696958506996455200,2.217455078125,-5.393030166625977,0.301241397857666,-0.07442402839660645
1696958507006468900,2.22746875,3.0339956283569336,1.3216010332107544,1.0201385021209717
1696958507016482600,2.237482666015625,2.8638811111450195,-0.6650501489639282,-0.9482669234275818
1696958507026496000,2.24749609375,-5.123064041137695,-1.089388370513916,-0.350471556186676
1696958507036509700,2.257509765625,1.032231330871582,0.0014629364013671875,0.9114441871643066
1696958507046523100,2.267523193359375,1.1762380599975586,0.7203629612922668,0.2501286268234253
1696958507056536800,2.277536865234375,0.40770816802978516,-0.5970037579536438,-0.7377802729606628
1696958507066550500,2.287550537109375,-2.012807846069336,-0.01324915885925293,0.9494605660438538
1696958507076564000,2.29756396484375,1.5874271392822266,-0.19477784633636475,0.7652997970581055
1696958507086577700,2.30757763671875,-0.9850778579711914,-0.16464000940322876,-0.3158993124961853
1696958507096591000,2.317591064453125,-0.2705097198486328,-0.13016796112060547,-0.5355437994003296
1696958507106604800,2.327604736328125,-0.8132648468017578,-0.3447239100933075,0.636943519115448
1696958507116618500,2.337618408203125,2.033021926879883,-0.013275325298309326,-0.0014715790748596191
1696958507126632000,2.3476318359375,-0.451171875,-0.47009849548339844,-0.010059356689453125
1696958507136645600,2.357645751953125,-1.2941560745239258,-0.2808476984500885,-0.13235348463058472
1696958507146659000,2.3676591796875,-0.735234260559082,-0.6127980947494507,0.6127947568893433
1696958507156672800,2.3776728515625,-0.3649578094482422,-0.4580610394477844,-0.27096378803253174
1696958507166686500,2.3876865234375,-0.3585834503173828,-0.5899099707603455,-0.1788722276687622
1696958507176700000,2.397699951171875,0.1289377212524414,0.032597243785858154,0.06579560041427612
1696958507186713600,2.407713623046875,1.5358390808105469,-0.22893914580345154,0.3499784469604492
1696958507196727000,2.41772705078125,-0.5699224472045898,-0.9556968212127686,-0.23848211765289307
1696958507206740700,2.42774072265625,-1.240274429321289,-0.8503445982933044,0.06778675317764282
1696958507216754400,2.43775439453125,-1.2641000747680664,-0.705044150352478,0.6420485377311707
1696958507226768000,2.447767822265625,1.360560417175293,-0.3513374924659729,0.08104473352432251
1696958507236781600,2.457781494140625,-1.0592679977416992,-0.6703088879585266,-0.28320062160491943
1696958507246795000,2.467794921875,0.4905509948730469,-0.2868470251560211,0.10690605640411377
1696958507256808700,2.47780859375,1.1041650772094727,-0.0047408342361450195,0.2514304518699646
1696958507266822400,2.487822509765625,0.23601818084716797,-0.7528725862503052,-0.445370078086853
1696958507276835800,2.4978359375,-1.3109188079833984,-1.0129187107086182,-0.24000632762908936
1696958507286849500,2.507849609375,-0.13218212127685547,-0.9400136470794678,0.649478018283844
1696958507296863000,2.517863037109375,1.7104177474975586,-0.3843131959438324,0.654103696346283
1696958507306876700,2.527876708984375,-0.04756450653076172,-0.5369588732719421,-0.1357661485671997
1696958507316890400,2.537890380859375,0.07182979583740234,-0.30196353793144226,0.12013989686965942
1696958507326903800,2.54790380859375,0.8398227691650391,-0.3063022196292877,0.5775094628334045
1696958507336917500,2.55791748046875,1.2327775955200195,-0.3446888327598572,-0.4769124388694763
1696958507346931000,2.567930908203125,-0.895442008972168,-0.6184263229370117,-0.7617926001548767
1696958507356944600,2.577944580078125,0.3721761703491211,-0.5570657253265381,0.45688533782958984
1696958507366958300,2.587958251953125,1.9219341278076172,-0.5581527948379517,0.5760337114334106
1696958507376971800,2.5979716796875,-0.9106369018554688,-0.7343074083328247,-0.10448563098907471
1696958507386985500,2.6079853515625,0.06148815155029297,-0.29758569598197937,0.24562174081802368
1696958507396999000,2.6179990234375,0.4193296432495117,-0.39421892166137695,0.3689124584197998
1696958507407012600,2.6280126953125,1.033339500427246,-0.1734893023967743,0.23373699188232422
1696958507417026300,2.6380263671875,0.6096973419189453,-0.7065374255180359,-0.3482511639595032
1696958507427039700,2.648039794921875,-1.2493057250976562,-0.26586100459098816,0.4226006865501404
1696958507437053400,2.658053466796875,2.020193099975586,-0.6613730788230896,0.33905088901519775
1696958507447067000,2.66806689453125,-0.9843721389770508,-0.48733851313591003,0.05674564838409424
1696958507457080600,2.67808056640625,0.05977916717529297,-0.48005345463752747,-0.2967320680618286
1696958507467094300,2.68809423828125,-1.2907657623291016,-0.39181017875671387,0.36920714378356934
1696958507477107700,2.698107666015625,1.4344816207885742,-0.244744211435318,0.5111945867538452
1696958507487121400,2.708121337890625,-0.030485153198242188,-0.9859672784805298,-0.28990161418914795
1696958507497134800,2.718134765625,-1.858816146850586,-0.11731207370758057,0.07825171947479248
1696958507507148500,2.7281484375,2.148402214050293,-0.5677889585494995,0.64615797996521
1696958507517162200,2.738162353515625,-2.880523681640625,-0.607818603515625,0.14905625581741333
1696958507527175700,2.74817578125,1.6506175994873047,-0.67486572265625,-0.790287435054779
1696958507537189400,2.758189453125,-2.2502388954162598,-0.08261346817016602,0.4832734167575836
1696958507547202800,2.768202880859375,2.073152542114258,-0.6373277902603149,0.5810650587081909
1696958507557216500,2.778216552734375,-1.532700538635254,-0.5943256616592407,-0.006797850131988525
1696958507567230200,2.788230224609375,0.5589132308959961,-0.7281599044799805,-0.6055399179458618
1696958507577243600,2.79824365234375,-1.151566505432129,0.14630305767059326,0.7720058560371399
1696958507587257300,2.80825732421875,1.8553667068481445,-0.7720139026641846,0.011722385883331299
1696958507597270800,2.818270751953125,-1.8928642272949219,-0.7490030527114868,-0.01997530460357666
1696958507607284500,2.828284423828125,0.7488069534301758,-0.4124903082847595,-0.49152541160583496
1696958507617298200,2.838298095703125,-0.050189971923828125,-0.2138674557209015,0.7187119722366333
1696958507627311600,2.8483115234375,1.1577415466308594,-0.0899420976638794,0.013022661209106445
1696958507637325300,2.8583251953125,-0.2534637451171875,-0.6564829349517822,-0.09198057651519775
1696958507647338800,2.8683388671875,-0.9259967803955078,0.045734286308288574,0.20255225896835327
1696958507657352400,2.8783525390625,2.458385467529297,-0.3412603735923767,0.4042511582374573
1696958507667366100,2.8883662109375,-2.2905282974243164,-0.4149068593978882,-0.15336400270462036
1696958507677379600,2.898379638671875,1.1219024658203125,-0.5670696496963501,0.06263220310211182
1696958507687393300,2.908393310546875,-0.867548942565918,-0.017131805419921875,0.7423180937767029
1696958507697406700,2.91840673828125,1.5184478759765625,-0.3374190032482147,0.02243107557296753
1696958507707420400,2.92842041015625,-1.1452703475952148,-0.3056752383708954,-0.4171409606933594
1696958507717434000,2.93843408203125,0.4485807418823242,0.0383419394493103,0.21890443563461304
1696958507727447600,2.948447509765625,0.8968143463134766,-0.2312958538532257,0.44496357440948486
1696958507737461200,2.958461181640625,1.0947399139404297,-0.142655611038208,-0.1827768087387085
1696958507747474700,2.968474609375,-0.7845678329467773,-0.5275495052337646,-0.13555651903152466
1696958507757488400,2.97848828125,0.010829925537109375,-0.1696031093597412,0.4569658637046814
1696958507767502000,2.988502197265625,1.1147356033325195,-0.1434372067451477,0.6621993184089661
1696958507777515500,2.998515625,0.5337800979614258,-0.21924850344657898,-0.1294105052947998
1696958507787529200,3.008529296875,-0.7325506210327148,-0.07357794046401978,-0.07346802949905396
1696958507797542700,3.018542724609375,0.5499296188354492,0.07122910022735596,0.5347827672958374
1696958507807556400,3.028556396484375,1.7333860397338867,0.015496671199798584,-0.003459036350250244
1696958507817570000,3.038570068359375,-1.127030372619629,-0.2598346769809723,-0.616680920124054
1696958507827583500,3.04858349609375,-0.13925457000732422,-0.09144330024719238,0.21689271926879883
1696958507837597200,3.05859716796875,0.19630813598632812,-0.32437822222709656,0.7010445594787598
1696958507847610600,3.068610595703125,-0.08525753021240234,-0.23793956637382507,-0.2986353635787964
1696958507857624300,3.078624267578125,-0.6096086502075195,-0.2885097563266754,-0.42181944847106934
1696958507867638000,3.088637939453125,-0.31588172912597656,-0.03584432601928711,-0.1534406542778015
1696958507877651500,3.0986513671875,0.5357952117919922,-0.009420335292816162,0.05858254432678223
1696958507887665200,3.1086650390625,1.0886478424072266,-0.7279872894287109,-0.40306609869003296
1696958507897678600,3.1186787109375,-1.5981807708740234,-0.061411142349243164,0.12496989965438843
1696958507907692300,3.1286923828125,2.237232208251953,-0.3325228989124298,0.5170567631721497
1696958507917706000,3.1387060546875,-1.0162105560302734,-0.12902969121932983,0.841528058052063
1696958507927719400,3.148719482421875,2.210726737976074,-0.5121530294418335,-0.057713866233825684
1696958507937733000,3.158733154296875,-1.4674415588378906,-0.1142498254776001,0.5702112317085266
1696958507947746600,3.16874658203125,1.6031322479248047,-0.1566307544708252,0.7255896925926208
1696958507957760300,3.17876025390625,1.857905387878418,-0.4943881630897522,0.1239287257194519
1696958507967774000,3.18877392578125,-1.8822383880615234,-0.1690649390220642,-0.17892205715179443
1696958507977787400,3.198787353515625,1.5871200561523438,-0.2612795829772949,0.6579602956771851
1696958507987801000,3.208801025390625,-2.910935878753662,-0.09356057643890381,1.082699179649353
1696958507997814500,3.218814453125,2.4718732833862305,-0.7295516729354858,-0.10058480501174927
1696958508007828200,3.228828125,-3.179582118988037,0.27068454027175903,-0.131736159324646
1696958508017842000,3.238842041015625,0.5170707702636719,-0.23424267768859863,0.2727566361427307
1696958508027855400,3.24885546875,-0.9157514572143555,0.16982340812683105,0.3454579710960388
1696958508037869000,3.258869140625,-0.11514949798583984,-0.4369339644908905,-0.6945618987083435
1696958508047882500,3.268882568359375,-1.7664012908935547,0.04686921834945679,0.04876983165740967
1696958508057896200,3.278896240234375,-0.29012012481689453,-0.1201511025428772,0.6286613941192627
1696958508067910000,3.288909912109375,-0.6416997909545898,-0.7806700468063354,0.7985977530479431
1696958508077923300,3.29892333984375,-1.050246238708496,0.0041779279708862305,-0.09038352966308594
1696958508087937000,3.30893701171875,-0.38738536834716797,0.02382725477218628,0.2602792978286743
1696958508097950500,3.318950439453125,-0.48638153076171875,0.08936017751693726,0.5604610443115234
1696958508107964200,3.328964111328125,1.7510013580322266,-0.8723809123039246,0.01512289047241211
1696958508117977900,3.338977783203125,-1.3105192184448242,-0.19666528701782227,-0.7989383935928345
1696958508127991300,3.3489912109375,-0.17003917694091797,-0.5106300115585327,0.10822939872741699
1696958508138005000,3.3590048828125,1.507613182067871,-0.26944875717163086,0.220889151096344
1696958508148018400,3.369018310546875,-1.0187797546386719,-1.466156244277954,0.42842960357666016
1696958508158032100,3.3790322265625,0.5559482574462891,-0.38402804732322693,0.05963391065597534
1696958508168045800,3.3890458984375,0.010224342346191406,-0.06823235750198364,0.34119224548339844
1696958508178059300,3.399059326171875,2.0832948684692383,0.0930665135383606,0.29635804891586304
1696958508188073000,3.409072998046875,0.09570884704589844,-0.8090403079986572,-0.11320847272872925
1696958508198086400,3.41908642578125,-0.8981781005859375,-0.4069967567920685,0.1283443570137024
1696958508208100000,3.42910009765625,2.668889045715332,0.14696252346038818,0.2045069932937622
1696958508218113800,3.43911376953125,0.020025253295898438,-0.2524532079696655,0.09315180778503418
1696958508228127200,3.449127197265625,0.19260311126708984,-0.19037294387817383,-0.2633988857269287
1696958508238141000,3.459140869140625,-1.651352882385254,-0.7941825985908508,0.9292383193969727
1696958508248154400,3.469154296875,1.16778564453125,-0.2081783413887024,0.2810073494911194
1696958508258168000,3.47916796875,0.5159416198730469,-0.5281982421875,-0.6812326312065125
1696958508268181800,3.489181640625,-1.701991081237793,0.40731722116470337,0.0923580527305603
1696958508278195200,3.4991953125,1.7049741744995117,-0.5217885971069336,0.45767319202423096
1696958508288209000,3.509208984375,-0.061562538146972656,-0.20515179634094238,-0.5442098379135132
1696958508298222300,3.519222412109375,-0.11338043212890625,-0.2645454406738281,-0.697536826133728
1696958508308236000,3.529236083984375,-1.0347251892089844,-0.03287148475646973,0.282970666885376
1696958508318249700,3.539249755859375,0.9323110580444336,-0.5414000749588013,0.5586175918579102
1696958508328263200,3.54926318359375,-0.3069190979003906,-0.6582425832748413,0.1497436761856079
1696958508338276900,3.55927685546875,-0.8167142868041992,0.03297889232635498,-0.04567807912826538
1696958508348290300,3.569290283203125,0.24645137786865234,0.5045155882835388,0.42321836948394775
1696958508358304000,3.579303955078125,0.5378580093383789,0.02761101722717285,0.42619580030441284
1696958508368317700,3.589317626953125,-0.17959308624267578,-0.6334965229034424,-0.5350408554077148
1696958508378331100,3.5993310546875,-1.4160776138305664,0.23082315921783447,-0.2656230926513672
1696958508388344800,3.6093447265625,0.6805191040039062,-0.07002055644989014,0.5908936262130737
1696958508398358300,3.619358154296875,-0.9975223541259766,-0.44500279426574707,0.28845691680908203
1696958508408372000,3.6293720703125,-0.1871490478515625,-0.10772347450256348,-0.354492723941803
1696958508418385700,3.6393857421875,-1.237412452697754,0.05804133415222168,0.30067533254623413
1696958508428399000,3.649399169921875,0.48111915588378906,-0.005458712577819824,0.5026199221611023
1696958508438412800,3.659412841796875,0.7335948944091797,-0.25910842418670654,0.004969596862792969
1696958508448426200,3.66942626953125,-1.2367687225341797,-0.1763080358505249,-0.05673873424530029
1696958508458440000,3.67943994140625,0.6060142517089844,0.19537854194641113,0.5904388427734375
1696958508468453600,3.68945361328125,0.6907567977905273,-0.09564602375030518,0.9376919865608215
1696958508478467000,3.699467041015625,-0.6104841232299805,-0.6376742124557495,0.5332865715026855
1696958508488480800,3.709480712890625,-0.025714874267578125,0.10276389122009277,0.3598492741584778
1696958508498494200,3.719494140625,-0.07329273223876953,0.17147326469421387,0.9349524974822998
1696958508508508000,3.7295078125,1.2697439193725586,-0.3452455997467041,0.5626341104507446
1696958508518521600,3.739521484375,-0.5726585388183594,-0.24834537506103516,0.022344112396240234
1696958508528535000,3.74953515625,-0.30391979217529297,0.0160752534866333,0.611102819442749
1696958508538548700,3.759548828125,1.2262706756591797,-0.15359342098236084,1.0223520994186401
1696958508548562200,3.769562255859375,-0.12426471710205078,-0.5318164825439453,0.30835914611816406
1696958508558575900,3.779575927734375,-0.6016311645507812,-0.0829927921295166,0.19179952144622803
1696958508568589600,3.789589599609375,0.6468076705932617,-0.1825944185256958,1.029489517211914
1696958508578603000,3.79960302734375,0.7649927139282227,0.20247876644134521,0.728371262550354
1696958508588616700,3.80961669921875,0.3904237747192383,-0.5585731267929077,0.06817662715911865
1696958508598630100,3.819630126953125,-0.9915399551391602,0.04764974117279053,0.8722186088562012
1696958508608643800,3.829643798828125,2.1840744018554688,-0.14225375652313232,0.8557813763618469
1696958508618657500,3.839657470703125,-0.7166671752929688,-0.30838072299957275,0.4028128385543823
1696958508628671000,3.8496708984375,0.05932044982910156,-0.521343469619751,0.2029891014099121
1696958508638684700,3.8596845703125,-0.5522022247314453,0.017412424087524414,1.4255201816558838
1696958508648698000,3.869697998046875,1.619156837463379,-0.024675846099853516,0.727738618850708
1696958508658711800,3.8797119140625,-1.581028938293457,-0.7976949214935303,0.2390640377998352
1696958508668725500,3.8897255859375,0.7454214096069336,0.023602724075317383,0.09324103593826294
1696958508678739000,3.899739013671875,-0.17309284210205078,-0.009488344192504883,0.8057907223701477
1696958508688752600,3.909752685546875,0.5443973541259766,-0.24095678329467773,0.16577982902526855
1696958508698766000,3.91976611328125,-0.5023870468139648,-0.5892796516418457,-0.23784726858139038
1696958508708779800,3.92977978515625,-1.265974998474121,-0.16056859493255615,0.5641573667526245
1696958508718793500,3.93979345703125,1.108323097229004,-0.38642823696136475,0.6428959965705872
1696958508728807000,3.949806884765625,-1.0062646865844727,-0.3768923282623291,-0.2579612731933594
1696958508738820600,3.959820556640625,-0.9889955520629883,-0.3392223119735718,-0.2979254722595215
1696958508748834000,3.969833984375,-0.5899858474731445,-0.21857857704162598,0.5519534945487976
1696958508758847700,3.97984765625,1.4575319290161133,-0.28227317333221436,0.16001689434051514
1696958508768861400,3.989861328125,-1.312520980834961,-0.729499340057373,-0.6313835978507996
1696958508778875000,3.999875,-0.19579315185546875,-0.22156298160552979,-0.16288965940475464
1696958508788888600,4.009888671875,0.44071006774902344,-0.24385356903076172,0.4542121887207031
1696958508798902000,4.019902099609375,0.4111795425415039,-0.5311059951782227,-0.09961986541748047
1696958508808915700,4.029915771484375,-1.0659904479980469,-0.492336630821228,-0.1814296841621399
1696958508818929400,4.039929443359375,-0.22258377075195312,-0.36222243309020996,0.5980110764503479
1696958508828942800,4.04994287109375,1.3701171875,0.17373764514923096,0.39365798234939575
1696958508838956500,4.05995654296875,0.2200336456298828,-0.39369022846221924,-0.410706102848053
1696958508848970000,4.069969970703125,-0.277252197265625,-0.1102745532989502,-0.001164078712463379
1696958508858983700,4.079983642578125,1.3962640762329102,-0.24643945693969727,0.9484565258026123
1696958508868997400,4.089997314453125,0.060196876525878906,-0.44760918617248535,0.5365133285522461
1696958508879010800,4.1000107421875,-0.6946563720703125,-0.1875513792037964,0.22380220890045166
1696958508889024500,4.1100244140625,-0.5015573501586914,0.02394723892211914,1.0277574062347412
1696958508899038000,4.120037841796875,1.1107244491577148,0.010927081108093262,0.9217274785041809
1696958508909051600,4.1300517578125,-0.09561347961425781,-0.32930195331573486,-0.0684848427772522
1696958508919065300,4.1400654296875,-1.3090543746948242,-0.06463420391082764,0.048028647899627686
1696958508929078800,4.150078857421875,0.40997982025146484,0.10940027236938477,1.0438084602355957
1696958508939092500,4.160092529296875,0.4428825378417969,-0.10576200485229492,0.6295717358589172
1696958508949106000,4.17010595703125,-1.5888919830322266,-0.12460994720458984,0.06696820259094238
1696958508959119600,4.18011962890625,-0.37164878845214844,-0.17729151248931885,1.1958304643630981
1696958508969133300,4.19013330078125,0.9820871353149414,-0.013873577117919922,1.119354486465454
1696958508979146800,4.200146728515625,-1.1804008483886719,-0.5042643547058105,0.3195900321006775
1696958508989160400,4.210160400390625,-0.09299659729003906,0.2554715871810913,0.5314351916313171
1696958508999174000,4.220173828125,1.0015010833740234,0.1041492223739624,1.34169602394104
1696958509009187600,4.2301875,0.0860748291015625,-0.34722399711608887,1.0275931358337402
1696958509019201300,4.240201171875,0.004546165466308594,-0.3342247009277344,0.7958963513374329
1696958509029214700,4.250214599609375,-0.28261470794677734,0.10041344165802002,1.5748891830444336
1696958509039228400,4.260228515625,1.471907615661621,-0.17800641059875488,1.764253854751587
1696958509049241900,4.270241943359375,-0.09422111511230469,-0.19541716575622559,0.8738538026809692
1696958509059255600,4.280255615234375,-0.45271873474121094,0.05790424346923828,1.1387953758239746
1696958509069269200,4.290269287109375,1.2019376754760742,0.15713369846343994,1.817639708518982
1696958509079282700,4.30028271484375,0.3820152282714844,-0.4577207565307617,1.3347296714782715
1696958509089296400,4.31029638671875,-1.2913455963134766,-0.2204958200454712,0.8616056442260742
1696958509099309800,4.320309814453125,0.26468849182128906,-0.02792346477508545,1.6058170795440674
1696958509109323500,4.330323486328125,1.287221908569336,-0.055211782455444336,1.3880994319915771
1696958509119337200,4.340337158203125,-1.597503662109375,-0.5073926448822021,0.6034605503082275
1696958509129350700,4.3503505859375,-0.12667274475097656,-0.11405813694000244,1.0993281602859497
1696958509139364400,4.3603642578125,0.5382184982299805,0.026425600051879883,1.238781213760376
1696958509149377800,4.370377685546875,-0.3472471237182617,-0.334423303604126,1.0830678939819336
1696958509159391500,4.3803916015625,-0.31740760803222656,0.006804823875427246,0.5620644092559814
1696958509169405200,4.3904052734375,-0.1973400115966797,-0.28108108043670654,1.3534436225891113
1696958509179418600,4.400418701171875,1.4522342681884766,-0.11627626419067383,1.115243673324585
1696958509189432300,4.410432373046875,-1.8437080383300781,-0.70930016040802,0.7643837928771973
1696958509199445800,4.42044580078125,-0.004245758056640625,-0.1151430606842041,1.235464334487915
1696958509209459500,4.43045947265625,1.3010444641113281,0.23385918140411377,1.2711379528045654
1696958509219473200,4.44047314453125,-0.9815549850463867,-0.5828750133514404,0.9202293753623962
1696958509229486600,4.450486572265625,0.04856109619140625,0.20043134689331055,0.7451281547546387
1696958509239500300,4.460500244140625,0.5170993804931641,-0.19100236892700195,1.4290952682495117
1696958509249513700,4.470513671875,-0.3106069564819336,0.06479239463806152,1.2108008861541748
1696958509259527400,4.48052734375,0.4409599304199219,-0.602527379989624,0.5411701798439026
1696958509269541000,4.490541015625,-1.5001764297485352,-0.012218594551086426,1.1094374656677246
1696958509279554600,4.500554443359375,1.4188079833984375,-0.1695460081100464,1.4094361066818237
1696958509289568300,4.510568359375,-0.6483612060546875,-0.6386231184005737,0.5487748980522156
1696958509299581700,4.520581787109375,-1.3063850402832031,-0.16443216800689697,0.8353123664855957
1696958509309595400,4.530595458984375,1.1296892166137695,-0.2903010845184326,1.2453052997589111
1696958509319609000,4.540609130859375,-0.5979213714599609,-0.1017765998840332,0.8458278179168701
1696958509329622500,4.55062255859375,0.12539100646972656,-0.5286065340042114,0.2603040933609009
1696958509339636200,4.56063623046875,-1.3657875061035156,-0.11968684196472168,0.895857572555542
1696958509349649700,4.570649658203125,1.6434659957885742,-0.12373745441436768,1.1549203395843506
1696958509359663400,4.580663330078125,-0.9261856079101562,-0.3931002616882324,0.5678083896636963
1696958509369677000,4.590677001953125,-0.8144111633300781,-0.02280294895172119,0.5754293203353882
1696958509379690500,4.6006904296875,1.7400007247924805,0.021229267120361328,1.1175706386566162
1696958509389704200,4.6107041015625,-0.591644287109375,-0.043964266777038574,0.9610378742218018
1696958509399717600,4.620717529296875,-0.37976741790771484,-0.4661632776260376,0.4933220148086548
1696958509409731300,4.6307314453125,-0.27373409271240234,-0.29497480392456055,1.2988029718399048
1696958509419745000,4.6407451171875,1.0460891723632812,-0.05758190155029297,1.178126573562622
1696958509429758500,4.650758544921875,-0.8438339233398438,-0.19513118267059326,0.4900135397911072
1696958509439772200,4.660772216796875,-0.22558116912841797,-0.1369771957397461,1.0132734775543213
1696958509449785600,4.67078564453125,1.2185678482055664,0.06571173667907715,1.5735191106796265
1696958509459799300,4.68079931640625,-0.06981468200683594,-0.44814014434814453,0.9323546290397644
1696958509469813000,4.69081298828125,-1.0348129272460938,0.11945700645446777,0.75605309009552
1696958509479826400,4.700826416015625,1.323714256286621,0.04272174835205078,1.4595611095428467
1696958509489840000,4.710840087890625,0.15483570098876953,-0.0665673017501831,1.0974318981170654
1696958509499853600,4.720853515625,-1.1166877746582031,-0.13442564010620117,0.8877904415130615
1696958509509867300,4.7308671875,0.6303920745849609,-0.2151573896408081,1.3487718105316162
1696958509519881000,4.740880859375,0.37603092193603516,-0.06546139717102051,1.312549352645874
1696958509529894400,4.750894287109375,-1.0920372009277344,-0.18999850749969482,0.8305764198303223
1696958509539908000,4.760908203125,0.21543121337890625,-0.09913313388824463,1.2782716751098633
1696958509549921500,4.770921630859375,0.6499691009521484,0.14797961711883545,1.5041158199310303
1696958509559935200,4.780935302734375,-0.5461206436157227,-0.274702787399292,1.0619500875473022
1696958509569949000,4.790948974609375,-1.481614112854004,-0.09135770797729492,1.12996244430542
1696958509579962400,4.80096240234375,1.8675003051757812,0.008983492851257324,1.6978651285171509
1696958509589976000,4.81097607421875,-0.8130884170532227,-0.1750044822692871,1.0821692943572998
1696958509599989500,4.820989501953125,-0.4958152770996094,-0.1440800428390503,0.8847464323043823
1696958509610003200,4.831003173828125,0.2367086410522461,-0.23507750034332275,1.4041061401367188
1696958509620017000,4.841016845703125,0.3365030288696289,-0.057398319244384766,1.1438966989517212
1696958509630030300,4.8510302734375,-1.2603883743286133,-0.17752289772033691,0.8836478590965271
1696958509640044000,4.8610439453125,0.2191934585571289,-0.22229266166687012,0.9828903079032898
1696958509650057500,4.871057373046875,0.830540657043457,-0.09865331649780273,1.2346057891845703
1696958509660071200,4.8810712890625,-0.3997478485107422,-0.23663532733917236,0.48668959736824036
1696958509670084900,4.8910849609375,-0.699894905090332,-0.6174517869949341,0.7254005670547485
1696958509680098300,4.901098388671875,1.0317506790161133,0.06343293190002441,0.7999516725540161
1696958509690112000,4.911112060546875,-0.08878803253173828,-0.14945101737976074,0.44467610120773315
1696958509700125400,4.92112548828125,-1.465275764465332,-0.2950655221939087,0.6660201549530029
1696958509710139100,4.93113916015625,2.1179046630859375,-0.26999104022979736,0.9346510171890259
1696958509720152800,4.94115283203125,-0.830841064453125,-0.3017662763595581,0.44321131706237793
1696958509730166300,4.951166259765625,-0.9104080200195312,-0.15494203567504883,0.46450668573379517
1696958509740180000,4.961179931640625,0.9845476150512695,-0.1080782413482666,0.9804055690765381
1696958509750193400,4.971193359375,0.4469165802001953,-0.08515620231628418,0.6558815240859985
1696958509760207000,4.98120703125,-1.5086259841918945,-0.2628931999206543,0.47827041149139404
1696958509770220800,4.991220703125,1.0181541442871094,-0.2264310121536255,0.9120061993598938
1696958509780234200,5.001234130859375,0.7150297164916992,-0.13419508934020996,0.9481593370437622
1696958509790248000,5.011248046875,-1.5950546264648438,-0.28623533248901367,0.35365527868270874
1696958509800261400,5.021261474609375,0.4685382843017578,-0.23651015758514404,0.9935373067855835
1696958509810275000,5.031275146484375,0.8833990097045898,-0.01819932460784912,1.1917245388031006
1696958509820288800,5.041288818359375,-1.3696002960205078,-0.357928991317749,0.5161503553390503
1696958509830302200,5.05130224609375,0.1484375,0.01364123821258545,0.7015584111213684
1696958509840316000,5.06131591796875,0.6023740768432617,-0.10796022415161133,0.8346636295318604
1696958509850329300,5.071329345703125,-1.2009525299072266,-0.2125546932220459,0.7534257173538208
1696958509860343000,5.081343017578125,0.1828899383544922,-0.26200127601623535,0.35103872418403625
1696958509870356700,5.091356689453125,-0.7924327850341797,-0.24337685108184814,0.8591398000717163
1696958509880370200,5.1013701171875,0.49455738067626953,-0.048813581466674805,1.1581343412399292
1696958509890384000,5.1113837890625,-0.9783782958984375,-0.1506209373474121,0.7115980386734009
1696958509900397300,5.121397216796875,0.4474668502807617,0.03596019744873047,1.193084478378296
1696958509910411000,5.131410888671875,0.44659996032714844,-0.3870680332183838,1.3705580234527588
1696958509920424700,5.1414248046875,-1.7293071746826172,-0.22130417823791504,0.9686414003372192
1696958509930438100,5.151438232421875,0.8984289169311523,-0.20428240299224854,1.3011910915374756
1696958509940451800,5.161451904296875,0.4517841339111328,-0.13754510879516602,1.3447022438049316
1696958509950465300,5.17146533203125,-1.2793302536010742,-0.11803710460662842,0.7968509793281555
1696958509960479000,5.18147900390625,0.2718019485473633,-0.2620764970779419,0.9720604419708252
1696958509970492700,5.19149267578125,0.6345767974853516,-0.22030627727508545,1.1469759941101074
1696958509980506000,5.201506103515625,-0.5380725860595703,-0.4141765832901001,0.7802078723907471
1696958509990519800,5.211519775390625,-1.2010974884033203,-0.2742729187011719,1.0251567363739014
1696958510000533200,5.221533203125,1.5685482025146484,-0.017064213752746582,1.3383221626281738
1696958510010547000,5.231546875,-0.1554861068725586,-0.10098898410797119,0.8996666073799133
1696958510020560600,5.241560546875,-1.0587425231933594,-0.15975487232208252,0.5618543028831482
1696958510030574000,5.251573974609375,1.2901630401611328,-0.18634438514709473,1.1908771991729736
1696958510040587800,5.261587890625,0.43629932403564453,-0.33942198753356934,1.0859487056732178
1696958510050601500,5.2716015625,-1.0511484146118164,-0.23281168937683105,0.6430819034576416
1696958510060615000,5.281614990234375,0.6858406066894531,-0.09058880805969238,1.017914891242981
1696958510070628600,5.291628662109375,0.9853267669677734,-0.06767833232879639,1.1915233135223389
1696958510080642000,5.30164208984375,-0.6182947158813477,-0.3435323238372803,0.56546550989151
1696958510090655700,5.31165576171875,-0.5548725128173828,-0.44600021839141846,0.6922081708908081
1696958510100669400,5.32166943359375,1.5442390441894531,-0.1949620246887207,1.1899101734161377
1696958510110683000,5.331682861328125,0.36978816986083984,-0.40233683586120605,0.5457183122634888
1696958510120696600,5.341696533203125,-1.1751794815063477,-0.23173534870147705,0.6542968153953552
1696958510130710000,5.3517099609375,1.718949317932129,-0.3163738250732422,1.0638175010681152
1696958510140723700,5.3617236328125,0.19024944305419922,-0.1978311538696289,0.880533754825592
1696958510150737400,5.3717373046875,-0.6561613082885742,-0.059014081954956055,0.7607465386390686
1696958510160750800,5.381750732421875,0.3775014877319336,-0.4299814701080322,1.058639645576477
1696958510170764500,5.3917646484375,1.0982322692871094,0.09093296527862549,1.3017239570617676
1696958510180778000,5.401778076171875,-0.5578508377075195,-0.3792438507080078,0.667487621307373
1696958510190791700,5.411791748046875,-0.9199800491333008,-0.19930195808410645,1.2037296295166016
1696958510200805400,5.421805419921875,2.5423364639282227,0.12148630619049072,1.4795749187469482
1696958510210818800,5.43181884765625,-2.017951011657715,-0.39873504638671875,1.049790620803833
1696958510220832500,5.44183251953125,0.4572286605834961,0.03820967674255371,0.8454768657684326
1696958510230846000,5.451845947265625,1.0348529815673828,-0.257366418838501,1.5041203498840332
1696958510240859600,5.461859619140625,-0.8363676071166992,-0.08873569965362549,0.8612221479415894
1696958510250873300,5.471873291015625,-0.819981575012207,-0.30252981185913086,0.7330653667449951
1696958510260886800,5.48188671875,0.35775089263916016,-0.202034592628479,1.2035644054412842
1696958510270900500,5.491900390625,-0.6036453247070312,-0.19270551204681396,0.999313235282898
1696958510280914200,5.5019140625,-1.1756830215454102,-0.37299036979675293,0.5296412706375122
1696958510290927600,5.511927734375,0.3659992218017578,0.053498268127441406,1.1902971267700195
1696958510300941300,5.52194140625,0.4034128189086914,-0.06257915496826172,1.132678747177124
1696958510310955000,5.531955078125,-2.1972899436950684,-0.12058746814727783,0.9328343272209167
1696958510320968700,5.54196875,1.9559507369995117,-0.18849313259124756,1.327561616897583
1696958510330982400,5.551982421875,-0.6528215408325195,-0.03156006336212158,1.5176366567611694
1696958510340995800,5.561995849609375,-1.3684864044189453,-0.04691362380981445,1.327216625213623
1696958510351009500,5.572009521484375,2.200160026550293,-0.10864949226379395,1.4156278371810913
1696958510361023200,5.582023193359375,-0.734466552734375,-0.006730318069458008,1.3248306512832642
1696958510371037000,5.592036865234375,-0.9383525848388672,-0.17598915100097656,0.8815085887908936
1696958510381050600,5.602050537109375,1.1429243087768555,0.011119723320007324,1.012871503829956
1696958510391064000,5.61206396484375,-0.4797811508178711,-0.2107679843902588,1.2963874340057373
1696958510401077800,5.622077880859375,-0.9375019073486328,0.1309119462966919,1.1197932958602905
1696958510411091500,5.632091552734375,1.7602014541625977,-0.4177626371383667,0.7701186537742615
1696958510421105200,5.642105224609375,-1.7993965148925781,0.30588972568511963,1.1228028535842896
1696958510431118800,5.652118896484375,0.68963623046875,-0.37776410579681396,0.8851643800735474
1696958510441132300,5.66213232421875,-0.01409149169921875,-0.15097594261169434,0.704710841178894
1696958510451146000,5.67214599609375,-0.7215147018432617,0.05537235736846924,0.8320233225822449
1696958510461159700,5.68215966796875,-0.35178470611572266,-0.4170806407928467,0.846083402633667
1696958510471173400,5.69217333984375,0.6526966094970703,-0.210540771484375,0.6582919359207153
1696958510481187000,5.70218701171875,0.0969552993774414,0.22201812267303467,0.786553680896759
1696958510491200500,5.712200439453125,-0.6060209274291992,-0.2550007104873657,1.0785492658615112
1696958510501214200,5.722214111328125,2.506671905517578,-0.3353997468948364,0.8456003069877625
1696958510511228000,5.732227783203125,-1.890944480895996,0.3766244649887085,1.2191121578216553
1696958510521241600,5.74224169921875,1.2816095352172852,-0.6171894073486328,1.1240116357803345
1696958510531255300,5.75225537109375,1.3603944778442383,0.39654815196990967,1.023617148399353
1696958510541268700,5.762268798828125,-1.008559226989746,0.012276649475097656,0.9315419793128967
1696958510551282400,5.772282470703125,0.7429313659667969,-0.28174519538879395,0.8928250074386597
1696958510561296100,5.782296142578125,1.1621389389038086,0.26447832584381104,0.7340993881225586
1696958510571309600,5.7923095703125,-2.219299793243408,-0.48370516300201416,0.8165738582611084
1696958510581323300,5.8023232421875,0.6103496551513672,0.08945572376251221,1.121147871017456
1696958510591337000,5.8123369140625,1.2211589813232422,0.26094353199005127,0.7842627763748169
1696958510601350400,5.822350341796875,-3.0206823348999023,0.1391369104385376,1.091170310974121
1696958510611364000,5.832364013671875,3.5096254348754883,-0.3194502592086792,1.4560797214508057
1696958510621377500,5.84237744140625,-2.791630268096924,-0.08660423755645752,0.8608797788619995
1696958510631391200,5.85239111328125,-0.7738056182861328,-0.26392221450805664,1.1821136474609375
1696958510641405000,5.862405029296875,2.6937570571899414,0.44766080379486084,0.95240318775177
1696958510651418400,5.87241845703125,-3.143007278442383,-0.10659670829772949,0.9542620778083801
1696958510661432000,5.88243212890625,1.8774919509887695,-0.21123123168945312,1.210272192955017
1696958510671445500,5.892445556640625,0.0672922134399414,0.42207229137420654,0.7448605298995972
1696958510681459200,5.902459228515625,-2.2221689224243164,-0.3379030227661133,0.998659074306488
1696958510691473000,5.912472900390625,2.113100051879883,0.3232858180999756,1.3433314561843872
1696958510701486300,5.922486328125,-0.5629215240478516,-0.09424841403961182,0.6714666485786438
1696958510711500000,5.9325,-1.2928504943847656,0.35647428035736084,1.0474066734313965
1696958510721513500,5.942513427734375,2.8107519149780273,0.16962134838104248,0.9139962196350098
1696958510731527200,5.952527099609375,-3.0829224586486816,-0.16897976398468018,0.5925763845443726
1696958510741540900,5.962540771484375,1.6596879959106445,0.3560175895690918,1.0627721548080444
1696958510751554300,5.97255419921875,0.45744991302490234,-0.10969555377960205,0.554282546043396
1696958510761568000,5.982568115234375,-1.704390525817871,0.2530803680419922,0.6433924436569214
1696958510771581400,5.99258154296875,2.195136070251465,-0.046546101570129395,0.7503962516784668
1696958510781595100,6.00259521484375,-2.1922593116760254,0.422857403755188,0.678507924079895
1696958510791608800,6.01260888671875,1.5404644012451172,0.0709843635559082,0.8912705779075623
1696958510801622300,6.022622314453125,-0.3886423110961914,0.10842442512512207,0.5786328315734863
1696958510811636000,6.032635986328125,0.7160558700561523,0.22910535335540771,0.5800310373306274
1696958510821649400,6.0426494140625,-0.6664648056030273,0.1391977071762085,0.8642958998680115
1696958510831663000,6.0526630859375,0.5394153594970703,0.17773783206939697,0.8904227018356323
1696958510841676800,6.0626767578125,-0.2597522735595703,0.3040508031845093,0.8586947321891785
1696958510851690200,6.072690185546875,0.21405792236328125,0.05439794063568115,0.8131517171859741
1696958510861704000,6.082703857421875,0.28524112701416016,0.316919207572937,0.5059583187103271
1696958510871717400,6.09271728515625,-0.9911613464355469,-0.0592120885848999,0.7133869528770447
1696958510881731000,6.10273095703125,0.850987434387207,0.3154885768890381,0.8160053491592407
1696958510891744800,6.112744873046875,-1.0766010284423828,-0.20047950744628906,0.9470281004905701
1696958510901758200,6.12275830078125,0.9328994750976562,0.3906717300415039,0.9346146583557129
1696958510911772000,6.13277197265625,-0.5742254257202148,0.11729991436004639,1.1607645750045776
1696958510921785300,6.142785400390625,-0.03788280487060547,0.12919354438781738,1.1238449811935425
1696958510931799000,6.152799072265625,0.5408868789672852,0.06363868713378906,0.8649015426635742
1696958510941812700,6.162812744140625,-0.9514789581298828,0.05820596218109131,0.9988795518875122
1696958510951826200,6.172826171875,1.0580940246582031,0.11054408550262451,0.8778384923934937
1696958510961839900,6.18283984375,-1.285904884338379,0.13604533672332764,0.8217042684555054
1696958510971853300,6.192853271484375,0.695530891418457,0.2619560956954956,1.2334797382354736
1696958510981867000,6.202866943359375,-0.022584915161132812,-0.11996805667877197,1.2302742004394531
1696958510991880700,6.212880615234375,-0.041741371154785156,0.2490633726119995,0.9307555556297302
1696958511001894100,6.22289404296875,0.5226106643676758,-0.05044293403625488,1.2199292182922363
1696958511011907800,6.232907958984375,-0.3961477279663086,0.3454270362854004,1.4411908388137817
1696958511021921300,6.24292138671875,1.7986259460449219,-0.12043547630310059,1.288871169090271
1696958511031935000,6.25293505859375,-1.1061897277832031,-0.18629777431488037,1.315037488937378
1696958511041948700,6.26294873046875,2.1796655654907227,0.22612249851226807,1.206554651260376
1696958511051962000,6.272962158203125,-1.16058349609375,-0.3023033142089844,1.1448336839675903
1696958511061975800,6.282975830078125,0.9735689163208008,0.2830801010131836,1.245026707649231
1696958511071989200,6.2929892578125,0.6183633804321289,-0.09193634986877441,1.0847121477127075
1696958511082003000,6.3030029296875,-1.0077486038208008,0.0112762451171875,1.2119500637054443
1696958511092016600,6.3130166015625,1.676091194152832,0.22912991046905518,1.0039832592010498
1696958511102030000,6.323030029296875,-1.5863466262817383,-0.23311853408813477,0.8888291120529175
1696958511112043800,6.333043701171875,0.7734527587890625,0.5528061389923096,1.2739741802215576
1696958511122057200,6.34305712890625,-0.06364631652832031,-0.040009498596191406,0.9322036504745483
1696958511132071000,6.35307080078125,-0.594080924987793,0.41495323181152344,0.8569911122322083
1696958511142084600,6.363084716796875,-0.40538978576660156,-0.30405282974243164,0.7829376459121704
1696958511152098000,6.37309814453125,-1.1927919387817383,0.8283179998397827,0.9181323647499084
1696958511162111700,6.38311181640625,0.35427188873291016,-0.18531465530395508,0.44236108660697937
1696958511172125200,6.393125244140625,-1.8923921585083008,0.6822483539581299,0.5549942851066589
1696958511182139000,6.403138916015625,0.8267488479614258,-0.18400847911834717,0.7406953573226929
1696958511192152600,6.413152587890625,-2.2045536041259766,0.7054731845855713,0.7359444499015808
1696958511202166000,6.423166015625,1.1982707977294922,-0.12375295162200928,0.5525898933410645
1696958511212179700,6.4331796875,-1.8146238327026367,0.3004593849182129,0.520779013633728
1696958511222193200,6.443193115234375,0.8556509017944336,0.35905885696411133,0.7890852689743042
1696958511232206800,6.453206787109375,-0.4311399459838867,-0.03992199897766113,0.3394298851490021
1696958511242221000,6.463220947265625,-1.052083969116211,0.22346746921539307,1.0690491199493408
1696958511252234800,6.47323486328125,1.2448816299438477,0.06242525577545166,0.8088260889053345
1696958511262248200,6.483248291015625,-1.5111379623413086,0.25013792514801025,0.9008015394210815
1696958511272261600,6.49326171875,2.5307445526123047,-0.22700858116149902,0.344183087348938
1696958511282275000,6.503275146484375,-2.4163990020751953,0.24161672592163086,1.3015457391738892
1696958511292288500,6.51328857421875,2.922060012817383,0.013940095901489258,1.1044492721557617
1696958511302302000,6.523302001953125,-1.069575309753418,-0.26802778244018555,0.46322953701019287
1696958511312315600,6.533315673828125,0.4565916061401367,0.41347479820251465,1.2152849435806274
1696958511322329000,6.5433291015625,0.8435850143432617,-0.20152318477630615,0.5386110544204712
1696958511332342500,6.553342529296875,-1.376413345336914,0.4422035217285156,0.9611291885375977
1696958511342356000,6.56335595703125,1.9248476028442383,-0.23966896533966064,1.1298129558563232
1696958511352369400,6.573369384765625,-1.2003192901611328,0.44196975231170654,0.864622950553894
1696958511362383000,6.583383056640625,0.8574724197387695,0.021485328674316406,1.162048578262329
1696958511372396500,6.593396484375,-1.0078744888305664,0.021878719329833984,0.9460241198539734
1696958511382410200,6.60341015625,0.23686504364013672,0.4063575267791748,1.1471563577651978
1696958511392423700,6.613423583984375,-0.8288173675537109,-0.33994293212890625,0.8636274337768555
1696958511402437400,6.623437255859375,-0.5833282470703125,0.4324326515197754,1.0923329591751099
1696958511412451000,6.633451171875,0.18795490264892578,-0.0017406940460205078,0.9709497094154358
1696958511422464800,6.64346484375,-1.6619701385498047,0.3611830472946167,1.0747339725494385
1696958511432478500,6.653478515625,1.0756187438964844,-0.13566839694976807,1.0817720890045166
1696958511442492000,6.663491943359375,-0.8860311508178711,0.3202601671218872,1.001137137413025
1696958511452505600,6.673505615234375,0.124267578125,0.1780862808227539,0.9730528593063354
1696958511462519300,6.683519287109375,0.1814746856689453,0.11907219886779785,1.2582340240478516
1696958511472533000,6.693532958984375,-0.010187149047851562,0.14300215244293213,0.9580679535865784
1696958511482546700,6.703546630859375,-1.4293756484985352,-0.03997302055358887,1.1144770383834839
1696958511492560400,6.713560302734375,1.680037498474121,0.5420387983322144,1.192426085472107
1696958511502574000,6.723573974609375,-0.7751283645629883,-0.4102088212966919,0.6151800155639648
1696958511512588000,6.733588134765625,-0.67822265625,0.37417352199554443,1.0496249198913574
1696958511522601700,6.743601806640625,1.5746421813964844,-0.10651159286499023,1.0701345205307007
1696958511532615400,6.753615478515625,-1.922663688659668,0.5096381902694702,1.441092610359192
1696958511542629000,6.763629150390625,1.9526119232177734,-0.23330223560333252,0.8873964548110962
1696958511552642600,6.773642578125,-2.281001567840576,0.19241929054260254,1.2276421785354614
1696958511562656300,6.78365625,1.6425056457519531,-0.001709580421447754,1.1524101495742798
1696958511572670000,6.793669921875,-1.4001359939575195,0.11123883724212646,1.0096670389175415
1696958511582683400,6.803683349609375,0.19379615783691406,0.4764518737792969,1.2943556308746338
1696958511592697000,6.813697021484375,-0.3461456298828125,-0.030678510665893555,1.2507848739624023
1696958511602710500,6.82371044921875,-0.2887077331542969,0.5103574991226196,0.9832489490509033
1696958511612724200,6.83372412109375,-0.7464714050292969,-0.46800851821899414,0.7383463978767395
1696958511622738000,6.843738037109375,-0.44423484802246094,0.7330961227416992,1.182940125465393
1696958511632751400,6.85375146484375,0.7994136810302734,-0.1337350606918335,0.9477025866508484
1696958511642765000,6.86376513671875,-1.4967899322509766,0.44225287437438965,1.3071736097335815
1696958511652778500,6.873778564453125,1.6460886001586914,-0.07489120960235596,1.3538601398468018
1696958511662792200,6.883792236328125,-1.7842741012573242,0.004455924034118652,1.3954837322235107
1696958511672806000,6.893805908203125,1.4878435134887695,0.3381226062774658,1.4214332103729248
1696958511682819300,6.9038193359375,-1.0530376434326172,-0.09636867046356201,0.9376068115234375
1696958511692833000,6.9138330078125,0.4632587432861328,0.25749921798706055,1.4112643003463745
1696958511702846500,6.923846435546875,1.0023260116577148,-0.15559852123260498,0.85268235206604
1696958511712860200,6.933860107421875,-1.954237937927246,0.37057316303253174,1.393036127090454
1696958511722873900,6.943873779296875,2.55169677734375,0.17940807342529297,0.9375697374343872
1696958511732887300,6.95388720703125,-2.2381649017333984,0.0717393159866333,1.1133716106414795
1696958511742901000,6.96390087890625,1.2402992248535156,0.21636557579040527,0.8376393914222717
1696958511752914400,6.97391455078125,-0.2915916442871094,-0.21314680576324463,0.5508474707603455
1696958511762928000,6.98392822265625,-1.0853614807128906,0.47024762630462646,1.2302374839782715
1696958511772941800,6.99394189453125,1.5266237258911133,-0.5532269477844238,0.7374937534332275
1696958511782955300,7.003955322265625,-2.5970654487609863,0.7319235801696777,0.9180973172187805
1696958511792969000,7.013968994140625,2.4265060424804688,-0.391221284866333,0.7939744591712952
1696958511802982400,7.023982421875,-2.711764335632324,0.4476226568222046,0.7342972755432129
1696958511812996000,7.03399609375,1.1599235534667969,-0.04056549072265625,1.2011793851852417
1696958511823009800,7.044009765625,-1.0980653762817383,-0.24099290370941162,0.7587714791297913
1696958511833023200,7.054023193359375,-0.5945472717285156,0.3697293996810913,0.9454230666160583
1696958511843037000,7.064036865234375,1.7344980239868164,-0.6315881013870239,0.8385559320449829
1696958511853050400,7.07405029296875,-2.724015235900879,0.6904128789901733,0.9910021424293518
1696958511863064000,7.08406396484375,2.997814178466797,-0.26216769218444824,1.4162178039550781
1696958511873077800,7.094077880859375,-2.208709716796875,0.30808305740356445,1.153806209564209
1696958511883091200,7.10409130859375,1.8627471923828125,-0.02913951873779297,1.1597553491592407
1696958511893105000,7.11410498046875,-0.7793493270874023,0.22936809062957764,1.1351126432418823
1696958511903118300,7.124118408203125,0.4260263442993164,-0.01280832290649414,1.4118725061416626
1696958511913132000,7.134132080078125,0.7645854949951172,0.018024086952209473,1.0080187320709229
1696958511923145700,7.144145751953125,-0.5424823760986328,0.3469456434249878,1.4893282651901245
1696958511933159200,7.1541591796875,1.1171236038208008,-0.03599202632904053,1.1522514820098877
1696958511943172900,7.1641728515625,-1.2228002548217773,0.34334444999694824,1.286213994026184
1696958511953186300,7.174186279296875,0.29964351654052734,-0.2284635305404663,1.6046898365020752
1696958511963200000,7.184199951171875,-0.33209228515625,0.21773052215576172,1.3736655712127686
1696958511973213700,7.194213623046875,0.1177053451538086,-0.3208341598510742,1.5091750621795654
1696958511983227100,7.20422705078125,-0.21731281280517578,0.4221916198730469,1.545113205909729
1696958511993240800,7.21424072265625,-0.36516475677490234,-0.05486857891082764,1.5711175203323364
1696958512003254300,7.224254150390625,0.3045005798339844,0.32989025115966797,1.5217854976654053
1696958512013268000,7.23426806640625,-0.6760997772216797,-0.35804927349090576,1.2050038576126099
1696958512023281700,7.24428173828125,-0.7033662796020508,0.5053585767745972,1.4302854537963867
1696958512033295000,7.254295166015625,0.5787630081176758,-0.0902554988861084,1.190126895904541
1696958512043308800,7.264308837890625,-1.2052669525146484,-0.1089334487915039,1.4255311489105225
1696958512053322200,7.274322265625,1.1292762756347656,0.11127126216888428,1.517390489578247
1696958512063336000,7.2843359375,-0.9140415191650391,0.19586670398712158,1.2144509553909302
1696958512073349600,7.294349609375,0.7839803695678711,0.32127976417541504,1.2874317169189453
1696958512083363000,7.304363037109375,-0.3074026107788086,-0.5270766019821167,1.2730599641799927
1696958512093376800,7.314376708984375,-0.27856922149658203,0.7360764741897583,1.5458775758743286
1696958512103390200,7.32439013671875,0.8832206726074219,-0.2824612855911255,1.1461971998214722
1696958512113404000,7.33440380859375,-1.1407480239868164,0.3893554210662842,1.2003363370895386
1696958512123417600,7.34441748046875,0.8066835403442383,-0.3345186710357666,1.0767738819122314
1696958512133431000,7.35443115234375,-1.967176914215088,0.0727086067199707,1.1043269634246826
1696958512143444700,7.36444482421875,1.6307554244995117,0.3559070825576782,1.0552020072937012
1696958512153458200,7.374458251953125,-0.8008260726928711,-0.378171443939209,0.8506966829299927
1696958512163472000,7.384471923828125,-0.1639404296875,0.08276653289794922,1.1668967008590698
1696958512173485600,7.394485595703125,0.6154890060424805,-0.02323770523071289,0.8906270265579224
1696958512183499000,7.4044990234375,-1.063772201538086,-0.0016107559204101562,0.8119734525680542
1696958512193512700,7.4145126953125,0.5682277679443359,-0.26677465438842773,1.1816095113754272
1696958512203526100,7.424526123046875,-0.5131702423095703,-0.042171478271484375,1.1655418872833252
1696958512213539800,7.434539794921875,0.9929542541503906,0.019697070121765137,0.8804634213447571
1696958512223553500,7.444553466796875,-0.3185443878173828,-0.2754560708999634,1.070797324180603
1696958512233567000,7.45456689453125,0.40815162658691406,0.2457658052444458,1.3612616062164307
1696958512243580700,7.46458056640625,-0.01783466339111328,-0.1405576467514038,0.7892084121704102
1696958512253594000,7.474593994140625,-1.1459569931030273,0.09223270416259766,1.2562631368637085
1696958512263607800,7.48460791015625,1.4950218200683594,-0.2149667739868164,1.2978436946868896
1696958512273621500,7.49462158203125,-2.068875789642334,-0.043921828269958496,0.9320040345191956
1696958512283635000,7.504635009765625,1.6539134979248047,0.06020462512969971,1.0046048164367676
1696958512293648600,7.514648681640625,-0.8059978485107422,-0.3513355255126953,1.1322132349014282
1696958512303662000,7.524662109375,0.8394651412963867,0.17014682292938232,0.9600263237953186
1696958512313675800,7.53467578125,-0.5718564987182617,-0.595105767250061,0.9744288921356201
1696958512323689500,7.544689453125,-0.5660314559936523,0.2941257953643799,1.6125952005386353
1696958512333703000,7.554702880859375,1.9254474639892578,-0.25847768783569336,1.3695318698883057
1696958512343716600,7.564716552734375,-2.466148853302002,-0.10719919204711914,1.3774175643920898
1696958512353730000,7.57472998046875,2.868006706237793,0.22227418422698975,1.2824794054031372
1696958512363743700,7.58474365234375,-2.1179165840148926,-0.1826387643814087,1.2503513097763062
1696958512373757400,7.59475732421875,1.5566825866699219,-0.016721725463867188,1.4148917198181152
1696958512383771000,7.60477099609375,-0.787938117980957,-0.46021103858947754,1.2260886430740356
1696958512393784600,7.61478466796875,-0.5858545303344727,0.2776973247528076,1.987208366394043
1696958512403798000,7.624798095703125,2.0443601608276367,-0.1616675853729248,1.3329020738601685
1696958512413811700,7.634811767578125,-3.8912062644958496,-0.3063300848007202,1.5221209526062012
1696958512423825400,7.644825439453125,3.2480039596557617,-0.0275191068649292,1.7711918354034424
1696958512433838800,7.6548388671875,-2.173851490020752,-0.11144161224365234,0.963774561882019
1696958512443852500,7.6648525390625,0.043445587158203125,-0.16650044918060303,1.3276846408843994
1696958512453866000,7.674865966796875,0.7605686187744141,-0.04084765911102295,1.2386723756790161
1696958512463879700,7.684879638671875,-2.037229061126709,-0.24931800365447998,1.2011460065841675
1696958512473893400,7.694893310546875,0.6246089935302734,-0.1408296823501587,1.2912311553955078
1696958512483906800,7.70490673828125,-1.3648576736450195,0.020801305770874023,1.3642628192901611
1696958512493920500,7.71492041015625,-0.21979713439941406,0.015663862228393555,1.498468041419983
1696958512503934000,7.724933837890625,0.9609851837158203,-0.1125633716583252,1.0403965711593628
1696958512513947600,7.73494775390625,-2.2242517471313477,-0.14498686790466309,1.020066499710083
1696958512523961300,7.74496142578125,1.2978944778442383,-0.5832687616348267,1.3162875175476074
1696958512533974800,7.754974853515625,0.5779180526733398,-0.20540893077850342,1.2043044567108154
1696958512543988500,7.764988525390625,-1.0248050689697266,-0.6561005115509033,1.2194781303405762
1696958512554002000,7.775001953125,1.9114799499511719,0.08573043346405029,1.5976152420043945
1696958512564015600,7.785015625,1.5579833984375,-0.04497814178466797,1.4517862796783447
1696958512574029300,7.795029296875,-1.6911563873291016,-0.8981493711471558,1.1838425397872925
1696958512584042800,7.805042724609375,2.909830093383789,-0.31799793243408203,1.190902829170227
1696958512594056400,7.815056396484375,-0.934290885925293,-0.29445695877075195,0.9220208525657654
1696958512604070000,7.82506982421875,-0.40225696563720703,-0.6362859010696411,1.522953748703003
1696958512614083600,7.83508349609375,3.445906639099121,-0.43120312690734863,0.830245852470398
1696958512624097300,7.84509716796875,-3.7017688751220703,0.032807230949401855,1.0857514142990112
1696958512634110700,7.85511083984375,2.084092140197754,-0.6940447092056274,1.2982985973358154
1696958512644124400,7.86512451171875,0.3069734573364258,-0.4439356327056885,1.097296953201294
1696958512654137900,7.875137939453125,-1.6821794509887695,-0.3435314893722534,1.2128020524978638
1696958512664151600,7.885151611328125,1.82501220703125,-0.578048586845398,1.4089224338531494
1696958512674165200,7.895165283203125,-0.3105144500732422,0.0412980318069458,1.526291012763977
1696958512684178700,7.9051787109375,-1.1221389770507812,-0.5327519178390503,1.3280763626098633
1696958512694192400,7.9151923828125,-0.2544584274291992,-0.2251284122467041,1.6437480449676514
1696958512704205800,7.925205810546875,1.2231712341308594,-0.10785853862762451,1.2545557022094727
1696958512714219500,7.935219482421875,-3.133167266845703,-0.7129199504852295,1.1992623805999756
1696958512724233200,7.945233154296875,1.6386919021606445,-0.46772313117980957,1.5303958654403687
1696958512734246700,7.95524658203125,-0.35259151458740234,-0.19256353378295898,1.1816133260726929
1696958512744260400,7.96526025390625,-3.181149959564209,0.011361241340637207,1.2148877382278442
1696958512754273800,7.975273681640625,2.40830135345459,-0.41711926460266113,1.6878924369812012
1696958512764287500,7.98528759765625,-1.3343000411987305,-0.048595309257507324,1.0599372386932373
1696958512774301200,7.99530126953125,-1.8619098663330078,-0.09687590599060059,1.2715294361114502
1696958512784314600,8.005314697265625,2.065919876098633,-0.33850252628326416,1.3664450645446777
1696958512794328300,8.015328369140626,-1.5660734176635742,-0.6518124341964722,1.578141450881958
1696958512804341800,8.025341796875,-1.132741928100586,-0.04264092445373535,1.1276599168777466
1696958512814355500,8.03535546875,0.6429462432861328,-0.09470260143280029,1.5836594104766846
1696958512824369200,8.045369140625,0.4833974838256836,-0.04024958610534668,1.4717838764190674
1696958512834382600,8.055382568359375,-0.6172046661376953,-0.8705514669418335,0.994828462600708
1696958512844396300,8.065396240234374,-0.3866920471191406,-0.396633505821228,1.4092274904251099
1696958512854409700,8.07540966796875,1.5113239288330078,-0.5525387525558472,1.1387439966201782
1696958512864423400,8.08542333984375,-2.2581896781921387,-0.04998469352722168,1.1154438257217407
1696958512874437000,8.09543701171875,1.1778888702392578,-0.7501226663589478,1.440269112586975
1696958512884450600,8.105450439453126,0.1333761215209961,-0.16347503662109375,1.3509109020233154
1696958512894464300,8.11546435546875,1.2459278106689453,-0.15736889839172363,1.29770028591156
1696958512904477700,8.125477783203126,-0.7642440795898438,-0.670531153678894,0.8949600458145142
1696958512914491400,8.135491455078125,1.2057580947875977,-0.06883013248443604,1.3558590412139893
1696958512924505000,8.145505126953125,0.6344842910766602,-0.5320212841033936,1.0413014888763428
1696958512934518500,8.1555185546875,-2.2686171531677246,-0.33332371711730957,1.2089179754257202
1696958512944532200,8.1655322265625,3.7438182830810547,-0.38803136348724365,1.0771957635879517
1696958512954545700,8.175545654296876,-2.1719837188720703,-0.27984774112701416,0.8991744518280029
1696958512964559400,8.185559326171875,1.1300764083862305,-0.41070592403411865,1.0290113687515259
1696958512974573000,8.195572998046876,0.38661956787109375,-0.4691464900970459,0.8080800175666809
1696958512984586500,8.20558642578125,-0.06375694274902344,-0.5518255233764648,1.190321922302246
1696958512994600200,8.21560009765625,-1.072134017944336,-0.1578594446182251,0.9288176894187927
1696958513004613600,8.225613525390624,1.051889419555664,-0.7989270687103271,0.9411395788192749
1696958513014627300,8.23562744140625,0.28009033203125,0.14233314990997314,1.1252341270446777
1696958513024641000,8.24564111328125,-0.6718873977661133,-0.4582102298736572,0.8136806488037109
1696958513034654500,8.255654541015625,0.1084909439086914,-0.5174599885940552,0.7964271903038025
1696958513044668200,8.265668212890626,0.7487411499023438,-0.4455357789993286,1.0084989070892334
1696958513054681600,8.275681640625,-1.4801130294799805,-0.6883732080459595,0.44217386841773987
1696958513064695300,8.2856953125,-0.14805221557617188,-0.43641698360443115,0.8330572843551636
1696958513074709000,8.295708984375,1.9696435928344727,-0.2697606086730957,1.1059447526931763
1696958513084722400,8.305722412109375,-1.322784423828125,-0.7885616421699524,0.8998026847839355
1696958513094736100,8.315736083984374,0.4244861602783203,-0.5105154514312744,1.5836665630340576
1696958513104749600,8.32574951171875,2.7942590713500977,0.05957901477813721,1.677851915359497
1696958513114763300,8.33576318359375,-1.709320068359375,-0.33562374114990234,1.4794927835464478
1696958513124777000,8.34577685546875,0.6840009689331055,-0.5608465671539307,1.7749539613723755
1696958513134790400,8.355790283203126,0.8547067642211914,-0.26816344261169434,1.5060102939605713
1696958513144804000,8.36580419921875,0.0497589111328125,0.03837287425994873,1.5427963733673096
1696958513154817500,8.375817626953125,-0.12715435028076172,-0.39879512786865234,0.950371503829956
1696958513164831200,8.385831298828125,-0.2942314147949219,-0.31564199924468994,1.560852289199829
1696958513174845000,8.395844970703125,1.116495132446289,-0.29833805561065674,1.4750769138336182
1696958513184858400,8.4058583984375,-2.8574867248535156,-0.2704737186431885,1.4919192790985107
1696958513194872000,8.4158720703125,1.1013317108154297,-0.5863924026489258,1.7424626350402832
1696958513204885500,8.425885498046876,-0.0049190521240234375,-0.35066545009613037,1.7126765251159668
1696958513214899200,8.435899169921875,-1.2190179824829102,-0.3577028512954712,1.238027572631836
1696958513224913000,8.445912841796876,1.0012435913085938,-0.40858304500579834,1.4463841915130615
1696958513234926300,8.45592626953125,-0.43947410583496094,-0.2908066511154175,1.3204398155212402
1696958513244940000,8.46593994140625,-0.6871404647827148,-0.5176137685775757,1.2666690349578857
1696958513254953500,8.475953369140624,-0.10236263275146484,-0.5412927865982056,1.2865946292877197
1696958513264967200,8.48596728515625,1.197641372680664,-0.4676622152328491,0.9707624316215515
1696958513274980900,8.49598095703125,-1.2708730697631836,-0.48467791080474854,0.652774453163147
1696958513284994300,8.505994384765625,0.4666118621826172,-0.460135817527771,1.009279727935791
1696958513295008000,8.516008056640626,2.095534324645996,-0.21498870849609375,0.9225902557373047
1696958513305021400,8.526021484375,-2.1436004638671875,-0.6461309194564819,0.6532145738601685
1696958513315035100,8.53603515625,1.3930673599243164,-0.6032354831695557,1.187484860420227
1696958513325048800,8.546048828125,1.3471717834472656,-0.38757455348968506,1.0186103582382202
1696958513335062300,8.556062255859375,-1.461080551147461,-0.3694084882736206,1.2105343341827393
1696958513345076000,8.566075927734374,1.5864887237548828,-0.5441588163375854,0.7502443790435791
1696958513355089400,8.57608935546875,0.8807106018066406,-0.0849463939666748,1.228714942932129
1696958513365103000,8.58610302734375,0.11891555786132812,-0.25893354415893555,0.7038452625274658
1696958513375116800,8.59611669921875,-0.6650447845458984,-0.9719080924987793,0.7864746451377869
1696958513385130200,8.606130126953126,1.8459110260009766,-0.5949753522872925,1.473136305809021
1696958513395144000,8.61614404296875,0.15499496459960938,-0.4134417772293091,1.2508540153503418
1696958513405157400,8.626157470703125,-0.9157247543334961,-0.4285203218460083,1.153656005859375
1696958513415171000,8.636171142578124,2.441652297973633,-0.1680772304534912,1.4572434425354004
1696958513425184800,8.646184814453125,-0.5217533111572266,-0.4956505298614502,1.1572297811508179
1696958513435198200,8.6561982421875,-0.8740139007568359,-0.8831895589828491,0.7521765232086182
1696958513445212000,8.6662119140625,1.417740821838379,-0.8045649528503418,1.0267775058746338
1696958513455225300,8.676225341796876,-0.08071041107177734,-0.15543746948242188,1.2614893913269043
1696958513465239000,8.686239013671875,-0.9116878509521484,-0.09179949760437012,0.8446410894393921
1696958513475252700,8.696252685546876,1.4996004104614258,-0.46323084831237793,1.803828477859497
1696958513485266200,8.70626611328125,0.622166633605957,-0.7084516286849976,1.4979119300842285
1696958513495279900,8.71627978515625,-2.1458353996276855,-0.07165229320526123,0.8885698318481445
1696958513505293300,8.726293212890624,0.5597925186157227,-0.8803379535675049,1.1970568895339966
1696958513515307000,8.73630712890625,0.5929183959960938,0.22125113010406494,1.457507610321045
1696958513525320700,8.74632080078125,-1.5538387298583984,-0.86762535572052,1.250536322593689
1696958513535334100,8.756334228515625,-0.19722843170166016,-0.08494603633880615,1.3513989448547363
1696958513545347800,8.766347900390626,1.036890983581543,-0.2716587781906128,1.9255517721176147
1696958513555361300,8.776361328125,-1.2159881591796875,0.07236289978027344,1.018893837928772
1696958513565375000,8.786375,-0.27620887756347656,-0.5258655548095703,1.5809637308120728
1696958513575388700,8.796388671875,0.9340963363647461,-0.4535505771636963,1.4183558225631714
1696958513585402000,8.806402099609375,-1.6961307525634766,-0.51917564868927,1.462791085243225
1696958513595415800,8.816415771484374,0.40590667724609375,-0.3219120502471924,0.8147367238998413
1696958513605429200,8.82642919921875,0.721003532409668,-0.0790104866027832,1.4075291156768799
1696958513615443000,8.83644287109375,-0.4179811477661133,-0.43864548206329346,1.445544719696045
1696958513625456600,8.84645654296875,-0.40720272064208984,-0.7706079483032227,1.267474889755249
1696958513635470000,8.856469970703126,0.5448741912841797,-0.08642327785491943,1.1096537113189697
1696958513645483800,8.86648388671875,-0.11547088623046875,-0.5592761039733887,1.3380119800567627
1696958513655497200,8.876497314453125,-1.223994255065918,0.06373703479766846,1.4651707410812378
1696958513665511000,8.886510986328124,0.9582939147949219,-0.2584801912307739,1.5734363794326782
1696958513675524600,8.896524658203125,-0.6306304931640625,-0.1399778127670288,1.123611569404602
1696958513685538000,8.9065380859375,-0.7868013381958008,-0.8096647262573242,0.8822290897369385
1696958513695551700,8.9165517578125,-0.12069892883300781,-0.2431633472442627,1.4368317127227783
1696958513705565200,8.926565185546876,0.668126106262207,-0.6119269132614136,1.0901457071304321
1696958513715579000,8.936578857421875,-2.2294321060180664,-0.24939429759979248,0.8705971240997314
1696958513725592600,8.946592529296876,1.297708511352539,-0.6562786102294922,1.5366500616073608
1696958513735606000,8.95660595703125,0.2100067138671875,-0.018739938735961914,1.3807255029678345
1696958513745619700,8.96661962890625,-0.7084255218505859,-0.8100382089614868,1.1083868741989136
1696958513755633200,8.976633056640624,0.569148063659668,-0.5648268461227417,1.032743215560913
1696958513765646800,8.986646728515625,0.3671092987060547,-0.21123111248016357,1.5631580352783203
1696958513775660500,8.99666064453125,-0.4559602737426758,-0.2066349983215332,0.726720929145813
1696958513785674000,9.006674072265625,-0.3260784149169922,-0.5637005567550659,1.0660128593444824
1696958513795687700,9.016687744140626,1.1657609939575195,0.10055327415466309,1.2803030014038086
1696958513805701000,9.026701171875,-1.6089935302734375,-0.7898803949356079,0.9205644130706787
1696958513815714800,9.03671484375,0.37772178649902344,-0.034763216972351074,0.4825853705406189
1696958513825728500,9.046728515625,0.31488609313964844,-0.47323036193847656,0.751888632774353
1696958513835742000,9.056741943359375,-0.7756462097167969,-0.19902145862579346,0.6185619831085205
1696958513845755600,9.066755615234374,-0.16236209869384766,-0.943220853805542,0.16845636069774628
1696958513855769000,9.07676904296875,-0.17156028747558594,-0.028388023376464844,0.13789191842079163
1696958513865782800,9.08678271484375,0.4357328414916992,-0.06701028347015381,-0.1873636692762375
1696958513875796500,9.09679638671875,-1.3288536071777344,-0.5345962047576904,0.6487492918968201
1696958513885810000,9.106809814453126,1.9953546524047852,-0.8077034950256348,0.6065893173217773
1696958513895823600,9.11682373046875,-0.6663579940795898,0.05087411403656006,0.37768030166625977
1696958513905837000,9.126837158203125,-0.46446704864501953,-0.14178466796875,0.09833556413650513
1696958513915850800,9.136850830078124,0.8364315032958984,-0.45686256885528564,0.49626779556274414
1696958513925864400,9.146864501953125,0.4089794158935547,-0.4319193363189697,0.4251699447631836
1696958513935878000,9.1568779296875,-1.2983675003051758,-0.5498799085617065,-0.03650027513504028
1696958513945891600,9.1668916015625,1.7294607162475586,0.11932528018951416,0.2543776035308838
1696958513955905000,9.176905029296876,0.9369697570800781,-0.5252358913421631,0.13394948840141296
1696958513965918700,9.186918701171875,-3.0610122680664062,-0.33912789821624756,-0.0368880033493042
1696958513975932400,9.196932373046875,2.016561508178711,-0.5499422550201416,0.2582056522369385
1696958513985945900,9.20694580078125,-0.5735759735107422,-0.11668002605438232,0.1630731225013733
1696958513995959600,9.21695947265625,-0.5057859420776367,-0.16477715969085693,0.1750211864709854
1696958514005973000,9.226972900390624,0.4556446075439453,-0.19572114944458008,-0.00362454354763031
1696958514015986700,9.236986572265625,-0.558772087097168,-0.5000970363616943,0.5372644066810608
1696958514026000400,9.24700048828125,-0.5913724899291992,0.1452343463897705,0.05426377058029175
1696958514036013800,9.257013916015625,-0.15552330017089844,-0.5781363248825073,0.17045964300632477
1696958514046027500,9.267027587890626,-0.3084077835083008,0.17172765731811523,0.8109230399131775
1696958514056041000,9.277041015625,-0.20788288116455078,-0.4222373962402344,-0.04730190336704254
1696958514066054700,9.2870546875,-0.6047420501708984,-0.37743592262268066,-0.08037824928760529
1696958514076068400,9.297068359375,1.322300910949707,-0.20130527019500732,0.3425130546092987
1696958514086081800,9.307081787109375,-1.4484796524047852,-0.5178345441818237,0.11734168231487274
1696958514096095500,9.317095458984374,0.26515960693359375,-0.695605993270874,0.3813461661338806
1696958514106109000,9.32710888671875,0.5366840362548828,-0.45372653007507324,0.5096091032028198
1696958514116122600,9.33712255859375,-0.5978755950927734,-0.02667868137359619,0.6084674596786499
1696958514126136300,9.34713623046875,0.7699184417724609,-0.6729608774185181,0.5167772769927979
1696958514136149800,9.357149658203125,0.050693511962890625,-0.17057371139526367,0.6709882616996765
1696958514146163500,9.36716357421875,0.6859073638916016,-0.06784343719482422,0.22314156591892242
1696958514156177000,9.377177001953125,-1.323415756225586,-0.42695069313049316,0.6002411842346191
1696958514166190600,9.387190673828124,1.680607795715332,-0.6084669828414917,1.0759869813919067
1696958514176204300,9.397204345703125,0.1804971694946289,-0.5732055902481079,0.31720495223999023
1696958514186217700,9.4072177734375,-2.4152488708496094,-0.09566366672515869,0.7977688312530518
1696958514196231400,9.4172314453125,4.309210777282715,-0.303983211517334,0.827252209186554
1696958514206244900,9.427244873046876,-1.555063247680664,-0.14741075038909912,0.7759242057800293
1696958514216258600,9.437258544921875,0.8944807052612305,-0.5811284780502319,0.5242525339126587
1696958514226272300,9.447272216796875,0.3382539749145508,-0.7562307715415955,0.41155052185058594
1696958514236285700,9.45728564453125,0.7049894332885742,-0.10971522331237793,0.9321271181106567
1696958514246299400,9.46729931640625,-0.2046499252319336,-0.5463353395462036,0.70643150806427
1696958514256312800,9.477312744140624,-0.4195995330810547,-0.5228772163391113,0.2710539698600769
1696958514266326500,9.487326416015625,1.8659553527832031,0.47128844261169434,1.4057241678237915
1696958514276340200,9.49734033203125,-0.4086942672729492,-0.5159389972686768,0.32255998253822327
1696958514286353700,9.507353759765625,-1.344609260559082,-0.9234810471534729,1.1980719566345215
1696958514296367400,9.517367431640626,3.1795969009399414,0.3305819034576416,1.1361932754516602
1696958514306380800,9.527380859375,-3.2842154502868652,-0.43105340003967285,0.6233746409416199
1696958514316394500,9.53739453125,2.070744514465332,-0.23570072650909424,0.5709353685379028
1696958514326408200,9.547408203125,0.28870677947998047,-0.6078857183456421,0.4163799285888672
1696958514336421600,9.557421630859375,-1.805605411529541,-0.311084508895874,0.2472762167453766
1696958514346435300,9.567435302734374,1.510848045349121,-0.536880612373352,-0.05920245498418808
1696958514356448800,9.57744873046875,-1.570143699645996,-0.4916750192642212,0.43072617053985596
1696958514366462500,9.58746240234375,0.8136014938354492,-0.6185145378112793,0.24399778246879578
1696958514376476200,9.59747607421875,-1.6204328536987305,-0.34932613372802734,0.053498826920986176
1696958514386489600,9.607489501953125,1.3130102157592773,-0.09857833385467529,0.6627050638198853
1696958514396503300,9.61750341796875,0.6652889251708984,-0.38702476024627686,0.46557825803756714
1696958514406517000,9.62751708984375,-1.7161827087402344,-0.6401578187942505,0.5951375365257263
1696958514416530400,9.637530517578124,2.426730155944824,-0.1470487117767334,0.43101274967193604
1696958514426544000,9.647544189453125,-1.1914491653442383,0.276472806930542,0.8182977437973022
1696958514436557600,9.6575576171875,0.8041706085205078,-0.43003833293914795,0.37463608384132385
1696958514446571300,9.6675712890625,-0.9941568374633789,-0.11927080154418945,0.669130265712738
1696958514456585000,9.6775849609375,1.9711151123046875,0.016407251358032227,0.954947829246521
1696958514466598400,9.687598388671875,-1.4883432388305664,-0.6498775482177734,0.24645045399665833
1696958514476612000,9.697612060546875,0.28322792053222656,0.3922231197357178,1.0721971988677979
1696958514486625500,9.70762548828125,1.1242094039916992,-0.5851153135299683,0.38042640686035156
1696958514496639200,9.71763916015625,-2.959773540496826,-0.39786386489868164,0.6030707359313965
1696958514506653000,9.72765283203125,2.3712310791015625,-0.6872276067733765,0.8739434480667114
1696958514516666400,9.737666259765625,-2.728364944458008,-0.06671857833862305,0.1716807782649994
1696958514526680000,9.74768017578125,1.0294256210327148,0.20132231712341309,0.5702415108680725
1696958514536693500,9.757693603515625,0.6404628753662109,-0.36036646366119385,0.6832302212715149
1696958514546707200,9.767707275390626,-1.6838665008544922,-0.5300208330154419,0.6555668115615845
1696958514556721000,9.777720947265625,0.891606330871582,-0.23443973064422607,0.10479307919740677
1696958514566734300,9.787734375,-2.2118539810180664,-0.7764315009117126,0.7310676574707031
1696958514576748000,9.797748046875,2.2666330337524414,0.07266056537628174,0.6075113415718079
1696958514586761500,9.807761474609375,-0.9975700378417969,-0.5266190767288208,0.5098111033439636
1696958514596775200,9.817775146484376,0.7250204086303711,-0.4264712333679199,0.769037663936615
1696958514606788900,9.827788818359375,1.249558448791504,-0.19288158416748047,0.3846032917499542
1696958514616802600,9.837802490234376,-0.8464899063110352,0.09250342845916748,0.7935500741004944
1696958514626816300,9.847816162109375,0.4461174011230469,-0.9704042077064514,0.9326500296592712
1696958514636829700,9.85782958984375,0.6269321441650391,-0.6512129306793213,0.6817218661308289
1696958514646843400,9.867843505859375,1.648451805114746,0.1403125524520874,0.469327837228775
1696958514656857000,9.877857177734375,-1.423110008239746,0.038375258445739746,0.8083018660545349
1696958514666870800,9.887870849609374,1.6196908950805664,-0.5483845472335815,0.7971594333648682
1696958514676884500,9.897884521484375,0.44576454162597656,-0.7614368200302124,0.7933394312858582
1696958514686898000,9.90789794921875,-1.3999042510986328,0.5535634756088257,0.45164379477500916
1696958514696911600,9.91791162109375,0.8834438323974609,-0.6983445882797241,0.4348655343055725
1696958514706925300,9.92792529296875,0.4516162872314453,-0.28486084938049316,0.8656352758407593
1696958514716939000,9.93793896484375,-0.007678985595703125,-0.2755124568939209,0.4938926100730896
1696958514726952700,9.94795263671875,-1.1640071868896484,-0.01363670825958252,-0.08348097652196884
1696958514736966100,9.957966064453124,2.3950462341308594,-0.3676435947418213,0.14238348603248596
1696958514746979800,9.967979736328125,-2.828557014465332,-1.043859839439392,1.026558518409729
1696958514756993500,9.97799365234375,0.3658628463745117,-0.5810319185256958,-0.02159281075000763
1696958514767007200,9.98800732421875,1.3886346817016602,0.21029484272003174,0.24293066561222076
1696958514777021000,9.99802099609375,-0.6640052795410156,0.3836914300918579,0.6145341396331787
1696958514787034400,10.008034423828125,-0.09849166870117188,-1.0695825815200806,1.0151028633117676
1696958514797048000,10.018048095703126,1.4511384963989258,-0.17692434787750244,0.5534563660621643
1696958514807061800,10.028061767578125,-1.098968505859375,-0.08176517486572266,-0.41733789443969727
1696958514817075500,10.038075439453126,-1.0767669677734375,-0.3946213722229004,-0.03777951002120972
1696958514827089200,10.048089111328125,1.688685417175293,-0.07225048542022705,0.4627718925476074
1696958514837102600,10.0581025390625,-1.3349647521972656,-0.41309309005737305,0.09059558808803558
1696958514847116300,10.0681162109375,-0.39493274688720703,0.37701916694641113,0.09004901349544525
1696958514857130000,10.0781298828125,2.3639793395996094,-0.34833765029907227,0.9091014862060547
1696958514867143700,10.088143798828124,-1.10101318359375,0.15266990661621094,1.0713130235671997
1696958514877157000,10.0981572265625,-0.7926998138427734,-0.6095538139343262,0.9420772194862366
1696958514887170800,10.1081708984375,1.0449304580688477,0.008941054344177246,1.4842134714126587
1696958514897184300,10.118184326171875,-0.08983993530273438,-0.6732627153396606,1.507550597190857
1696958514907198000,10.128197998046875,-0.9736080169677734,-0.30063509941101074,0.22344186902046204
1696958514917211600,10.138211669921875,0.7875738143920898,-0.506456732749939,-0.008806899189949036
1696958514927225000,10.14822509765625,-0.4945964813232422,-0.007364034652709961,0.06306073069572449
1696958514937238800,10.15823876953125,-0.7896146774291992,-0.002478480339050293,-0.016365841031074524
1696958514947252200,10.168252197265625,-0.902134895324707,-0.5767985582351685,0.6429425477981567
1696958514957266000,10.178265869140626,1.7333993911743164,-0.8327293395996094,1.4801517724990845
1696958514967279600,10.188279541015625,-0.6932458877563477,-0.13804864883422852,0.42929497361183167
1696958514977293000,10.19829296875,-0.7396736145019531,-0.1572861671447754,0.841891348361969
1696958514987306800,10.208306640625,2.7129364013671875,-0.14500463008880615,1.1962988376617432
1696958514997320200,10.2183203125,-1.7043657302856445,-0.8401305675506592,1.1954026222229004
1696958515007334000,10.228333984375,-0.08044815063476562,0.15443694591522217,0.7109513282775879
1696958515017347600,10.23834765625,2.03216552734375,-0.2721043825149536,0.9097145795822144
1696958515027361000,10.248361083984374,-0.548248291015625,0.0738300085067749,0.7216814756393433
1696958515037374700,10.258374755859375,-0.3274393081665039,-0.6062240600585938,0.919370174407959
1696958515047388200,10.26838818359375,1.0928163528442383,-0.5152846574783325,0.8296875953674316
1696958515057401900,10.27840185546875,0.1345081329345703,-0.7303094863891602,0.7436855435371399
1696958515067415600,10.28841552734375,0.0816192626953125,-0.41850340366363525,0.25683873891830444
1696958515077429000,10.298428955078125,0.826970100402832,-0.13076794147491455,0.8763932585716248
1696958515087442700,10.308442626953125,1.6472625732421875,-0.47299134731292725,0.7934948801994324
1696958515097456000,10.3184560546875,-1.9741215705871582,-0.44597578048706055,1.2615665197372437
1696958515107469800,10.3284697265625,2.522787094116211,-0.8837840557098389,0.9976329803466797
1696958515117483500,10.3384833984375,-1.1622133255004883,0.04113030433654785,0.45459797978401184
1696958515127497000,10.3484970703125,-0.7577590942382812,-0.7289491891860962,0.4994623064994812
1696958515137510700,10.3585107421875,0.6257171630859375,-0.7078802585601807,0.5261877179145813
1696958515147524000,10.368524169921875,0.3094806671142578,-0.5824404954910278,0.2538917064666748
1696958515157537800,10.378537841796875,-1.7932486534118652,-0.14748620986938477,-0.42698904871940613
1696958515167551500,10.388551513671874,-0.4073762893676758,0.39211857318878174,0.7052791118621826
1696958515177565000,10.39856494140625,2.490525245666504,-0.7667980194091797,0.8017369508743286
1696958515187578600,10.40857861328125,-4.176632881164551,-0.045088768005371094,0.2017090618610382
1696958515197592000,10.418592041015625,2.0555849075317383,-0.07397651672363281,0.4416663944721222
1696958515207605800,10.428605712890626,-0.6435470581054688,0.11165213584899902,0.1184927225112915
1696958515217619500,10.438619384765625,-1.1582717895507812,-0.1431635618209839,0.11026901006698608
1696958515227633000,10.4486328125,0.5989103317260742,-0.40370285511016846,0.6292667388916016
1696958515237646600,10.458646484375,-0.4012031555175781,0.3427772521972656,1.190345287322998
1696958515247660000,10.468659912109375,0.3932514190673828,-0.36147093772888184,1.1959189176559448
1696958515257673700,10.478673828125,-1.0892000198364258,-0.38962459564208984,1.05536687374115
1696958515267687400,10.4886875,1.3505706787109375,-0.5542385578155518,1.3402330875396729
1696958515277700900,10.498700927734374,-0.9367818832397461,-0.05497312545776367,0.733337938785553
1696958515287714600,10.508714599609375,-0.8728799819946289,-0.6095824241638184,0.7704246044158936
1696958515297728000,10.51872802734375,1.5953035354614258,-0.3805108070373535,0.573482871055603
1696958515307741700,10.52874169921875,-0.769434928894043,-0.13089501857757568,0.40207940340042114
1696958515317755400,10.53875537109375,-0.8010444641113281,0.09451770782470703,0.4495455026626587
1696958515327768800,10.548768798828124,0.3713645935058594,-0.6092408895492554,0.45252880454063416
1696958515337782500,10.558782470703125,0.23700332641601562,-0.3187394142150879,0.004914134740829468
1696958515347796000,10.5687958984375,-3.1232528686523438,-0.3676415681838989,0.3060501515865326
1696958515357809700,10.5788095703125,2.786031723022461,-0.18970930576324463,0.3660389184951782
1696958515367823400,10.5888232421875,-0.2644081115722656,-0.015602827072143555,0.26426663994789124
1696958515377836800,10.5988369140625,-0.5936555862426758,-0.07372736930847168,0.3116922974586487
1696958515387850500,10.6088505859375,0.4207029342651367,-0.83885657787323,0.8541027903556824
1696958515397864000,10.618864013671875,1.3854293823242188,-0.18740737438201904,1.0336240530014038
1696958515407877600,10.628877685546875,-1.0409488677978516,-0.03669393062591553,0.603137195110321
1696958515417891300,10.638891357421874,0.8348016738891602,-0.14844143390655518,0.6555346250534058
1696958515427904800,10.64890478515625,1.0240287780761719,0.08261537551879883,1.3103394508361816
1696958515437918500,10.65891845703125,0.8733491897583008,-0.22757112979888916,1.1084791421890259
1696958515447932000,10.668931884765625,-0.7301511764526367,-0.7543896436691284,0.756547212600708
1696958515457945600,10.678945556640626,2.215425491333008,0.17612922191619873,1.1397995948791504
1696958515467959300,10.688959228515625,-1.3597297668457031,-0.5384784936904907,0.9307501912117004
1696958515477972700,10.69897265625,0.39208412170410156,-0.3596881628036499,1.1158788204193115
1696958515487986400,10.708986328125,0.902705192565918,-0.6675206422805786,1.1057456731796265
1696958515498000000,10.718999755859375,-2.12460994720459,-0.2254185676574707,0.8036670684814453
1696958515508013600,10.729013671875,1.168015480041504,-0.6417934894561768,0.37128517031669617
1696958515518027300,10.73902734375,-0.0862569808959961,0.13456010818481445,0.7089230418205261
1696958515528040700,10.749040771484376,-1.6487293243408203,-0.7911829948425293,0.7349905967712402
1696958515538054400,10.759054443359375,1.1125602722167969,-0.48588407039642334,0.7674397230148315
1696958515548067800,10.76906787109375,-0.3755941390991211,0.03666281700134277,1.0630228519439697
1696958515558081500,10.77908154296875,-1.7031917572021484,-0.24360549449920654,0.8784336447715759
1696958515568095200,10.78909521484375,0.7526226043701172,-0.7002931833267212,1.4232933521270752
1696958515578108700,10.799108642578124,1.0905885696411133,-0.06600522994995117,0.9141955375671387
1696958515588122400,10.809122314453125,-2.046772003173828,-0.2866441011428833,0.6674700975418091
1696958515598135800,10.8191357421875,2.7225189208984375,-0.7604073286056519,0.5571974515914917
1696958515608149500,10.8291494140625,-1.0966548919677734,-0.6089619398117065,0.626275897026062
1696958515618163200,10.8391630859375,-0.9077568054199219,-0.14469051361083984,0.5862201452255249
1696958515628176600,10.8491767578125,1.4842729568481445,-0.4332817792892456,1.0003705024719238
1696958515638190300,10.8591904296875,0.46318626403808594,0.21472549438476562,0.7408148050308228
1696958515648203800,10.869203857421875,-0.6894826889038086,-0.41683149337768555,0.8401580452919006
1696958515658217500,10.879217529296875,1.806645393371582,-0.21452748775482178,0.5783202052116394
1696958515668231200,10.889231201171874,-0.44327545166015625,-0.04131877422332764,0.4148074984550476
1696958515678244600,10.89924462890625,-1.4219188690185547,-0.17359459400177002,0.49765509366989136
1696958515688258300,10.90925830078125,1.6351518630981445,-0.497051477432251,0.4892638921737671
1696958515698271700,10.919271728515625,-1.670222282409668,-0.11887192726135254,0.7728400230407715
1696958515708285400,10.929285400390626,-0.3811779022216797,-0.2515312433242798,0.4699499011039734
1696958515718299100,10.939299072265625,1.8852310180664062,-0.16316521167755127,0.199133038520813
1696958515728312600,10.9493125,-3.1460866928100586,0.06895935535430908,0.1110067367553711
1696958515738326300,10.959326171875,0.9805335998535156,-0.8856338262557983,0.3065137267112732
1696958515748339700,10.969339599609375,0.027792930603027344,0.0295255184173584,-0.2089306116104126
1696958515758353400,10.979353515625,-1.3432626724243164,-0.18943440914154053,0.4765928387641907
1696958515768367000,10.9893671875,1.2260875701904297,-0.32443928718566895,0.3645843267440796
1696958515778380500,10.999380615234376,1.0375556945800781,-0.24148857593536377,0.6948716044425964
1696958515788394200,11.009394287109375,-1.5355911254882812,0.017518997192382812,0.8263460397720337
1696958515798407700,11.01940771484375,1.851456642150879,-0.46288180351257324,0.9013316035270691
1696958515808421400,11.02942138671875,0.5670251846313477,0.28920555114746094,0.8527593016624451
1696958515818435000,11.03943505859375,-0.6910305023193359,-0.8392195701599121,1.2812821865081787
1696958515828448500,11.049448486328124,1.9769268035888672,0.2256312370300293,0.7036203742027283
1696958515838462200,11.059462158203125,-0.35436344146728516,0.0757296085357666,1.0694918632507324
1696958515848475600,11.0694755859375,-0.13902664184570312,-0.4888361692428589,1.235556721687317
1696958515858489300,11.0794892578125,2.0738821029663086,-0.07905864715576172,0.7133591175079346
1696958515868503000,11.0895029296875,-2.633296012878418,-0.1921091079711914,0.4131704568862915
1696958515878516500,11.0995166015625,1.3725471496582031,-0.36363351345062256,0.7447587847709656
1696958515888530200,11.1095302734375,-0.5801067352294922,-0.2684774398803711,-0.05787515640258789
1696958515898543600,11.119543701171875,-1.6969194412231445,-0.17515897750854492,0.16771143674850464
1696958515908557300,11.129557373046875,1.7385854721069336,-0.2602289915084839,0.04755324125289917
1696958515918571000,11.139571044921874,-1.6005525588989258,-0.17421388626098633,-0.15805447101593018
1696958515928584400,11.14958447265625,0.37233829498291016,-0.5854133367538452,0.40859419107437134
1696958515938598100,11.15959814453125,1.3231878280639648,-0.006689667701721191,0.2104054093360901
1696958515948611600,11.169611572265625,-2.860896587371826,-0.6578140258789062,0.6528657674789429
1696958515958625300,11.179625244140626,2.732511520385742,-0.14230167865753174,0.7240349054336548
1696958515968639000,11.189638916015625,-0.6040887832641602,-0.05391836166381836,0.34986889362335205
1696958515978652400,11.19965234375,-0.6121444702148438,0.024289488792419434,0.21707099676132202
1696958515988666000,11.209666015625,2.5149412155151367,-0.02949666976928711,0.5468391180038452
1696958515998679600,11.219679443359375,-1.7054386138916016,-0.39955949783325195,-0.025329291820526123
1696958516008693200,11.229693359375,-0.06725311279296875,-0.4091050624847412,0.31456005573272705
1696958516018707000,11.23970703125,1.8593196868896484,0.17947351932525635,0.019477427005767822
1696958516028720400,11.249720458984376,-2.331149101257324,-0.4550546407699585,0.06929874420166016
1696958516038734000,11.259734130859375,2.715778350830078,0.19033193588256836,-0.20881634950637817
1696958516048747500,11.26974755859375,-1.2946672439575195,-0.33086705207824707,-0.4998033046722412
1696958516058761200,11.27976123046875,-0.441253662109375,-0.4011169672012329,-0.21921777725219727
1696958516068775000,11.28977490234375,1.892247200012207,-0.2851494550704956,-0.4961194396018982
1696958516078788400,11.299788330078124,-2.957637310028076,-0.24438691139221191,-0.5341650247573853
1696958516088802000,11.309802001953125,1.5700445175170898,-0.44918322563171387,0.12726998329162598
1696958516098815500,11.3198154296875,0.501190185546875,-0.034267306327819824,-0.11148452758789062
1696958516108829200,11.3298291015625,-2.6351027488708496,-0.176316499710083,-0.38547593355178833
1696958516118843000,11.3398427734375,2.7807464599609375,-0.09662795066833496,-0.10410642623901367
1696958516128856300,11.349856201171875,-1.4451370239257812,-0.1893603801727295,-0.659254789352417
1696958516138870000,11.3598701171875,-1.2701835632324219,-0.5654442310333252,-0.4567946195602417
1696958516148883500,11.369883544921874,1.8251543045043945,0.06442093849182129,-0.2004198431968689
1696958516158897200,11.379897216796875,-2.1503520011901855,-0.4633138179779053,-0.1642327904701233
1696958516168910800,11.389910888671874,0.7119512557983398,-0.28025007247924805,-0.22616171836853027
1696958516178924300,11.39992431640625,1.6136093139648438,-0.1010594367980957,-0.3567960262298584
1696958516188938000,11.40993798828125,-2.490616798400879,-0.511834979057312,-0.22479236125946045
1696958516198951400,11.419951416015625,2.116649627685547,-0.5912176370620728,-0.3218081593513489
1696958516208965000,11.429965087890626,-0.4925975799560547,0.35595691204071045,-0.5734676122665405
1696958516218978800,11.439978759765625,-1.2851200103759766,-0.19024240970611572,-0.17650842666625977
1696958516228992300,11.4499921875,2.301485061645508,-0.564852237701416,-0.3391728401184082
1696958516239006000,11.460005859375,-0.9726219177246094,-0.15591096878051758,-0.49215203523635864
1696958516249019600,11.47001953125,-0.7367591857910156,-0.35161101818084717,-0.2441365122795105
1696958516259033000,11.480033203125,1.902522087097168,-0.26332664489746094,-0.2943350672721863
1696958516269046800,11.490046875,-1.1701269149780273,-0.3517569303512573,-0.9935279488563538
1696958516279060200,11.500060302734376,-1.8320903778076172,-0.2545374631881714,-0.2559018135070801
1696958516289074000,11.510073974609375,2.926812171936035,-0.500645637512207,-0.6616033315658569
1696958516299087600,11.520087646484376,-2.3655028343200684,-0.25003767013549805,-0.9911915063858032
1696958516309101000,11.53010107421875,0.3826026916503906,-0.7393653392791748,-0.9103962779045105
1696958516319114800,11.54011474609375,0.4964580535888672,-0.3339139223098755,-0.6897146701812744
1696958516329128200,11.550128173828124,-0.14033222198486328,0.007549285888671875,-0.7012300491333008
1696958516339142000,11.560141845703125,-0.8045902252197266,-0.8418070673942566,-0.9114667773246765
1696958516349155600,11.570155517578126,1.084885597229004,-0.2593337297439575,-0.5749374032020569
1696958516359169000,11.5801689453125,0.28919410705566406,-0.1984860897064209,-0.7282869815826416
1696958516369182700,11.5901826171875,-1.0068836212158203,0.13915562629699707,-0.550624668598175
1696958516379196200,11.600196044921875,2.321378707885742,-0.7813683748245239,-0.7564878463745117
1696958516389209900,11.6102099609375,-2.123347282409668,0.0857623815536499,-0.748831033706665
1696958516399223600,11.6202236328125,0.3852987289428711,-0.4138096570968628,-0.9427979588508606
1696958516409237000,11.630237060546875,0.5185222625732422,-0.48316240310668945,-0.4429028034210205
1696958516419250700,11.640250732421874,0.6270942687988281,-0.5137497186660767,-0.7693609595298767
1696958516429264100,11.65026416015625,-1.1903314590454102,-0.4512592554092407,-0.8782212734222412
1696958516439277800,11.66027783203125,1.6224899291992188,-0.2519413232803345,-0.23682844638824463
1696958516449291500,11.67029150390625,0.32859134674072266,-0.3786431550979614,-0.17637592554092407
1696958516459305000,11.680304931640626,-0.9195528030395508,-0.5882519483566284,-0.7247598171234131
1696958516469318700,11.690318603515625,0.9751768112182617,-0.30847883224487305,-0.442510724067688
1696958516479332000,11.70033203125,1.470423698425293,-0.479907751083374,-0.18988972902297974
1696958516489345800,11.710345703125,-1.735081672668457,-0.41163814067840576,-0.9559510350227356
1696958516499359500,11.720359375,1.5382070541381836,-0.6401997804641724,-0.21949243545532227
1696958516509373000,11.730373046875,1.1192636489868164,0.19424426555633545,0.02954632043838501
1696958516519386600,11.74038671875,-0.8425502777099609,-0.34834790229797363,-0.19255214929580688
1696958516529400000,11.750400146484376,0.3160228729248047,-0.24534142017364502,0.25431257486343384
1696958516539413800,11.760413818359375,1.6776609420776367,-0.11951112747192383,0.3640401363372803
1696958516549427500,11.770427490234376,-1.012007713317871,-0.27330565452575684,0.03028970956802368
1696958516559441000,11.78044091796875,-0.03467273712158203,-0.47810304164886475,0.22797471284866333
1696958516569454600,11.79045458984375,1.3657464981079102,0.21541285514831543,0.5472851991653442
1696958516579468000,11.800468017578124,-0.8642635345458984,-0.2051990032196045,0.09353649616241455
1696958516589481700,11.810481689453125,-1.0727901458740234,-0.201149582862854,0.188859760761261
1696958516599495400,11.820495361328126,0.9468135833740234,0.1739581823348999,0.4395289421081543
1696958516609508900,11.8305087890625,-1.5979413986206055,-0.6051050424575806,-0.07414668798446655
1696958516619522600,11.8405224609375,-0.9155445098876953,-0.37857866287231445,-0.434242308139801
1696958516629536000,11.850535888671875,0.18604469299316406,0.17732739448547363,0.05070215463638306
1696958516639549700,11.8605498046875,-0.4593238830566406,-0.19211459159851074,-0.13347357511520386
1696958516649563400,11.8705634765625,-2.030611991882324,-0.3566058874130249,-0.4887925088405609
1696958516659576800,11.880576904296875,0.8945350646972656,0.03766632080078125,0.3724243640899658
1696958516669590500,11.890590576171874,-0.5075836181640625,-0.20708394050598145,0.2381688356399536
1696958516679604000,11.90060400390625,-1.342844009399414,-0.17033743858337402,-0.046334683895111084
1696958516689617700,11.91061767578125,1.1837224960327148,-0.3444174528121948,0.5529266595840454
1696958516699631400,11.92063134765625,-0.4103069305419922,0.25709521770477295,0.6397045254707336
1696958516709644800,11.930644775390626,-0.6056928634643555,-0.3469127416610718,0.17557215690612793
1696958516719658500,11.940658447265625,0.2750835418701172,-0.33109211921691895,0.5048512816429138
1696958516729672000,11.950671875,0.6518115997314453,-0.1860651969909668,0.49928492307662964
1696958516739685600,11.960685546875,-1.4764680862426758,-0.26236963272094727,0.13550406694412231
1696958516749699300,11.97069921875,0.8683719635009766,-0.5593119859695435,0.21894776821136475
1696958516759712800,11.980712646484376,0.1305990219116211,0.06997561454772949,0.18932420015335083
1696958516769726500,11.9907265625,-1.0215263366699219,-0.18690955638885498,0.08698177337646484
1696958516779740000,12.000739990234376,0.11815071105957031,-0.4189116954803467,0.09286022186279297
1696958516789753600,12.010753662109375,1.3462839126586914,-0.30467164516448975,0.14898568391799927
1696958516799767300,12.020767333984375,-1.8632779121398926,0.014521479606628418,0.13889753818511963
1696958516809780700,12.03078076171875,1.2281274795532227,-0.3926510810852051,0.26332587003707886
1696958516819794400,12.04079443359375,-0.05980110168457031,-0.19507277011871338,0.5649725794792175
1696958516829807900,12.050807861328124,-0.06430721282958984,-0.11744046211242676,0.33087319135665894
1696958516839821600,12.060821533203125,-0.728306770324707,-0.19933032989501953,0.19128680229187012
1696958516849835300,12.070835205078126,1.4814872741699219,-0.32759320735931396,0.4278849959373474
1696958516859848700,12.0808486328125,-1.135580062866211,0.017956018447875977,0.4129944443702698
1696958516869862400,12.0908623046875,0.5252237319946289,-0.2899801731109619,0.0061836838722229
1696958516879875800,12.100875732421875,-0.24970340728759766,0.08914017677307129,0.4054904580116272
1696958516889889500,12.1108896484375,0.3293647766113281,-0.22539019584655762,0.4424816966056824
1696958516899903200,12.1209033203125,-1.6975526809692383,-0.016626954078674316,0.09322434663772583
1696958516909916700,12.130916748046875,1.379399299621582,-0.176214337348938,0.5828095078468323
1696958516919930400,12.140930419921874,0.009797096252441406,0.05415225028991699,0.4356651306152344
1696958516929943800,12.15094384765625,-1.4957542419433594,-0.2017993927001953,0.08876347541809082
1696958516939957500,12.16095751953125,1.595052719116211,0.010246872901916504,0.33238810300827026
1696958516949971200,12.17097119140625,-0.8264846801757812,-0.2939760684967041,0.20334982872009277
1696958516959984600,12.180984619140625,-1.0445184707641602,-0.3709009885787964,-0.014446616172790527
1696958516969998300,12.190998291015624,0.40630531311035156,-0.270332932472229,0.19911283254623413
1696958516980011800,12.20101171875,1.327763557434082,0.23362624645233154,0.03631091117858887
1696958516990025500,12.211025390625,-1.6618528366088867,-0.4235459566116333,0.04521685838699341
1696958517000039200,12.2210390625,1.4911870956420898,-0.17289531230926514,0.39562755823135376
1696958517010052600,12.231052490234376,0.9673662185668945,-0.15766310691833496,0.4232569932937622
1696958517020066300,12.24106640625,-1.5248117446899414,0.051483988761901855,0.15253835916519165
1696958517030079700,12.251079833984376,2.029489517211914,-0.48573851585388184,0.5243033766746521
1696958517040093400,12.261093505859375,1.2030658721923828,-0.013481616973876953,0.5506154298782349
1696958517050107100,12.271107177734375,-1.031585693359375,-0.0698692798614502,0.3354160785675049
1696958517060120600,12.28112060546875,2.067244529724121,-0.36650919914245605,0.5598275661468506
1696958517070134300,12.29113427734375,0.3375883102416992,0.18956267833709717,0.7552235126495361
1696958517080147700,12.301147705078124,-0.9013566970825195,-0.4334660768508911,0.47066205739974976
1696958517090161400,12.311161376953125,0.9929933547973633,-0.24926042556762695,0.5345874428749084
1696958517100175000,12.321175048828126,0.7565145492553711,0.17092633247375488,0.4750000834465027
1696958517110188500,12.3311884765625,-1.1523056030273438,-0.18651068210601807,0.5831144452095032
1696958517120202200,12.3412021484375,0.7996721267700195,-0.3166825771331787,0.41010212898254395
1696958517130215700,12.351215576171874,-0.2773571014404297,0.5093597173690796,0.23125475645065308
1696958517140229400,12.3612294921875,-1.9017930030822754,-0.22013306617736816,0.3397790193557739
1696958517150243000,12.3712431640625,0.7115345001220703,-0.43560564517974854,-0.005320847034454346
1696958517160256500,12.381256591796875,-0.9336404800415039,0.24708938598632812,0.2092069387435913
1696958517170270200,12.391270263671874,-1.0655860900878906,-0.5662323236465454,-0.059423863887786865
1696958517180283600,12.40128369140625,0.43267059326171875,-0.06113874912261963,-0.10679405927658081
1696958517190297300,12.41129736328125,-1.3885087966918945,0.17213821411132812,0.2532968521118164
1696958517200311000,12.42131103515625,-0.329498291015625,-0.32937324047088623,0.2862016558647156
1696958517210324500,12.431324462890625,1.3967037200927734,-0.09954380989074707,-0.17503583431243896
1696958517220338200,12.441338134765624,-2.47715425491333,-0.2678443193435669,-0.20018011331558228
1696958517230351600,12.4513515625,1.3564329147338867,-0.13186323642730713,-0.07238823175430298
1696958517240365300,12.461365234375,0.43634700775146484,0.2695664167404175,-0.2627969980239868
1696958517250379000,12.47137890625,-2.0686841011047363,-0.4074256420135498,-0.0300137996673584
1696958517260392400,12.481392333984376,2.71530818939209,0.11684286594390869,0.19332152605056763
1696958517270406100,12.49140625,-1.8065977096557617,-0.16692709922790527,-0.41368407011032104
1696958517280419600,12.501419677734376,0.2718791961669922,0.2212531566619873,0.36934894323349
1696958517290433300,12.511433349609375,1.6767454147338867,-0.05169391632080078,0.20596128702163696
1696958517300447000,12.521447021484375,-2.589615821838379,0.013415694236755371,0.17055058479309082
1696958517310460400,12.53146044921875,2.5298852920532227,0.48069167137145996,0.17098963260650635
1696958517320474000,12.54147412109375,-0.9974422454833984,-0.04444301128387451,0.16739583015441895
1696958517330487600,12.551487548828124,0.13268375396728516,0.11732697486877441,0.21169835329055786
1696958517340501200,12.561501220703125,0.0037908554077148438,-0.016703248023986816,-0.1656845211982727
1696958517350515000,12.571514892578126,-0.7796916961669922,0.4517040252685547,-0.25022441148757935
1696958517360528400,12.5815283203125,-0.041385650634765625,0.024620652198791504,0.08546894788742065
1696958517370542000,12.5915419921875,0.01648426055908203,0.16570532321929932,-0.03642988204956055
1696958517380555500,12.601555419921874,-0.9866495132446289,0.017045140266418457,-0.056904375553131104
1696958517390569200,12.6115693359375,0.5644912719726562,0.16460955142974854,0.15541625022888184
1696958517400583000,12.6215830078125,-0.15787410736083984,0.49259746074676514,0.34910446405410767
