time,seconds_elapsed,z,y,x
1696958504923588400,0.14458837890625,0.035019535571336746,-0.02556559257209301,0.031024912372231483
1696958504933603600,0.154603515625,0.021171506494283676,0.0319569893181324,-0.041410934180021286
1696958504943620900,0.164620849609375,0.035019535571336746,0.03302222490310669,0.057655736804008484
1696958504953640000,0.174639892578125,0.03608476743102074,-0.00852186419069767,-0.025432437658309937
1696958504963660800,0.184660888671875,0.031823836266994476,0.01704372838139534,0.021437814459204674
1696958504973683000,0.194682861328125,0.029693370684981346,-0.0053261648863554,-0.006258244160562754
1696958504983706000,0.2047060546875,0.041410934180021286,0.0213046595454216,0.025698747485876083
1696958504993729800,0.214729736328125,0.038215234875679016,-0.01171756349503994,0.00226362026296556
1696958505003753200,0.224753173828125,0.028628136962652206,0.00852186419069767,-0.001997311832383275
1696958505013768700,0.234768798828125,0.03928046673536301,0.0213046595454216,0.027829213067889214
1696958505023782400,0.244782470703125,0.041410934180021286,-0.0031956990715116262,0.010785484686493874
1696958505033795800,0.2547958984375,0.031823836266994476,0.01704372838139534,-0.010519175790250301
1696958505043809300,0.264809326171875,0.03608476743102074,0.02769605815410614,0.034220609813928604
1696958505053823000,0.274822998046875,0.043541401624679565,0.02556559257209301,0.0033288532868027687
1696958505063836400,0.28483642578125,0.042476166039705276,0.01810896210372448,0.011850717477500439
1696958505073850000,0.29485009765625,0.037150003015995026,0.0063913981430232525,0.013981183059513569
1696958505083863600,0.304863525390625,0.043541401624679565,0.03834838792681694,0.007589785382151604
1696958505093877000,0.314876953125,0.052063263952732086,0.01384802907705307,0.019307348877191544
1696958505103890700,0.324890625,0.044606633484363556,0.007456631399691105,-0.0030625448562204838
1696958505113904000,0.334904052734375,0.048867564648389816,0.02236989326775074,0.011850717477500439
1696958505123917800,0.344917724609375,0.061650361865758896,0.01704372838139534,0.027829213067889214
1696958505133931300,0.35493115234375,0.057389430701732635,-0.01917419396340847,-0.019041040912270546
1696958505143944700,0.36494482421875,0.052063263952732086,0.02769605815410614,0.019307348877191544
1696958505153958400,0.37495849609375,0.06378082931041718,0.01491326279938221,0.007589785382151604
1696958505163971800,0.384971923828125,0.06910699605941772,0.0106523297727108,0.0001331541279796511
1696958505173985300,0.3949853515625,0.06484606117010117,-0.007456631399691105,-0.006258244160562754
1696958505183999000,0.4049990234375,0.06910699605941772,0.02023942768573761,0.0011983871227130294
1696958505194012400,0.415012451171875,0.07869409024715424,0.01810896210372448,-0.005193010903894901
1696958505204026000,0.425026123046875,0.07975932210683823,-0.02236989326775074,-0.024367205798625946
1696958505214039600,0.43503955078125,0.07762885838747025,0.01704372838139534,0.004394086077809334
1696958505224053000,0.445052978515625,0.08828118443489075,0.01171756349503994,-0.038215234875679016
1696958505234066700,0.455066650390625,0.09467258304357529,-0.0053261648863554,0.012915950268507004
1696958505244080000,0.465080078125,0.08508548885583878,-0.004260932095348835,-0.050998032093048096
1696958505254093800,0.47509375,0.0936073511838913,0.04687025398015976,0.007589785382151604
1696958505264107300,0.485107177734375,0.1042596846818924,-0.0053261648863554,0.0033288532868027687
1696958505274120700,0.49512060546875,0.09467258304357529,0.02663082629442215,-0.05312849581241608
1696958505284134400,0.505134521484375,0.09573781490325928,0.05858781561255455,0.03848154470324516
1696958505294147800,0.51514794921875,0.10745538026094437,0.01384802907705307,-0.025432437658309937
1696958505304161500,0.52516162109375,0.10852061212062836,0.06284874677658081,0.021437814459204674
1696958505314175000,0.535175048828125,0.09680305421352386,0.03302222490310669,-0.013714875094592571
1696958505324188400,0.5451884765625,0.10958584398031235,0.07137060910463333,0.020372580736875534
1696958505334202000,0.5552021484375,0.1149120107293129,0.05432688444852829,0.021437814459204674
1696958505344215600,0.565215576171875,0.10532491654157639,0.05113118514418602,-0.015845341607928276
1696958505354229200,0.575229248046875,0.1042596846818924,0.08202294260263443,0.021437814459204674
1696958505364242700,0.58524267578125,0.11810771375894547,0.07989247888326645,0.023568280041217804
1696958505374256000,0.595256103515625,0.1149120107293129,0.05432688444852829,-0.0030625448562204838
1696958505384269800,0.605269775390625,0.10852061212062836,0.08628387749195099,0.024633513763546944
1696958505394283300,0.615283203125,0.11597724258899689,0.08308817446231842,0.019307348877191544
1696958505404297000,0.625296875,0.12982527911663055,0.0639139786362648,0.021437814459204674
1696958505414310400,0.635310302734375,0.12343387305736542,0.03728315606713295,0.020372580736875534
1696958505424323800,0.64532373046875,0.12023817747831345,0.05645735189318657,0.020372580736875534
1696958505434337500,0.655337646484375,0.14260807633399963,0.03621792420744896,0.04593817517161369
1696958505444351000,0.66535107421875,0.14047759771347046,-0.0021304660476744175,0.004394086077809334
1696958505454364700,0.67536474609375,0.1351514458656311,0.0213046595454216,0.022503048181533813
1696958505464378000,0.685378173828125,0.14473854005336761,0.01810896210372448,0.023568280041217804
1696958505474391600,0.6953916015625,0.15326039493083954,0.0159784946590662,0.019307348877191544
1696958505484405200,0.7054052734375,0.14899946749210358,-0.0106523297727108,0.004394086077809334
1696958505494418700,0.715418701171875,0.15006470680236816,0.05539211630821228,0.024633513763546944
1696958505504432400,0.725432373046875,0.1575213372707367,0.04047885537147522,0.0011983871227130294
1696958505514445800,0.73544580078125,0.1585865616798401,0.02023942768573761,0.005459319334477186
1696958505524459300,0.745459228515625,0.1585865616798401,0.04047885537147522,0.013981183059513569
1696958505534473000,0.755472900390625,0.1585865616798401,0.06497921794652939,-0.005193010903894901
1696958505544486400,0.765486328125,0.1681736707687378,0.05965305119752884,0.015046416781842709
1696958505554500000,0.7755,0.1692388951778412,0.02343512699007988,-0.0030625448562204838
1696958505564513500,0.785513427734375,0.1681736707687378,0.05432688444852829,-0.0030625448562204838
1696958505574527000,0.79552685546875,0.18415215611457825,0.03621792420744896,0.020372580736875534
1696958505584540700,0.805540771484375,0.18521739542484283,0,-0.021171506494283676
1696958505594554000,0.81555419921875,0.17669552564620972,0.03515268862247467,0.006524552125483751
1696958505604567800,0.82556787109375,0.18734785914421082,0.01491326279938221,-0.0030625448562204838
1696958505614581200,0.835581298828125,0.2001306563615799,0.01171756349503994,0.010785484686493874
1696958505624595000,0.845594970703125,0.19160878658294678,-0.01171756349503994,-0.029693370684981346
1696958505634608400,0.8556083984375,0.19373925030231476,0.02769605815410614,0.027829213067889214
1696958505644622000,0.8656220703125,0.20439158380031586,-0.004260932095348835,-0.005193010903894901
1696958505654635500,0.875635498046875,0.2001306563615799,0.01810896210372448,-0.004127778112888336
1696958505664649200,0.885649169921875,0.19160878658294678,0.0213046595454216,0.013981183059513569
1696958505674663000,0.895662841796875,0.19693495333194733,0.03302222490310669,-0.001997311832383275
1696958505684676400,0.90567626953125,0.20439158380031586,0.05539211630821228,0.03954677656292915
1696958505694690000,0.91568994140625,0.19586972892284393,-0.0031956990715116262,-0.023301972076296806
1696958505704703500,0.925703369140625,0.19160878658294678,0.05858781561255455,0.029959678649902344
1696958505714717200,0.93571728515625,0.20652204751968384,0.01704372838139534,0.027829213067889214
1696958505724731000,0.94573095703125,0.2001306563615799,-0.02450035884976387,-0.016910573467612267
1696958505734744300,0.955744384765625,0.1884130984544754,0.02556559257209301,0.027829213067889214
1696958505744758000,0.965758056640625,0.2001306563615799,-0.0319569893181324,0.005459319334477186
1696958505754771500,0.975771484375,0.20439158380031586,-0.0031956990715116262,0.015046416781842709
1696958505764785200,0.98578515625,0.19480448961257935,-0.05965305119752884,-0.008388710208237171
1696958505774798800,0.995798828125,0.19480448961257935,-0.01491326279938221,0.026763979345560074
1696958505784812300,1.005812255859375,0.20226112008094788,-0.0319569893181324,0.009720250964164734
1696958505794826000,1.015825927734375,0.19267402589321136,-0.02236989326775074,-0.011584409512579441
1696958505804839400,1.02583935546875,0.18521739542484283,-0.00852186419069767,0.028894444927573204
1696958505814853000,1.03585302734375,0.19054356217384338,0.007456631399691105,-0.0009320789249613881
1696958505824866800,1.04586669921875,0.19373925030231476,0.0063913981430232525,0.025698747485876083
1696958505834880300,1.05588037109375,0.18628261983394623,-0.007456631399691105,-0.0009320789249613881
1696958505844894000,1.06589404296875,0.18521739542484283,0.03515268862247467,0.015046416781842709
1696958505854907400,1.075907470703125,0.19373925030231476,0.02769605815410614,0.031024912372231483
1696958505864921000,1.085921142578125,0.18734785914421082,0.01171756349503994,-0.008388710208237171
1696958505874934800,1.095934814453125,0.18095645308494568,0.04154408723115921,0.028894444927573204
1696958505884948200,1.1059482421875,0.19160878658294678,0.03621792420744896,0.011850717477500439
1696958505894962000,1.1159619140625,0.19693495333194733,0.0010652330238372087,0.010785484686493874
1696958505904975400,1.125975341796875,0.18521739542484283,0.0106523297727108,-0.0030625448562204838
1696958505914989000,1.135989013671875,0.19054356217384338,0.01384802907705307,0.020372580736875534
1696958505925002800,1.146002685546875,0.20439158380031586,-0.012782796286046505,0.005459319334477186
1696958505935016200,1.15601611328125,0.19160878658294678,-0.0053261648863554,-0.010519175790250301
1696958505945030000,1.16602978515625,0.1884130984544754,-0.0031956990715116262,0.010785484686493874
1696958505955043300,1.176043212890625,0.19800019264221191,0.004260932095348835,-0.009453942999243736
1696958505965057000,1.18605712890625,0.1990654170513153,0.01171756349503994,0.013981183059513569
1696958505975070700,1.19607080078125,0.1884130984544754,-0.02876129187643528,-0.025432437658309937
1696958505985084200,1.206084228515625,0.19373925030231476,0.03834838792681694,0.033155377954244614
1696958505995097900,1.216097900390625,0.19800019264221191,-0.0106523297727108,-0.011584409512579441
1696958506005111300,1.226111328125,0.1894783228635788,0.02556559257209301,0.004394086077809334
1696958506015125000,1.236125,0.18734785914421082,0.01171756349503994,0.017176883295178413
1696958506025138700,1.246138671875,0.19586972892284393,0.02663082629442215,0.012915950268507004
1696958506035152100,1.256152099609375,0.19160878658294678,0.0319569893181324,0.008655018173158169
1696958506045165800,1.266165771484375,0.18202169239521027,0.0063913981430232525,0.021437814459204674
1696958506055179300,1.27617919921875,0.18628261983394623,0.06284874677658081,0.004394086077809334
1696958506065193000,1.28619287109375,0.19267402589321136,0.05432688444852829,0.053394805639982224
1696958506075206700,1.29620654296875,0.18202169239521027,0.0021304660476744175,-0.03928046673536301
1696958506085220000,1.30622021484375,0.17989122867584229,0.0639139786362648,0.07363422960042953
1696958506095233800,1.31623388671875,0.1884130984544754,0.03089175745844841,-0.021171506494283676
1696958506105247200,1.326247314453125,0.18521739542484283,0.03089175745844841,0.033155377954244614
1696958506115261000,1.336260986328125,0.1777607649564743,0.01171756349503994,0.005459319334477186
1696958506125274600,1.346274658203125,0.18308693170547485,0.03089175745844841,0.010785484686493874
1696958506135288000,1.3562880859375,0.1884130984544754,0.02236989326775074,0.012915950268507004
1696958506145301800,1.3663017578125,0.17989122867584229,-0.01917419396340847,-0.015845341607928276
1696958506155315200,1.376315185546875,0.1777607649564743,0.02769605815410614,0.025698747485876083
1696958506165329000,1.386328857421875,0.17989122867584229,0.0213046595454216,-0.017975807189941406
1696958506175342300,1.39634228515625,0.18095645308494568,0.0021304660476744175,0.011850717477500439
1696958506185356000,1.40635595703125,0.17456506192684174,-0.0053261648863554,-0.008388710208237171
1696958506195369500,1.416369384765625,0.1777607649564743,0.02556559257209301,0.005459319334477186
1696958506205383200,1.426383056640625,0.18202169239521027,-0.004260932095348835,0.010785484686493874
1696958506215396600,1.436396728515625,0.17669552564620972,-0.0010652330238372087,-0.005193010903894901
1696958506225410000,1.44641015625,0.17669552564620972,-0.0010652330238372087,0.023568280041217804
1696958506235423700,1.456423828125,0.18521739542484283,-0.0053261648863554,-0.009453942999243736
1696958506245437200,1.466437255859375,0.18415215611457825,-0.03089175745844841,0.016111649572849274
1696958506255451000,1.476450927734375,0.17669552564620972,-0.0213046595454216,-0.035019535571336746
1696958506265464300,1.48646435546875,0.19267402589321136,-0.012782796286046505,-0.005193010903894901
1696958506275477800,1.496477783203125,0.19160878658294678,-0.05113118514418602,-0.07336792349815369
1696958506285491500,1.506491455078125,0.18308693170547485,0.06071828305721283,-0.08828118443489075
1696958506295505000,1.5165048828125,0.17989122867584229,0.13315412402153015,0.023568280041217804
1696958506305518600,1.5265185546875,0.19054356217384338,-0.15445879101753235,-0.04673709720373154
1696958506315532000,1.536531982421875,0.20439158380031586,0.03302222490310669,-0.027562905102968216
1696958506325545500,1.54654541015625,0.1585865616798401,0.05965305119752884,-0.0723026916384697
1696958506335559200,1.55655908203125,0.12023817747831345,0.09480573982000351,-0.016910573467612267
1696958506345572600,1.566572509765625,0.17456506192684174,-0.04367455467581749,0.18122276663780212
1696958506355586300,1.57658642578125,0.1894783228635788,-0.3398093283176422,-0.33115431666374207
1696958506365599700,1.586599853515625,0.19800019264221191,0.04900071769952774,0.2813546657562256
1696958506375613200,1.59661328125,0.2097177505493164,-0.06071828305721283,-0.11917294561862946
1696958506385627000,1.606626953125,0.18628261983394623,0.0021304660476744175,-0.004127778112888336
1696958506395640300,1.616640380859375,0.18734785914421082,-0.0852186381816864,0.12156971544027328
1696958506405654000,1.626654052734375,0.16391272842884064,0.11930610239505768,-0.0936073511838913
1696958506415667500,1.63666748046875,0.21504391729831696,-0.03302222490310669,0.10985215753316879
1696958506425681000,1.646680908203125,0.22250054776668549,-0.08415340632200241,-0.008388710208237171
1696958506435694600,1.656694580078125,0.21291345357894897,0.02769605815410614,0.054460037499666214
1696958506445708000,1.6667080078125,0.19693495333194733,-0.08734910935163498,-0.0030625448562204838
1696958506455721700,1.6767216796875,0.20226112008094788,0.04367455467581749,0.13861344754695892
1696958506465735200,1.686735107421875,0.1990654170513153,0.0106523297727108,-0.009453942999243736
1696958506475748600,1.69674853515625,0.20865251123905182,0.01704372838139534,0.053394805639982224
1696958506485762300,1.70676220703125,0.2203700840473175,-0.02769605815410614,0.044872939586639404
1696958506495775700,1.716775634765625,0.21717438101768494,0.01810896210372448,0.033155377954244614
1696958506505789400,1.72678955078125,0.21823962032794952,0.01704372838139534,0.04593817517161369
1696958506515803000,1.736802978515625,0.22676147520542145,0.0053261648863554,0.08641702681779861
1696958506525816300,1.74681640625,0.2214353084564209,0.02556559257209301,0.00226362026296556
1696958506535830000,1.756830078125,0.2214353084564209,0.04793548583984375,0.07150376588106155
1696958506545843500,1.766843505859375,0.23421810567378998,0.0031956990715116262,0.036351077258586884
1696958506555857200,1.776857177734375,0.23315288126468658,0.04580501839518547,0.023568280041217804
1696958506565870600,1.78687060546875,0.23528334498405457,0.009587096981704235,0.026763979345560074
1696958506575884300,1.79688427734375,0.22569625079631805,0.04900071769952774,0.054460037499666214
1696958506585898000,1.80689794921875,0.23847904801368713,0.06604444980621338,0.023568280041217804
1696958506595911400,1.816911376953125,0.24593567848205566,0.02663082629442215,0.047003407031297684
1696958506605925000,1.826925048828125,0.2416747361421585,0.06710968166589737,0.008655018173158169
1696958506615938600,1.8369384765625,0.251261830329895,0.06604444980621338,0.040612008422613144
1696958506625952300,1.8469521484375,0.2608489394187927,0.07882724702358246,0.023568280041217804
1696958506635966000,1.856966064453125,0.25765323638916016,0.04900071769952774,0.034220609813928604
1696958506645979400,1.8669794921875,0.2523270845413208,0.09800143539905548,0.008655018173158169
1696958506655993000,1.8769931640625,0.2661750912666321,0.12037133425474167,0.05232957378029823
1696958506666006500,1.887006591796875,0.26830556988716125,0.0852186381816864,0.004394086077809334
1696958506676020200,1.897020263671875,0.27043604850769043,0.08308817446231842,0.029959678649902344
1696958506686034000,1.907033935546875,0.2715012729167938,0.11611039936542511,0.031024912372231483
1696958506696047400,1.91704736328125,0.2821536064147949,0.1065233051776886,0.018242115154862404
1696958506706061000,1.92706103515625,0.28854498267173767,0.07669677585363388,0.03209014609456062
1696958506716074800,1.93707470703125,0.2853493094444275,0.07350108027458191,0.008655018173158169
1696958506726088200,1.947088134765625,0.29067546129226685,0.10439283400774002,0.034220609813928604
1696958506736102000,1.957101806640625,0.3045234978199005,0.06178351491689682,0.037416309118270874
1696958506746115300,1.967115234375,0.30239301919937134,0,0.00226362026296556
1696958506756129000,1.97712890625,0.297066867351532,0.08095771074295044,0.06511236727237701
1696958506766142700,1.987142822265625,0.31411057710647583,0.04473978653550148,0.03209014609456062
1696958506776156200,1.99715625,0.30984964966773987,0.02236989326775074,0.017176883295178413
1696958506786169900,2.007169921875,0.3055887222290039,0.05006595328450203,0.054460037499666214
1696958506796183300,2.017183349609375,0.3087844252586365,0.06924014538526535,0.016111649572849274
1696958506806197000,2.027197021484375,0.32050198316574097,0.07030537724494934,0.07363422960042953
1696958506816210700,2.037210693359375,0.30984964966773987,-0.0031956990715116262,-0.007323476951569319
1696958506826224000,2.04722412109375,0.31091487407684326,0.08095771074295044,0.08428656309843063
1696958506836237800,2.05723779296875,0.3194367587566376,0.04473978653550148,-0.001997311832383275
1696958506846251300,2.067251220703125,0.3194367587566376,0.05858781561255455,0.057655736804008484
1696958506856265000,2.077264892578125,0.31198012828826904,0.04473978653550148,0.028894444927573204
1696958506866278700,2.087278564453125,0.31091487407684326,0.1501978635787964,0.067242830991745
1696958506876292000,2.0972919921875,0.31304535269737244,0.15552401542663574,0.07469946891069412
1696958506886305800,2.107305908203125,0.2981320917606354,0.1906767040491104,0.10133028775453568
1696958506896319200,2.1173193359375,0.2832188308238983,0.16830681264400482,0.05232957378029823
1696958506906333000,2.1273330078125,0.2821536064147949,0.08202294260263443,0.057655736804008484
1696958506916346600,2.1373466796875,0.25658801198005676,0.09906667470932007,0.13222205638885498
1696958506926360000,2.147360107421875,0.2427399754524231,-0.21091613173484802,-0.007323476951569319
1696958506936373800,2.157373779296875,0.34500235319137573,-0.2535254657268524,0.05978620424866676
1696958506946387200,2.16738720703125,0.3183715343475342,0.0532616525888443,0.14393961429595947
1696958506956401000,2.17740087890625,0.3077192008495331,-0.0159784946590662,-0.10958584398031235
1696958506966414600,2.18741455078125,0.28854498267173767,0.11291470378637314,0.15885287523269653
1696958506976428000,2.197427978515625,0.3066539466381073,0.13102366030216217,-0.11065108329057693
1696958506986441700,2.207441650390625,0.32156720757484436,0.13208889961242676,0.08109086751937866
1696958506996455200,2.217455078125,0.2960016131401062,-0.06497921794652939,-0.045671865344047546
1696958507006468900,2.22746875,0.30239301919937134,-0.0532616525888443,-0.03288906812667847
1696958507016482600,2.237482666015625,0.32263246178627014,0.13208889961242676,0.041677240282297134
1696958507026496000,2.24749609375,0.32369768619537354,-0.0031956990715116262,0.007589785382151604
1696958507036509700,2.257509765625,0.3077192008495331,-0.06178351491689682,-0.1031944528222084
1696958507046523100,2.267523193359375,0.3077192008495331,0.08095771074295044,0.040612008422613144
1696958507056536800,2.277536865234375,0.32369768619537354,0.02876129187643528,-0.044606633484363556
1696958507066550500,2.287550537109375,0.32263246178627014,-0.07030537724494934,-0.013714875094592571
1696958507076564000,2.29756396484375,0.2960016131401062,0.03515268862247467,-0.06484606117010117
1696958507086577700,2.30757763671875,0.3066539466381073,0.07243584841489792,0.021437814459204674
1696958507096591000,2.317591064453125,0.3151758313179016,0.0063913981430232525,-0.07336792349815369
1696958507106604800,2.327604736328125,0.30984964966773987,-0.0106523297727108,-0.015845341607928276
1696958507116618500,2.337618408203125,0.2949363887310028,0.05752258375287056,-0.07656362652778625
1696958507126632000,2.3476318359375,0.30984964966773987,0.0319569893181324,0.017176883295178413
1696958507136645600,2.357645751953125,0.30345824360847473,-0.009587096981704235,-0.08082455396652222
1696958507146659000,2.3676591796875,0.2981320917606354,0.02556559257209301,-0.027562905102968216
1696958507156672800,2.3776728515625,0.2960016131401062,0.03515268862247467,-0.06271559745073318
1696958507166686500,2.3876865234375,0.3055887222290039,0.02450035884976387,-0.017975807189941406
1696958507176700000,2.397699951171875,0.30132779479026794,-0.0213046595454216,-0.06697652488946915
1696958507186713600,2.407713623046875,0.2949363887310028,0.05113118514418602,-0.029693370684981346
1696958507196727000,2.41772705078125,0.30345824360847473,0.01917419396340847,-0.042476166039705276
1696958507206740700,2.42774072265625,0.30345824360847473,0.02023942768573761,-0.031823836266994476
1696958507216754400,2.43775439453125,0.297066867351532,-0.007456631399691105,-0.054193731397390366
1696958507226768000,2.447767822265625,0.29067546129226685,0.06710968166589737,-0.044606633484363556
1696958507236781600,2.457781494140625,0.3087844252586365,0.007456631399691105,-0.012649642303586006
1696958507246795000,2.467794921875,0.30132779479026794,-0.0031956990715116262,-0.058454662561416626
1696958507256808700,2.47780859375,0.2949363887310028,0.03834838792681694,-0.013714875094592571
1696958507266822400,2.487822509765625,0.30345824360847473,0.02876129187643528,-0.029693370684981346
1696958507276835800,2.4978359375,0.31411057710647583,0.004260932095348835,-0.013714875094592571
1696958507286849500,2.507849609375,0.3045234978199005,-0.01810896210372448,-0.040345702320337296
1696958507296863000,2.517863037109375,0.2949363887310028,0.04473978653550148,-0.0030625448562204838
1696958507306876700,2.527876708984375,0.31198012828826904,0.0213046595454216,-0.005193010903894901
1696958507316890400,2.537890380859375,0.31091487407684326,-0.0031956990715116262,-0.010519175790250301
1696958507326903800,2.54790380859375,0.297066867351532,0.01704372838139534,-0.011584409512579441
1696958507336917500,2.55791748046875,0.30239301919937134,0.04473978653550148,-0.005193010903894901
1696958507346931000,2.567930908203125,0.3173062801361084,0.0159784946590662,0.010785484686493874
1696958507356944600,2.577944580078125,0.30984964966773987,-0.04047885537147522,-0.037150003015995026
1696958507366958300,2.587958251953125,0.2981320917606354,0.03621792420744896,0.013981183059513569
1696958507376971800,2.5979716796875,0.3087844252586365,0.01384802907705307,-0.001997311832383275
1696958507386985500,2.6079853515625,0.30984964966773987,-0.01491326279938221,-0.015845341607928276
1696958507396999000,2.6179990234375,0.30132779479026794,0.0213046595454216,0.004394086077809334
1696958507407012600,2.6280126953125,0.297066867351532,0.01810896210372448,-0.015845341607928276
1696958507417026300,2.6380263671875,0.31198012828826904,0.0319569893181324,0.020372580736875534
1696958507427039700,2.648039794921875,0.3055887222290039,-0.01704372838139534,-0.008388710208237171
1696958507437053400,2.658053466796875,0.2949363887310028,0.05965305119752884,-0.014780107885599136
1696958507447067000,2.66806689453125,0.30345824360847473,0.02556559257209301,0.03209014609456062
1696958507457080600,2.67808056640625,0.3077192008495331,0.01917419396340847,-0.026497671380639076
1696958507467094300,2.68809423828125,0.3055887222290039,0.03408745676279068,0.023568280041217804
1696958507477107700,2.698107666015625,0.2960016131401062,0.0213046595454216,-0.043541401624679565
1696958507487121400,2.708121337890625,0.30984964966773987,0.0958709716796875,0.05232957378029823
1696958507497134800,2.718134765625,0.3087844252586365,-0.03302222490310669,-0.030758604407310486
1696958507507148500,2.7281484375,0.30132779479026794,0.07030537724494934,0.0033288532868027687
1696958507517162200,2.738162353515625,0.3055887222290039,0.03728315606713295,0.020372580736875534
1696958507527175700,2.74817578125,0.3087844252586365,0.08415340632200241,-0.043541401624679565
1696958507537189400,2.758189453125,0.3183715343475342,-0.01810896210372448,0.04913387447595596
1696958507547202800,2.768202880859375,0.3055887222290039,0.06178351491689682,-0.055258963257074356
1696958507557216500,2.778216552734375,0.31304535269737244,0.08308817446231842,0.051264338195323944
1696958507567230200,2.788230224609375,0.316241055727005,0.04793548583984375,-0.045671865344047546
1696958507577243600,2.79824365234375,0.3194367587566376,0.02663082629442215,0.044872939586639404
1696958507587257300,2.80825732421875,0.3077192008495331,0.08415340632200241,-0.05632419511675835
1696958507597270800,2.818270751953125,0.32050198316574097,0.08734910935163498,0.06404713541269302
1696958507607284500,2.828284423828125,0.32156720757484436,0.03089175745844841,-0.06697652488946915
1696958507617298200,2.838298095703125,0.3194367587566376,0.07669677585363388,0.060851436108350754
1696958507627311600,2.8483115234375,0.316241055727005,0.05539211630821228,-0.060585130006074905
1696958507637325300,2.8583251953125,0.3279586136341095,0.11930610239505768,0.061916667968034744
1696958507647338800,2.8683388671875,0.32369768619537354,0.0031956990715116262,-0.052063263952732086
1696958507657352400,2.8783525390625,0.316241055727005,0.1374150663614273,0.027829213067889214
1696958507667366100,2.8883662109375,0.3279586136341095,0.04580501839518547,0.009720250964164734
1696958507677379600,2.898379638671875,0.3290238380432129,0.07669677585363388,-0.014780107885599136
1696958507687393300,2.908393310546875,0.32369768619537354,0.04154408723115921,0.036351077258586884
1696958507697406700,2.91840673828125,0.3173062801361084,0.1065233051776886,-0.017975807189941406
1696958507707420400,2.92842041015625,0.33328479528427124,0.06817491352558136,0.053394805639982224
1696958507717434000,2.93843408203125,0.3279586136341095,0.01810896210372448,-0.015845341607928276
1696958507727447600,2.948447509765625,0.3194367587566376,0.09480573982000351,0.047003407031297684
1696958507737461200,2.958461181640625,0.32263246178627014,0.06284874677658081,0.005459319334477186
1696958507747474700,2.968474609375,0.33328479528427124,0.05965305119752884,0.058720968663692474
1696958507757488400,2.97848828125,0.32263246178627014,0.02236989326775074,-0.004127778112888336
1696958507767502000,2.988502197265625,0.31091487407684326,0.0852186381816864,0.05659050494432449
1696958507777515500,2.998515625,0.32156720757484436,0.05539211630821228,0.023568280041217804
1696958507787529200,3.008529296875,0.3258281648159027,0.0532616525888443,0.0555252730846405
1696958507797542700,3.018542724609375,0.30984964966773987,0.03834838792681694,0.011850717477500439
1696958507807556400,3.028556396484375,0.3077192008495331,0.10226237028837204,0.0555252730846405
1696958507817570000,3.038570068359375,0.32369768619537354,0.05113118514418602,0.0555252730846405
1696958507827583500,3.04858349609375,0.3151758313179016,0.02982652559876442,0.020372580736875534
1696958507837597200,3.05859716796875,0.3066539466381073,0.04900071769952774,0.066177599132061
1696958507847610600,3.068610595703125,0.3066539466381073,0.07776200771331787,0.031024912372231483
1696958507857624300,3.078624267578125,0.316241055727005,0.02343512699007988,0.060851436108350754
1696958507867638000,3.088637939453125,0.31091487407684326,0.01917419396340847,0.03848154470324516
1696958507877651500,3.0986513671875,0.30132779479026794,0.03728315606713295,0.04913387447595596
1696958507887665200,3.1086650390625,0.30984964966773987,0.04154408723115921,0.048068638890981674
1696958507897678600,3.1186787109375,0.3151758313179016,-0.009587096981704235,0.06830807030200958
1696958507907692300,3.1286923828125,0.30345824360847473,0.03302222490310669,0.016111649572849274
1696958507917706000,3.1387060546875,0.30345824360847473,0.03834838792681694,0.10346075892448425
1696958507927719400,3.148719482421875,0.3066539466381073,0.03728315606713295,-0.008388710208237171
1696958507937733000,3.158733154296875,0.31304535269737244,0.04687025398015976,0.12263495475053787
1696958507947746600,3.16874658203125,0.2981320917606354,0.02023942768573761,-0.025432437658309937
1696958507957760300,3.17876025390625,0.30132779479026794,0.14593692123889923,0.11411308497190475
1696958507967774000,3.18877392578125,0.31304535269737244,0.009587096981704235,0.034220609813928604
1696958507977787400,3.198787353515625,0.3087844252586365,0.07989247888326645,0.044872939586639404
1696958507987801000,3.208801025390625,0.3055887222290039,0.04367455467581749,0.07576470077037811
1696958507997814500,3.218814453125,0.30345824360847473,0.12037133425474167,-0.012649642303586006
1696958508007828200,3.228828125,0.3183715343475342,0.04687025398015976,0.12263495475053787
1696958508017842000,3.238842041015625,0.30984964966773987,0.007456631399691105,-0.04673709720373154
1696958508027855400,3.24885546875,0.31091487407684326,0.09480573982000351,0.0991998240351677
1696958508037869000,3.258869140625,0.316241055727005,0.05006595328450203,-0.028628136962652206
1696958508047882500,3.268882568359375,0.3258281648159027,0.03728315606713295,0.07043853402137756
1696958508057896200,3.278896240234375,0.3194367587566376,0.0010652330238372087,-0.028628136962652206
1696958508067910000,3.288909912109375,0.31411057710647583,0.07563154399394989,0.041677240282297134
1696958508077923300,3.29892333984375,0.3183715343475342,0.04687025398015976,-0.016910573467612267
1696958508087937000,3.30893701171875,0.32050198316574097,0.04580501839518547,0.017176883295178413
1696958508097950500,3.318950439453125,0.316241055727005,0.02876129187643528,-0.012649642303586006
1696958508107964200,3.328964111328125,0.31091487407684326,0.0852186381816864,-0.010519175790250301
1696958508117977900,3.338977783203125,0.32156720757484436,0.05645735189318657,0.026763979345560074
1696958508127991300,3.3489912109375,0.3183715343475342,0,-0.03288906812667847
1696958508138005000,3.3590048828125,0.31198012828826904,0.05965305119752884,0.015046416781842709
1696958508148018400,3.369018310546875,0.3194367587566376,0.00852186419069767,0.008655018173158169
1696958508158032100,3.3790322265625,0.31411057710647583,0.03089175745844841,-0.007323476951569319
1696958508168045800,3.3890458984375,0.3077192008495331,0.02663082629442215,0.029959678649902344
1696958508178059300,3.399059326171875,0.3077192008495331,0.01917419396340847,-0.011584409512579441
1696958508188073000,3.409072998046875,0.3173062801361084,0.05006595328450203,0.061916667968034744
1696958508198086400,3.41908642578125,0.3055887222290039,0.0031956990715116262,-0.008388710208237171
1696958508208100000,3.42910009765625,0.2960016131401062,0.07669677585363388,0.03848154470324516
1696958508218113800,3.43911376953125,0.3087844252586365,0.01917419396340847,0.04913387447595596
1696958508228127200,3.449127197265625,0.31304535269737244,0.04900071769952774,0.031024912372231483
1696958508238141000,3.459140869140625,0.3055887222290039,0.004260932095348835,0.04913387447595596
1696958508248154400,3.469154296875,0.28961023688316345,0.06924014538526535,0.016111649572849274
1696958508258168000,3.47916796875,0.31091487407684326,0.06497921794652939,0.0778951644897461
1696958508268181800,3.489181640625,0.30984964966773987,-0.0426093190908432,0.047003407031297684
1696958508278195200,3.4991953125,0.30026257038116455,0.05432688444852829,0.036351077258586884
1696958508288209000,3.509208984375,0.29919731616973877,0.05539211630821228,0.07469946891069412
1696958508298222300,3.519222412109375,0.31411057710647583,0.009587096981704235,0.050199106335639954
1696958508308236000,3.529236083984375,0.31304535269737244,-0.02663082629442215,0.0555252730846405
1696958508318249700,3.539249755859375,0.30345824360847473,0.02343512699007988,0.047003407031297684
1696958508328263200,3.54926318359375,0.3087844252586365,0.01810896210372448,0.061916667968034744
1696958508338276900,3.55927685546875,0.3151758313179016,-0.00852186419069767,0.057655736804008484
1696958508348290300,3.569290283203125,0.30984964966773987,-0.01171756349503994,0.037416309118270874
1696958508358304000,3.579303955078125,0.30345824360847473,0.02450035884976387,0.050199106335639954
1696958508368317700,3.589317626953125,0.31304535269737244,0.03408745676279068,0.041677240282297134
1696958508378331100,3.5993310546875,0.3151758313179016,-0.012782796286046505,0.04593817517161369
1696958508388344800,3.6093447265625,0.31091487407684326,-0.0106523297727108,0.016111649572849274
1696958508398358300,3.619358154296875,0.30984964966773987,0.03408745676279068,0.050199106335639954
1696958508408372000,3.6293720703125,0.3151758313179016,0.012782796286046505,0.007589785382151604
1696958508418385700,3.6393857421875,0.3183715343475342,-0.01917419396340847,0.041677240282297134
1696958508428399000,3.649399169921875,0.30984964966773987,0.0053261648863554,-0.011584409512579441
1696958508438412800,3.659412841796875,0.3151758313179016,0.03941362351179123,0.028894444927573204
1696958508448426200,3.66942626953125,0.32156720757484436,-0.0106523297727108,0.015046416781842709
1696958508458440000,3.67943994140625,0.316241055727005,0.0053261648863554,-0.009453942999243736
1696958508468453600,3.68945361328125,0.31198012828826904,0.03408745676279068,0.015046416781842709
1696958508478467000,3.699467041015625,0.3183715343475342,0.02876129187643528,0.0001331541279796511
1696958508488480800,3.709480712890625,0.3183715343475342,0.03408745676279068,-0.005193010903894901
1696958508498494200,3.719494140625,0.3151758313179016,0.012782796286046505,0.0033288532868027687
1696958508508508000,3.7295078125,0.31091487407684326,0.06284874677658081,-0.021171506494283676
1696958508518521600,3.739521484375,0.3194367587566376,0.04580501839518547,0.020372580736875534
1696958508528535000,3.74953515625,0.3183715343475342,-0.0031956990715116262,-0.033954303711652756
1696958508538548700,3.759548828125,0.3077192008495331,0.0532616525888443,0.0011983871227130294
1696958508548562200,3.769562255859375,0.31198012828826904,0.04047885537147522,-0.011584409512579441
1696958508558575900,3.779575927734375,0.3194367587566376,0.02343512699007988,-0.006258244160562754
1696958508568589600,3.789589599609375,0.31091487407684326,0.0053261648863554,-0.028628136962652206
1696958508578603000,3.79960302734375,0.30345824360847473,0.05965305119752884,0.00226362026296556
1696958508588616700,3.80961669921875,0.3183715343475342,0.04580501839518547,-0.015845341607928276
1696958508598630100,3.819630126953125,0.31304535269737244,0,-0.001997311832383275
1696958508608643800,3.829643798828125,0.29919731616973877,0.08308817446231842,-0.03608476743102074
1696958508618657500,3.839657470703125,0.3077192008495331,0.06604444980621338,0.018242115154862404
1696958508628671000,3.8496708984375,0.31198012828826904,0.0532616525888443,-0.03608476743102074
1696958508638684700,3.8596845703125,0.3055887222290039,0.03089175745844841,0.0033288532868027687
1696958508648698000,3.869697998046875,0.2938711643218994,0.1171756312251091,-0.031823836266994476
1696958508658711800,3.8797119140625,0.3087844252586365,0.08841434121131897,0.015046416781842709
1696958508668725500,3.8897255859375,0.3055887222290039,0.06284874677658081,-0.044606633484363556
1696958508678739000,3.899739013671875,0.30239301919937134,0.08947957307100296,0.021437814459204674
1696958508688752600,3.909752685546875,0.2981320917606354,0.10545806586742401,-0.04993279650807381
1696958508698766000,3.91976611328125,0.31304535269737244,0.11291470378637314,0.025698747485876083
1696958508708779800,3.92977978515625,0.31091487407684326,0.01917419396340847,-0.043541401624679565
1696958508718793500,3.93979345703125,0.30026257038116455,0.11930610239505768,-0.006258244160562754
1696958508728807000,3.949806884765625,0.3066539466381073,0.07350108027458191,-0.013714875094592571
1696958508738820600,3.959820556640625,0.3173062801361084,0.05858781561255455,-0.009453942999243736
1696958508748834000,3.969833984375,0.3087844252586365,0.01810896210372448,-0.027562905102968216
1696958508758847700,3.97984765625,0.30026257038116455,0.09480573982000351,-0.001997311832383275
1696958508768861400,3.989861328125,0.316241055727005,0.05752258375287056,0.010785484686493874
1696958508778875000,3.999875,0.31198012828826904,0.01917419396340847,-0.020106272771954536
1696958508788888600,4.009888671875,0.30345824360847473,0.03515268862247467,0.013981183059513569
1696958508798902000,4.019902099609375,0.3045234978199005,0.05006595328450203,-0.012649642303586006
1696958508808915700,4.029915771484375,0.31198012828826904,0.02556559257209301,0.03209014609456062
1696958508818929400,4.039929443359375,0.29919731616973877,-0.0159784946590662,-0.022236740216612816
1696958508828942800,4.04994287109375,0.28961023688316345,0.05858781561255455,0.027829213067889214
1696958508838956500,4.05995654296875,0.30026257038116455,0.02769605815410614,0.007589785382151604
1696958508848970000,4.069969970703125,0.2981320917606354,0.007456631399691105,0.020372580736875534
1696958508858983700,4.079983642578125,0.2842840552330017,0.01704372838139534,0.004394086077809334
1696958508868997400,4.089997314453125,0.2832188308238983,0.04580501839518547,0.037416309118270874
1696958508879010800,4.1000107421875,0.28854498267173767,0.02450035884976387,0.017176883295178413
1696958508889024500,4.1100244140625,0.27789267897605896,-0.0010652330238372087,0.019307348877191544
1696958508899038000,4.120037841796875,0.2661750912666321,0.04687025398015976,0.013981183059513569
1696958508909051600,4.1300517578125,0.2768274247646332,0.04473978653550148,0.036351077258586884
1696958508919065300,4.1400654296875,0.2746969759464264,-0.0010652330238372087,0.017176883295178413
1696958508929078800,4.150078857421875,0.2629793882369995,0,0.009720250964164734
1696958508939092500,4.160092529296875,0.2640446424484253,0.02343512699007988,0.026763979345560074
1696958508949106000,4.17010595703125,0.2725664973258972,0.01171756349503994,0.027829213067889214
1696958508959119600,4.18011962890625,0.2640446424484253,-0.05539211630821228,-0.015845341607928276
1696958508969133300,4.19013330078125,0.2544575333595276,0.0106523297727108,0.024633513763546944
1696958508979146800,4.200146728515625,0.2608489394187927,-0.007456631399691105,0.010785484686493874
1696958508989160400,4.210160400390625,0.25978371500968933,-0.04367455467581749,-0.005193010903894901
1696958508999174000,4.220173828125,0.24913136661052704,-0.02876129187643528,0.007589785382151604
1696958509009187600,4.2301875,0.24913136661052704,-0.0213046595454216,0.0011983871227130294
1696958509019201300,4.240201171875,0.2523270845413208,-0.01704372838139534,0.004394086077809334
1696958509029214700,4.250214599609375,0.24380521476268768,-0.04900071769952774,-0.006258244160562754
1696958509039228400,4.260228515625,0.23315288126468658,0,-0.006258244160562754
1696958509049241900,4.270241943359375,0.23954427242279053,0.00852186419069767,0.019307348877191544
1696958509059255600,4.280255615234375,0.23528334498405457,-0.02663082629442215,-0.011584409512579441
1696958509069269200,4.290269287109375,0.22356578707695007,0.00852186419069767,-0.005193010903894901
1696958509079282700,4.30028271484375,0.22463101148605347,0.0213046595454216,0.012915950268507004
1696958509089296400,4.31029638671875,0.22782671451568604,0.01171756349503994,0.013981183059513569
1696958509099309800,4.320309814453125,0.21717438101768494,-0.01491326279938221,-0.023301972076296806
1696958509109323500,4.330323486328125,0.210782989859581,0.03834838792681694,0.021437814459204674
1696958509119337200,4.340337158203125,0.21930484473705292,0.0031956990715116262,0.017176883295178413
1696958509129350700,4.3503505859375,0.21291345357894897,-0.02023942768573761,-0.015845341607928276
1696958509139364400,4.3603642578125,0.20226112008094788,0.01171756349503994,0.019307348877191544
1696958509149377800,4.370377685546875,0.20758728682994843,-0.0213046595454216,0.010785484686493874
1696958509159391500,4.3803916015625,0.20652204751968384,0.0021304660476744175,0.024633513763546944
1696958509169405200,4.3904052734375,0.19800019264221191,-0.03089175745844841,-0.0009320789249613881
1696958509179418600,4.400418701171875,0.19160878658294678,0.0159784946590662,0.020372580736875534
1696958509189432300,4.410432373046875,0.2001306563615799,-0.01704372838139534,0.043807707726955414
1696958509199445800,4.42044580078125,0.1894783228635788,-0.02769605815410614,-0.009453942999243736
1696958509209459500,4.43045947265625,0.1788259893655777,0.02663082629442215,0.03954677656292915
1696958509219473200,4.44047314453125,0.18734785914421082,-0.01491326279938221,0.026763979345560074
1696958509229486600,4.450486572265625,0.18095645308494568,0.01384802907705307,0.008655018173158169
1696958509239500300,4.460500244140625,0.17349982261657715,-0.0031956990715116262,0.028894444927573204
1696958509249513700,4.470513671875,0.1671084314584732,0.02343512699007988,0.018242115154862404
1696958509259527400,4.48052734375,0.17243459820747375,0.04580501839518547,0.019307348877191544
1696958509269541000,4.490541015625,0.1681736707687378,-0.01917419396340847,0.028894444927573204
1696958509279554600,4.500554443359375,0.1564560979604721,0.03621792420744896,-0.012649642303586006
1696958509289568300,4.510568359375,0.16284750401973724,0.05113118514418602,0.051264338195323944
1696958509299581700,4.520581787109375,0.16391272842884064,-0.01704372838139534,-0.004127778112888336
1696958509309595400,4.530595458984375,0.15432563424110413,0.02982652559876442,0.011850717477500439
1696958509319609000,4.540609130859375,0.15112993121147156,0.0213046595454216,0.025698747485876083
1696958509329622500,4.55062255859375,0.16284750401973724,0.0159784946590662,0.008655018173158169
1696958509339636200,4.56063623046875,0.1585865616798401,-0.02343512699007988,0.025698747485876083
1696958509349649700,4.570649658203125,0.1468690037727356,0.0021304660476744175,-0.012649642303586006
1696958509359663400,4.580663330078125,0.16071702539920807,0.007456631399691105,0.060851436108350754
1696958509369677000,4.590677001953125,0.1553908735513687,-0.03515268862247467,-0.022236740216612816
1696958509379690500,4.6006904296875,0.145803764462471,0.0053261648863554,0.031024912372231483
1696958509389704200,4.6107041015625,0.15326039493083954,-0.03834838792681694,0.022503048181533813
1696958509399717600,4.620717529296875,0.15432563424110413,0.0010652330238372087,0.009720250964164734
1696958509409731300,4.6307314453125,0.145803764462471,-0.04047885537147522,0.012915950268507004
1696958509419745000,4.6407451171875,0.14047759771347046,-0.0106523297727108,0.016111649572849274
1696958509429758500,4.650758544921875,0.1468690037727356,0,0.03209014609456062
1696958509439772200,4.660772216796875,0.14154283702373505,-0.04367455467581749,-0.010519175790250301
1696958509449785600,4.67078564453125,0.12876003980636597,0.004260932095348835,0.025698747485876083
1696958509459799300,4.68079931640625,0.13408620655536652,0,0.017176883295178413
1696958509469813000,4.69081298828125,0.13302096724510193,-0.0031956990715116262,0.016111649572849274
1696958509479826400,4.700826416015625,0.12130340933799744,-0.004260932095348835,-0.006258244160562754
1696958509489840000,4.710840087890625,0.12449911236763,0.01491326279938221,0.03528584539890289
1696958509499853600,4.720853515625,0.12343387305736542,0.0010652330238372087,0.005459319334477186
1696958509509867300,4.7308671875,0.1149120107293129,0.0106523297727108,-0.007323476951569319
1696958509519881000,4.740880859375,0.11278154700994492,0.02023942768573761,0.033155377954244614
1696958509529894400,4.750894287109375,0.11597724258899689,0.0063913981430232525,-0.0009320789249613881
1696958509539908000,4.760908203125,0.10852061212062836,0.01917419396340847,-0.0009320789249613881
1696958509549921500,4.770921630859375,0.10532491654157639,0.009587096981704235,0.011850717477500439
1696958509559935200,4.780935302734375,0.10958584398031235,0.02663082629442215,0.012915950268507004
1696958509569949000,4.790948974609375,0.10852061212062836,0.0031956990715116262,-0.015845341607928276
1696958509579962400,4.80096240234375,0.09786828607320786,0.03302222490310669,-0.001997311832383275
1696958509589976000,4.81097607421875,0.10639014840126038,0.0159784946590662,0.019307348877191544
1696958509599989500,4.820989501953125,0.1042596846818924,0.02556559257209301,-0.023301972076296806
1696958509610003200,4.831003173828125,0.09893351793289185,0.01917419396340847,0.0011983871227130294
1696958509620017000,4.841016845703125,0.10106398165225983,0.02663082629442215,-0.007323476951569319
1696958509630030300,4.8510302734375,0.10639014840126038,0.02023942768573761,0.0033288532868027687
1696958509640044000,4.8610439453125,0.09786828607320786,0.02343512699007988,-0.030758604407310486
1696958509650057500,4.871057373046875,0.09786828607320786,0.0213046595454216,0.007589785382151604
1696958509660071200,4.8810712890625,0.10532491654157639,0.02023942768573761,-0.008388710208237171
1696958509670084900,4.8910849609375,0.09893351793289185,0.02236989326775074,-0.013714875094592571
1696958509680098300,4.901098388671875,0.0936073511838913,0.0106523297727108,-0.011584409512579441
1696958509690112000,4.911112060546875,0.10639014840126038,0.01704372838139534,0.020372580736875534
1696958509700125400,4.92112548828125,0.09999874979257584,-0.009587096981704235,-0.026497671380639076
1696958509710139100,4.93113916015625,0.08828118443489075,0.03834838792681694,-0.008388710208237171
1696958509720152800,4.94115283203125,0.10106398165225983,-0.004260932095348835,0.034220609813928604
1696958509730166300,4.951166259765625,0.09680305421352386,-0.0031956990715116262,-0.031823836266994476
1696958509740180000,4.961179931640625,0.08615072071552277,0.02023942768573761,0.009720250964164734
1696958509750193400,4.971193359375,0.09467258304357529,-0.007456631399691105,0.008655018173158169
1696958509760207000,4.98120703125,0.0925421193242073,0.02023942768573761,0.007589785382151604
1696958509770220800,4.991220703125,0.08188978582620621,0.0106523297727108,-0.027562905102968216
1696958509780234200,5.001234130859375,0.08615072071552277,0.012782796286046505,0.036351077258586884
1696958509790248000,5.011248046875,0.09041165560483932,0.0159784946590662,-0.009453942999243736
1696958509800261400,5.021261474609375,0.07975932210683823,0.01384802907705307,-0.015845341607928276
1696958509810275000,5.031275146484375,0.08082455396652222,0.009587096981704235,0.018242115154862404
1696958509820288800,5.041288818359375,0.08615072071552277,0.02343512699007988,0.0011983871227130294
1696958509830302200,5.05130224609375,0.07656362652778625,0.012782796286046505,-0.030758604407310486
1696958509840316000,5.06131591796875,0.07656362652778625,0.02023942768573761,0.018242115154862404
1696958509850329300,5.071329345703125,0.08402025699615479,-0.01704372838139534,-0.006258244160562754
1696958509860343000,5.081343017578125,0.07762885838747025,0.01917419396340847,-0.029693370684981346
1696958509870356700,5.091356689453125,0.07549838721752167,-0.01491326279938221,0.008655018173158169
1696958509880370200,5.1013701171875,0.07975932210683823,-0.03834838792681694,-0.031823836266994476
1696958509890384000,5.1113837890625,0.07975932210683823,0.01810896210372448,0.012915950268507004
1696958509900397300,5.121397216796875,0.0712374597787857,-0.03408745676279068,-0.04993279650807381
1696958509910411000,5.131410888671875,0.07762885838747025,-0.0021304660476744175,0.021437814459204674
1696958509920424700,5.1414248046875,0.07443315535783768,-0.009587096981704235,-0.026497671380639076
1696958509930438100,5.151438232421875,0.06697652488946915,0.012782796286046505,-0.024367205798625946
1696958509940451800,5.161451904296875,0.06804175674915314,-0.0021304660476744175,0.004394086077809334
1696958509950465300,5.17146533203125,0.06910699605941772,0.01171756349503994,-0.0030625448562204838
1696958509960479000,5.18147900390625,0.06378082931041718,0.01171756349503994,-0.041410934180021286
1696958509970492700,5.19149267578125,0.060585130006074905,0.012782796286046505,0.017176883295178413
1696958509980506000,5.201506103515625,0.06697652488946915,0.0010652330238372087,-0.017975807189941406
1696958509990519800,5.211519775390625,0.06484606117010117,-0.00852186419069767,-0.005193010903894901
1696958510000533200,5.221533203125,0.052063263952732086,0.009587096981704235,-0.035019535571336746
1696958510010547000,5.231546875,0.061650361865758896,0.0031956990715116262,0.025698747485876083
1696958510020560600,5.241560546875,0.060585130006074905,-0.0031956990715116262,-0.033954303711652756
1696958510030574000,5.251573974609375,0.050998032093048096,0.0021304660476744175,-0.019041040912270546
1696958510040587800,5.261587890625,0.055258963257074356,-0.009587096981704235,0.004394086077809334
1696958510050601500,5.2716015625,0.058454662561416626,0.0021304660476744175,-0.008388710208237171
1696958510060615000,5.281614990234375,0.048867564648389816,-0.0053261648863554,-0.03288906812667847
1696958510070628600,5.291628662109375,0.047802332788705826,-0.0010652330238372087,0.010785484686493874
1696958510080642000,5.30164208984375,0.05632419511675835,-0.01171756349503994,-0.013714875094592571
1696958510090655700,5.31165576171875,0.047802332788705826,-0.0031956990715116262,-0.020106272771954536
1696958510100669400,5.32166943359375,0.041410934180021286,-0.01917419396340847,-0.015845341607928276
1696958510110683000,5.331682861328125,0.05312849581241608,-0.0021304660476744175,0.022503048181533813
1696958510120696600,5.341696533203125,0.04993279650807381,-0.0426093190908432,-0.025432437658309937
1696958510130710000,5.3517099609375,0.03928046673536301,0.0063913981430232525,-0.009453942999243736
1696958510140723700,5.3617236328125,0.048867564648389816,-0.03302222490310669,0.016111649572849274
1696958510150737400,5.3717373046875,0.050998032093048096,-0.02343512699007988,0.0011983871227130294
1696958510160750800,5.381750732421875,0.038215234875679016,-0.00852186419069767,-0.017975807189941406
1696958510170764500,5.3917646484375,0.041410934180021286,-0.02343512699007988,0.009720250964164734
1696958510180778000,5.401778076171875,0.048867564648389816,0.004260932095348835,0.015046416781842709
1696958510190791700,5.411791748046875,0.038215234875679016,-0.01704372838139534,-0.023301972076296806
1696958510200805400,5.421805419921875,0.035019535571336746,0.0213046595454216,-0.001997311832383275
1696958510210818800,5.43181884765625,0.04673709720373154,-0.0021304660476744175,0.037416309118270874
1696958510220832500,5.44183251953125,0.030758604407310486,0.0426093190908432,-0.060585130006074905
1696958510230846000,5.451845947265625,0.035019535571336746,0.01704372838139534,0.03954677656292915
1696958510240859600,5.461859619140625,0.03608476743102074,0.01704372838139534,-0.008388710208237171
1696958510250873300,5.471873291015625,0.035019535571336746,0.03515268862247467,-0.011584409512579441
1696958510260886800,5.48188671875,0.031823836266994476,-0.004260932095348835,0.005459319334477186
1696958510270900500,5.491900390625,0.03608476743102074,-0.0010652330238372087,0.006524552125483751
1696958510280914200,5.5019140625,0.033954303711652756,0.0159784946590662,-0.009453942999243736
1696958510290927600,5.511927734375,0.027562905102968216,-0.02023942768573761,-0.0030625448562204838
1696958510300941300,5.52194140625,0.035019535571336746,-0.01704372838139534,0.011850717477500439
1696958510310955000,5.531955078125,0.029693370684981346,-0.007456631399691105,0.007589785382151604
1696958510320968700,5.54196875,0.019041040912270546,0.0063913981430232525,-0.03608476743102074
1696958510330982400,5.551982421875,0.030758604407310486,-0.02236989326775074,0.060851436108350754
1696958510340995800,5.561995849609375,0.021171506494283676,0,-0.038215234875679016
1696958510351009500,5.572009521484375,0.010519175790250301,0.05965305119752884,-0.0030625448562204838
1696958510361023200,5.582023193359375,0.016910573467612267,-0.0106523297727108,0.03528584539890289
1696958510371037000,5.592036865234375,0.012649642303586006,0.04687025398015976,-0.028628136962652206
1696958510381050600,5.602050537109375,0.004127778112888336,0.04687025398015976,-0.0030625448562204838
1696958510391064000,5.61206396484375,0.014780107885599136,-0.0053261648863554,0.020372580736875534
1696958510401077800,5.622077880859375,0.006258244160562754,0.03621792420744896,-0.019041040912270546
1696958510411091500,5.632091552734375,-0.0001331541279796511,0.06924014538526535,-0.012649642303586006
1696958510421105200,5.642105224609375,0.014780107885599136,-0.03728315606713295,0.03848154470324516
1696958510431118800,5.652118896484375,0.004127778112888336,0.0426093190908432,-0.054193731397390366
1696958510441132300,5.66213232421875,-0.00226362026296556,0.03408745676279068,0.036351077258586884
1696958510451146000,5.67214599609375,0.013714875094592571,-0.04687025398015976,-0.005193010903894901
1696958510461159700,5.68215966796875,0.006258244160562754,0.01917419396340847,-0.008388710208237171
1696958510471173400,5.69217333984375,-0.006524552125483751,0.0063913981430232525,0.0001331541279796511
1696958510481187000,5.70218701171875,0.013714875094592571,-0.03834838792681694,0.028894444927573204
1696958510491200500,5.712200439453125,0.004127778112888336,-0.02343512699007988,-0.014780107885599136
1696958510501214200,5.722214111328125,-0.005459319334477186,0.03941362351179123,-0.001997311832383275
1696958510511228000,5.732227783203125,0.011584409512579441,-0.06710968166589737,0.057655736804008484
1696958510521241600,5.74224169921875,-0.007589785382151604,0.03515268862247467,-0.060585130006074905
1696958510531255300,5.75225537109375,-0.005459319334477186,0.02769605815410614,0.058720968663692474
1696958510541268700,5.762268798828125,0.005193010903894901,-0.03515268862247467,0.009720250964164734
1696958510551282400,5.772282470703125,-0.013981183059513569,0.06604444980621338,-0.023301972076296806
1696958510561296100,5.782296142578125,-0.005459319334477186,0.01171756349503994,0.041677240282297134
1696958510571309600,5.7923095703125,0.004127778112888336,-0.01704372838139534,0.020372580736875534
1696958510581323300,5.8023232421875,-0.019307348877191544,0.05432688444852829,-0.03288906812667847
1696958510591337000,5.8123369140625,-0.00226362026296556,0.004260932095348835,0.05232957378029823
1696958510601350400,5.822350341796875,-0.0001331541279796511,-0.01810896210372448,0.017176883295178413
1696958510611364000,5.832364013671875,-0.013981183059513569,0.04367455467581749,-0.054193731397390366
1696958510621377500,5.84237744140625,0.0009320789249613881,0.0106523297727108,0.1194392517209053
1696958510631391200,5.85239111328125,-0.006524552125483751,-0.01704372838139534,-0.09041165560483932
1696958510641405000,5.862405029296875,-0.010785484686493874,0.0745663121342659,0.060851436108350754
1696958510651418400,5.87241845703125,0.0009320789249613881,-0.05432688444852829,0.036351077258586884
1696958510661432000,5.88243212890625,-0.018242115154862404,0.05006595328450203,-0.050998032093048096
1696958510671445500,5.892445556640625,-0.00226362026296556,0.01171756349503994,0.0778951644897461
1696958510681459200,5.902459228515625,-0.007589785382151604,-0.02556559257209301,-0.009453942999243736
1696958510691473000,5.912472900390625,-0.013981183059513569,0.02982652559876442,-0.008388710208237171
1696958510701486300,5.922486328125,-0.00226362026296556,0.0053261648863554,0.058720968663692474
1696958510711500000,5.9325,-0.015046416781842709,-0.0010652330238372087,-0.012649642303586006
1696958510721513500,5.942513427734375,-0.008655018173158169,0.02982652559876442,-0.004127778112888336
1696958510731527200,5.952527099609375,-0.009720250964164734,0.009587096981704235,0.08641702681779861
1696958510741540900,5.962540771484375,-0.018242115154862404,-0.01704372838139534,-0.08615072071552277
1696958510751554300,5.97255419921875,-0.008655018173158169,0.05539211630821228,0.11091738939285278
1696958510761568000,5.982568115234375,-0.018242115154862404,-0.05432688444852829,-0.041410934180021286
1696958510771581400,5.99258154296875,-0.011850717477500439,0.03408745676279068,0.027829213067889214
1696958510781595100,6.00259521484375,-0.018242115154862404,-0.03408745676279068,0.03954677656292915
1696958510791608800,6.01260888671875,-0.019307348877191544,-0.00852186419069767,-0.028628136962652206
1696958510801622300,6.022622314453125,-0.018242115154862404,0,0.0555252730846405
1696958510811636000,6.032635986328125,-0.020372580736875534,-0.02236989326775074,-0.014780107885599136
1696958510821649400,6.0426494140625,-0.018242115154862404,-0.012782796286046505,0.034220609813928604
1696958510831663000,6.0526630859375,-0.027829213067889214,-0.007456631399691105,-0.006258244160562754
1696958510841676800,6.0626767578125,-0.017176883295178413,-0.0106523297727108,0.023568280041217804
1696958510851690200,6.072690185546875,-0.027829213067889214,-0.007456631399691105,0.004394086077809334
1696958510861704000,6.082703857421875,-0.022503048181533813,0.004260932095348835,0.00226362026296556
1696958510871717400,6.09271728515625,-0.023568280041217804,-0.01917419396340847,0.026763979345560074
1696958510881731000,6.10273095703125,-0.024633513763546944,-0.0106523297727108,-0.017975807189941406
1696958510891744800,6.112744873046875,-0.023568280041217804,-0.0106523297727108,0.03954677656292915
1696958510901758200,6.12275830078125,-0.027829213067889214,-0.00852186419069767,-0.028628136962652206
1696958510911772000,6.13277197265625,-0.019307348877191544,-0.01171756349503994,0.04913387447595596
1696958510921785300,6.142785400390625,-0.029959678649902344,-0.009587096981704235,-0.026497671380639076
1696958510931799000,6.152799072265625,-0.021437814459204674,0.01704372838139534,0.03209014609456062
1696958510941812700,6.162812744140625,-0.028894444927573204,-0.02876129187643528,0.005459319334477186
1696958510951826200,6.172826171875,-0.024633513763546944,0.0063913981430232525,0.0011983871227130294
1696958510961839900,6.18283984375,-0.023568280041217804,-0.01704372838139534,0.029959678649902344
1696958510971853300,6.192853271484375,-0.027829213067889214,-0.02343512699007988,-0.020106272771954536
1696958510981867000,6.202866943359375,-0.023568280041217804,-0.004260932095348835,0.03848154470324516
1696958510991880700,6.212880615234375,-0.029959678649902344,-0.0053261648863554,-0.007323476951569319
1696958511001894100,6.22289404296875,-0.023568280041217804,-0.0031956990715116262,0.026763979345560074
1696958511011907800,6.232907958984375,-0.034220609813928604,-0.007456631399691105,0.009720250964164734
1696958511021921300,6.24292138671875,-0.028894444927573204,0.03941362351179123,0.015046416781842709
1696958511031935000,6.25293505859375,-0.03209014609456062,0.0031956990715116262,0.041677240282297134
1696958511041948700,6.26294873046875,-0.036351077258586884,0.04367455467581749,-0.009453942999243736
1696958511051962000,6.272962158203125,-0.03209014609456062,0.03089175745844841,0.07150376588106155
1696958511061975800,6.282975830078125,-0.040612008422613144,0.02236989326775074,-0.015845341607928276
1696958511071989200,6.2929892578125,-0.031024912372231483,0.05006595328450203,0.06511236727237701
1696958511082003000,6.3030029296875,-0.03954677656292915,0.004260932095348835,0.022503048181533813
1696958511092016600,6.3130166015625,-0.03528584539890289,0.05006595328450203,0.020372580736875534
1696958511102030000,6.323030029296875,-0.03848154470324516,0.0159784946590662,0.07896039634943008
1696958511112043800,6.333043701171875,-0.037416309118270874,-0.0021304660476744175,-0.015845341607928276
1696958511122057200,6.34305712890625,-0.03954677656292915,0.05113118514418602,0.08641702681779861
1696958511132071000,6.35307080078125,-0.036351077258586884,-0.01704372838139534,-0.008388710208237171
1696958511142084600,6.363084716796875,-0.03848154470324516,0.04154408723115921,0.060851436108350754
1696958511152098000,6.37309814453125,-0.041677240282297134,-0.02023942768573761,0.010785484686493874
1696958511162111700,6.38311181640625,-0.036351077258586884,0.04047885537147522,0.033155377954244614
1696958511172125200,6.393125244140625,-0.03848154470324516,-0.01491326279938221,0.027829213067889214
1696958511182139000,6.403138916015625,-0.03848154470324516,0.0021304660476744175,-0.004127778112888336
1696958511192152600,6.413152587890625,-0.040612008422613144,0.01384802907705307,0.048068638890981674
1696958511202166000,6.423166015625,-0.03848154470324516,-0.004260932095348835,-0.041410934180021286
1696958511212179700,6.4331796875,-0.040612008422613144,0.02556559257209301,0.06404713541269302
1696958511222193200,6.443193115234375,-0.040612008422613144,-0.03408745676279068,-0.06910699605941772
1696958511232206800,6.453206787109375,-0.03848154470324516,0.05965305119752884,0.06404713541269302
1696958511242221000,6.463220947265625,-0.040612008422613144,-0.06178351491689682,-0.05312849581241608
1696958511252234800,6.47323486328125,-0.03954677656292915,0.04900071769952774,0.028894444927573204
1696958511262248200,6.483248291015625,-0.04593817517161369,-0.02236989326775074,-0.014780107885599136
1696958511272261600,6.49326171875,-0.03954677656292915,0.04367455467581749,-0.013714875094592571
1696958511282275000,6.503275146484375,-0.04274247586727142,-0.02982652559876442,0.05232957378029823
1696958511292288500,6.51328857421875,-0.04913387447595596,0.01491326279938221,-0.0723026916384697
1696958511302302000,6.523302001953125,-0.043807707726955414,0.06284874677658081,0.0981345921754837
1696958511312315600,6.533315673828125,-0.048068638890981674,-0.0745663121342659,-0.0712374597787857
1696958511322329000,6.5433291015625,-0.047003407031297684,0.09374050796031952,0.07256899774074554
1696958511332342500,6.553342529296875,-0.047003407031297684,-0.07030537724494934,-0.028628136962652206
1696958511342356000,6.56335595703125,-0.04593817517161369,0.03302222490310669,0.022503048181533813
1696958511352369400,6.573369384765625,-0.05232957378029823,-0.0021304660476744175,0.024633513763546944
1696958511362383000,6.583383056640625,-0.044872939586639404,-0.0213046595454216,-0.011584409512579441
1696958511372396500,6.593396484375,-0.05232957378029823,0.012782796286046505,0.044872939586639404
1696958511382410200,6.60341015625,-0.053394805639982224,-0.02769605815410614,-0.022236740216612816
1696958511392423700,6.613423583984375,-0.051264338195323944,0.0063913981430232525,0.047003407031297684
1696958511402437400,6.623437255859375,-0.05659050494432449,-0.04154408723115921,-0.021171506494283676
1696958511412451000,6.633451171875,-0.054460037499666214,0.0010652330238372087,0.031024912372231483
1696958511422464800,6.64346484375,-0.057655736804008484,-0.04580501839518547,0.0033288532868027687
1696958511432478500,6.653478515625,-0.05978620424866676,-0.0063913981430232525,-0.010519175790250301
1696958511442492000,6.663491943359375,-0.061916667968034744,-0.02343512699007988,0.033155377954244614
1696958511452505600,6.673505615234375,-0.060851436108350754,-0.02556559257209301,-0.020106272771954536
1696958511462519300,6.683519287109375,-0.066177599132061,0,0.012915950268507004
1696958511472533000,6.693532958984375,-0.06298190355300903,-0.0159784946590662,-0.0030625448562204838
1696958511482546700,6.703546630859375,-0.067242830991745,0.0021304660476744175,0.010785484686493874
1696958511492560400,6.713560302734375,-0.07150376588106155,-0.01491326279938221,-0.037150003015995026
1696958511502574000,6.723573974609375,-0.066177599132061,0.0319569893181324,0.048068638890981674
1696958511512588000,6.733588134765625,-0.07469946891069412,-0.04793548583984375,-0.044606633484363556
1696958511522601700,6.743601806640625,-0.06830807030200958,0.0319569893181324,0.019307348877191544
1696958511532615400,6.753615478515625,-0.07363422960042953,-0.05006595328450203,0.006524552125483751
1696958511542629000,6.763629150390625,-0.07150376588106155,0.03408745676279068,-0.03928046673536301
1696958511552642600,6.773642578125,-0.07363422960042953,-0.02663082629442215,0.051264338195323944
1696958511562656300,6.78365625,-0.07363422960042953,-0.01491326279938221,-0.0723026916384697
1696958511572670000,6.793669921875,-0.0768299326300621,0.02556559257209301,0.067242830991745
1696958511582683400,6.803683349609375,-0.07469946891069412,-0.05432688444852829,-0.0723026916384697
1696958511592697000,6.813697021484375,-0.0768299326300621,0.01704372838139534,0.04274247586727142
1696958511602710500,6.82371044921875,-0.0778951644897461,-0.02663082629442215,-0.058454662561416626
1696958511612724200,6.83372412109375,-0.07363422960042953,0.0031956990715116262,0.022503048181533813
1696958511622738000,6.843738037109375,-0.08002562820911407,-0.03941362351179123,-0.05312849581241608
1696958511632751400,6.85375146484375,-0.07256899774074554,0.009587096981704235,0.0001331541279796511
1696958511642765000,6.86376513671875,-0.0778951644897461,-0.02450035884976387,-0.022236740216612816
1696958511652778500,6.873778564453125,-0.0778951644897461,0.01171756349503994,-0.04993279650807381
1696958511662792200,6.883792236328125,-0.08109086751937866,0.009587096981704235,0.021437814459204674
1696958511672806000,6.893805908203125,-0.08215609937906265,-0.0031956990715116262,-0.08934641629457474
1696958511682819300,6.9038193359375,-0.08109086751937866,0.06284874677658081,0.036351077258586884
1696958511692833000,6.9138330078125,-0.08535179495811462,-0.03089175745844841,-0.09786828607320786
1696958511702846500,6.923846435546875,-0.08322133123874664,0.07989247888326645,0.015046416781842709
1696958511712860200,6.933860107421875,-0.08535179495811462,-0.03515268862247467,-0.04993279650807381
1696958511722873900,6.943873779296875,-0.08428656309843063,0.05858781561255455,-0.058454662561416626
1696958511732887300,6.95388720703125,-0.08641702681779861,0.0021304660476744175,0.021437814459204674
1696958511742901000,6.96390087890625,-0.08641702681779861,-0.01704372838139534,-0.11278154700994492
1696958511752914400,6.97391455078125,-0.08641702681779861,0.05858781561255455,0.037416309118270874
1696958511762928000,6.98392822265625,-0.08641702681779861,-0.08734910935163498,-0.0925421193242073
1696958511772941800,6.99394189453125,-0.0874822586774826,0.0639139786362648,-0.004127778112888336
1696958511782955300,7.003955322265625,-0.09067796170711517,-0.05219641700387001,-0.030758604407310486
1696958511792969000,7.013968994140625,-0.09280842542648315,0.012782796286046505,-0.06697652488946915
1696958511802982400,7.023982421875,-0.0874822586774826,-0.01491326279938221,0.033155377954244614
1696958511812996000,7.03399609375,-0.09493889659643173,-0.05752258375287056,-0.10212921351194382
1696958511823009800,7.044009765625,-0.09493889659643173,0.03941362351179123,0.047003407031297684
1696958511833023200,7.054023193359375,-0.09706936031579971,-0.08841434121131897,-0.08188978582620621
1696958511843037000,7.064036865234375,-0.10026505589485168,0.0426093190908432,0.016111649572849274
1696958511853050400,7.07405029296875,-0.09493889659643173,-0.09374050796031952,-0.014780107885599136
1696958511863064000,7.08406396484375,-0.10559122264385223,0.0106523297727108,-0.050998032093048096
1696958511873077800,7.094077880859375,-0.10133028775453568,-0.0213046595454216,0.03954677656292915
1696958511883091200,7.10409130859375,-0.10772168636322021,-0.0213046595454216,-0.07869409024715424
1696958511893105000,7.11410498046875,-0.10559122264385223,0.00852186419069767,0.044872939586639404
1696958511903118300,7.124118408203125,-0.10985215753316879,-0.03834838792681694,-0.0712374597787857
1696958511913132000,7.134132080078125,-0.11411308497190475,0.04580501839518547,0.026763979345560074
1696958511923145700,7.144145751953125,-0.1087869256734848,-0.05113118514418602,-0.041410934180021286
1696958511933159200,7.1541591796875,-0.1194392517209053,0.04580501839518547,-0.0030625448562204838
1696958511943172900,7.1641728515625,-0.10985215753316879,-0.0319569893181324,-0.017975807189941406
1696958511953186300,7.174186279296875,-0.1205044835805893,0,-0.026497671380639076
1696958511963200000,7.184199951171875,-0.11624355614185333,0.009587096981704235,-0.012649642303586006
1696958511973213700,7.194213623046875,-0.1205044835805893,-0.01171756349503994,-0.021171506494283676
1696958511983227100,7.20422705078125,-0.1194392517209053,0,-0.015845341607928276
1696958511993240800,7.21424072265625,-0.12156971544027328,-0.0031956990715116262,-0.020106272771954536
1696958512003254300,7.224254150390625,-0.12583065032958984,0.00852186419069767,-0.024367205798625946
1696958512013268000,7.23426806640625,-0.12156971544027328,0.009587096981704235,-0.011584409512579441
1696958512023281700,7.24428173828125,-0.1300915777683258,-0.02769605815410614,-0.024367205798625946
1696958512033295000,7.254295166015625,-0.12476541846990585,0.00852186419069767,-0.031823836266994476
1696958512043308800,7.264308837890625,-0.1311568170785904,-0.02236989326775074,-0.0030625448562204838
1696958512053322200,7.274322265625,-0.1311568170785904,-0.01810896210372448,-0.050998032093048096
1696958512063336000,7.2843359375,-0.13222205638885498,0.0031956990715116262,0.010785484686493874
1696958512073349600,7.294349609375,-0.13328728079795837,-0.0213046595454216,-0.06697652488946915
1696958512083363000,7.304363037109375,-0.13328728079795837,0.0159784946590662,0.016111649572849274
1696958512093376800,7.314376708984375,-0.1418091505765915,-0.02982652559876442,-0.052063263952732086
1696958512103390200,7.32439013671875,-0.13754820823669434,0.04047885537147522,-0.013714875094592571
1696958512113404000,7.33440380859375,-0.14287437498569489,-0.0213046595454216,-0.022236740216612816
1696958512123417600,7.34441748046875,-0.1418091505765915,0.02023942768573761,-0.037150003015995026
1696958512133431000,7.35443115234375,-0.14713531732559204,-0.0021304660476744175,-0.0030625448562204838
1696958512143444700,7.36444482421875,-0.14393961429595947,-0.0031956990715116262,-0.06484606117010117
1696958512153458200,7.374458251953125,-0.14607007801532745,0.01917419396340847,0.019307348877191544
1696958512163472000,7.384471923828125,-0.14713531732559204,-0.03728315606713295,-0.06271559745073318
1696958512173485600,7.394485595703125,-0.14607007801532745,0.0213046595454216,0.005459319334477186
1696958512183499000,7.4044990234375,-0.15033100545406342,-0.01810896210372448,-0.026497671380639076
1696958512193512700,7.4145126953125,-0.14287437498569489,-0.02876129187643528,-0.026497671380639076
1696958512203526100,7.424526123046875,-0.15459194779396057,-0.0063913981430232525,0.005459319334477186
1696958512213539800,7.434539794921875,-0.14820054173469543,-0.02023942768573761,-0.04673709720373154
1696958512223553500,7.444553466796875,-0.15033100545406342,-0.004260932095348835,0.03528584539890289
1696958512233567000,7.45456689453125,-0.15352670848369598,-0.05113118514418602,-0.04673709720373154
1696958512243580700,7.46458056640625,-0.1524614691734314,0.03089175745844841,0.033155377954244614
1696958512253594000,7.474593994140625,-0.15352670848369598,-0.06071828305721283,-0.03288906812667847
1696958512263607800,7.48460791015625,-0.1524614691734314,-0.0010652330238372087,0.009720250964164734
1696958512273621500,7.49462158203125,-0.15565717220306396,-0.012782796286046505,0.013981183059513569
1696958512283635000,7.504635009765625,-0.15033100545406342,-0.03408745676279068,-0.03928046673536301
1696958512293648600,7.514648681640625,-0.1524614691734314,-0.007456631399691105,0.051264338195323944
1696958512303662000,7.524662109375,-0.15565717220306396,-0.04047885537147522,-0.047802332788705826
1696958512313675800,7.53467578125,-0.14607007801532745,0.007456631399691105,0.04913387447595596
1696958512323689500,7.544689453125,-0.15778763592243195,-0.06604444980621338,-0.03928046673536301
1696958512333703000,7.554702880859375,-0.15033100545406342,0.02982652559876442,0.021437814459204674
1696958512343716600,7.564716552734375,-0.15565717220306396,-0.05006595328450203,0.021437814459204674
1696958512353730000,7.57472998046875,-0.15991811454296112,0.02236989326775074,-0.045671865344047546
1696958512363743700,7.58474365234375,-0.15352670848369598,-0.0213046595454216,0.0768299326300621
1696958512373757400,7.59475732421875,-0.16417904198169708,-0.0159784946590662,-0.08188978582620621
1696958512383771000,7.60477099609375,-0.15459194779396057,0.04154408723115921,0.08641702681779861
1696958512393784600,7.61478466796875,-0.1620485782623291,-0.07350108027458191,-0.059519894421100616
1696958512403798000,7.624798095703125,-0.16417904198169708,0.08415340632200241,0.036351077258586884
1696958512413811700,7.634811767578125,-0.15991811454296112,-0.05432688444852829,0.015046416781842709
1696958512423825400,7.644825439453125,-0.17483137547969818,0.02343512699007988,-0.060585130006074905
1696958512433838800,7.6548388671875,-0.16417904198169708,0.02769605815410614,0.07469946891069412
1696958512443852500,7.6648525390625,-0.1737661361694336,-0.03834838792681694,-0.0723026916384697
1696958512453866000,7.674865966796875,-0.16737474501132965,0.0319569893181324,0.036351077258586884
1696958512463879700,7.684879638671875,-0.17057043313980103,-0.03089175745844841,-0.020106272771954536
1696958512473893400,7.694893310546875,-0.17483137547969818,0.0021304660476744175,-0.030758604407310486
1696958512483906800,7.70490673828125,-0.16630950570106506,-0.02236989326775074,0.009720250964164734
1696958512493920500,7.71492041015625,-0.18015754222869873,-0.0319569893181324,-0.048867564648389816
1696958512503934000,7.724933837890625,-0.17483137547969818,0.02450035884976387,-0.011584409512579441
1696958512513947600,7.73494775390625,-0.16950520873069763,-0.05539211630821228,-0.010519175790250301
1696958512523961300,7.74496142578125,-0.1833532303571701,0.0031956990715116262,-0.06271559745073318
1696958512533974800,7.754974853515625,-0.17483137547969818,-0.00852186419069767,0.008655018173158169
1696958512543988500,7.764988525390625,-0.17696183919906616,-0.03089175745844841,-0.031823836266994476
1696958512554002000,7.775001953125,-0.18761417269706726,0.01491326279938221,-0.04673709720373154
1696958512564015600,7.785015625,-0.17589659988880157,-0.0053261648863554,0.011850717477500439
1696958512574029300,7.795029296875,-0.18548369407653809,0.01171756349503994,-0.025432437658309937
1696958512584042800,7.805042724609375,-0.19187510013580322,0.03089175745844841,-0.048867564648389816
1696958512594056400,7.815056396484375,-0.17483137547969818,-0.0031956990715116262,0.057655736804008484
1696958512604070000,7.82506982421875,-0.19187510013580322,-0.01171756349503994,-0.06804175674915314
1696958512614083600,7.83508349609375,-0.18867939710617065,0.06817491352558136,0.017176883295178413
1696958512624097300,7.84509716796875,-0.1737661361694336,-0.0745663121342659,0.05232957378029823
1696958512634110700,7.85511083984375,-0.19720126688480377,0.02769605815410614,-0.09786828607320786
1696958512644124400,7.86512451171875,-0.1844184696674347,0.00852186419069767,0.09600412845611572
1696958512654137900,7.875137939453125,-0.18122276663780212,-0.08308817446231842,-0.041410934180021286
1696958512664151600,7.885151611328125,-0.19720126688480377,0.05858781561255455,0.008655018173158169
1696958512674165200,7.895165283203125,-0.18548369407653809,-0.05645735189318657,0.031024912372231483
1696958512684178700,7.9051787109375,-0.18654893338680267,-0.0063913981430232525,0.0011983871227130294
1696958512694192400,7.9151923828125,-0.20146219432353973,0.012782796286046505,-0.008388710208237171
1696958512704205800,7.925205810546875,-0.19187510013580322,-0.0021304660476744175,0.024633513763546944
1696958512714219500,7.935219482421875,-0.18761417269706726,-0.01810896210372448,0.028894444927573204
1696958512724233200,7.945233154296875,-0.20785360038280487,0.02023942768573761,-0.04993279650807381
1696958512734246700,7.95524658203125,-0.1940055638551712,0.01704372838139534,0.0778951644897461
1696958512744260400,7.96526025390625,-0.1940055638551712,-0.04367455467581749,-0.031823836266994476
1696958512754273800,7.975273681640625,-0.20785360038280487,0.05432688444852829,-0.021171506494283676
1696958512764287500,7.98528759765625,-0.19933173060417175,0,0.050199106335639954
1696958512774301200,7.99530126953125,-0.19826649129390717,-0.0319569893181324,-0.04673709720373154
1696958512784314600,8.005314697265625,-0.20891882479190826,0.05006595328450203,-0.023301972076296806
1696958512794328300,8.015328369140626,-0.20252743363380432,-0.02343512699007988,0.03209014609456062
1696958512804341800,8.025341796875,-0.2057231217622757,0.0031956990715116262,-0.059519894421100616
1696958512814355500,8.03535546875,-0.21104928851127625,0.02450035884976387,-0.008388710208237171
1696958512824369200,8.045369140625,-0.20998406410217285,-0.004260932095348835,-0.021171506494283676
1696958512834382600,8.055382568359375,-0.20359265804290771,0.02343512699007988,-0.015845341607928276
1696958512844396300,8.065396240234374,-0.2153102308511734,-0.01384802907705307,-0.03928046673536301
1696958512854409700,8.07540966796875,-0.21317975223064423,0.03089175745844841,-0.012649642303586006
1696958512864423400,8.08542333984375,-0.20146219432353973,-0.03728315606713295,0.00226362026296556
1696958512874437000,8.09543701171875,-0.2142449915409088,0.0021304660476744175,-0.07656362652778625
1696958512884450600,8.105450439453126,-0.2163754552602768,0.02663082629442215,0.026763979345560074
1696958512894464300,8.11546435546875,-0.2046578973531723,-0.04473978653550148,-0.06271559745073318
1696958512904477700,8.125477783203126,-0.20891882479190826,0.04473978653550148,0.018242115154862404
1696958512914491400,8.135491455078125,-0.22063638269901276,-0.02982652559876442,-0.08082455396652222
1696958512924505000,8.145505126953125,-0.20252743363380432,0.02023942768573761,0.04274247586727142
1696958512934518500,8.1555185546875,-0.20785360038280487,-0.0426093190908432,-0.06804175674915314
1696958512944532200,8.1655322265625,-0.2259625494480133,0.07563154399394989,-0.023301972076296806
1696958512954545700,8.175545654296876,-0.19933173060417175,-0.05645735189318657,0.023568280041217804
1696958512964559400,8.185559326171875,-0.20891882479190826,0.007456631399691105,-0.07656362652778625
1696958512974573000,8.195572998046876,-0.21744069457054138,0.03941362351179123,0.017176883295178413
1696958512984586500,8.20558642578125,-0.20359265804290771,-0.05219641700387001,-0.026497671380639076
1696958512994600200,8.21560009765625,-0.20252743363380432,0.0213046595454216,-0.011584409512579441
1696958513004613600,8.225613525390624,-0.2163754552602768,0.02769605815410614,-0.042476166039705276
1696958513014627300,8.23562744140625,-0.2046578973531723,-0.02236989326775074,0.018242115154862404
1696958513024641000,8.24564111328125,-0.20039696991443634,-0.0031956990715116262,-0.024367205798625946
1696958513034654500,8.255654541015625,-0.21317975223064423,0.0159784946590662,-0.022236740216612816
1696958513044668200,8.265668212890626,-0.20359265804290771,-0.03302222490310669,0.006524552125483751
1696958513054681600,8.275681640625,-0.20039696991443634,-0.0213046595454216,-0.001997311832383275
1696958513064695300,8.2856953125,-0.20998406410217285,-0.02236989326775074,-0.022236740216612816
1696958513074709000,8.295708984375,-0.20678836107254028,-0.04580501839518547,0.012915950268507004
1696958513084722400,8.305722412109375,-0.1940055638551712,-0.04900071769952774,0.029959678649902344
1696958513094736100,8.315736083984374,-0.21104928851127625,-0.04473978653550148,-0.042476166039705276
1696958513104749600,8.32574951171875,-0.2163754552602768,0.0021304660476744175,0.04274247586727142
1696958513114763300,8.33576318359375,-0.20039696991443634,-0.0532616525888443,0.027829213067889214
1696958513124777000,8.34577685546875,-0.2142449915409088,0.0053261648863554,-0.03928046673536301
1696958513134790400,8.355790283203126,-0.22809302806854248,0.05539211630821228,0.04593817517161369
1696958513144804000,8.36580419921875,-0.21211452782154083,-0.04900071769952774,-0.005193010903894901
1696958513154817500,8.375817626953125,-0.2153102308511734,0.06604444980621338,0.017176883295178413
1696958513164831200,8.385831298828125,-0.22809302806854248,-0.01384802907705307,-0.014780107885599136
1696958513174845000,8.395844970703125,-0.21744069457054138,0.01810896210372448,0.021437814459204674
1696958513184858400,8.4058583984375,-0.2142449915409088,-0.009587096981704235,0.010785484686493874
1696958513194872000,8.4158720703125,-0.23235395550727844,0.03302222490310669,-0.042476166039705276
1696958513204885500,8.425885498046876,-0.22063638269901276,0.00852186419069767,0.04274247586727142
1696958513214899200,8.435899169921875,-0.22276686131954193,0.0031956990715116262,-0.022236740216612816
1696958513224913000,8.445912841796876,-0.23128871619701385,0.03515268862247467,-0.013714875094592571
1696958513234926300,8.45592626953125,-0.22383208572864532,-0.0053261648863554,0.022503048181533813
1696958513244940000,8.46593994140625,-0.22063638269901276,-0.0031956990715116262,-0.024367205798625946
1696958513254953500,8.475953369140624,-0.23128871619701385,0.01491326279938221,0.005459319334477186
1696958513264967200,8.48596728515625,-0.22809302806854248,0.0031956990715116262,-0.011584409512579441
1696958513274980900,8.49598095703125,-0.2153102308511734,-0.02556559257209301,0.034220609813928604
1696958513284994300,8.505994384765625,-0.23128871619701385,-0.02876129187643528,-0.048867564648389816
1696958513295008000,8.516008056640626,-0.22809302806854248,-0.0063913981430232525,0.040612008422613144
1696958513305021400,8.526021484375,-0.21317975223064423,-0.06710968166589737,0.010785484686493874
1696958513315035100,8.53603515625,-0.23235395550727844,-0.01917419396340847,-0.037150003015995026
1696958513325048800,8.546048828125,-0.23022349178791046,-0.01171756349503994,0.05232957378029823
1696958513335062300,8.556062255859375,-0.21850591897964478,-0.08841434121131897,0.013981183059513569
1696958513345076000,8.566075927734374,-0.23448441922664642,0.03834838792681694,-0.017975807189941406
1696958513355089400,8.57608935546875,-0.23448441922664642,-0.05006595328450203,0.05232957378029823
1696958513365103000,8.58610302734375,-0.22276686131954193,-0.03408745676279068,0.016111649572849274
1696958513375116800,8.59611669921875,-0.23022349178791046,0.0063913981430232525,0.009720250964164734
1696958513385130200,8.606130126953126,-0.24087581038475037,-0.02236989326775074,0.024633513763546944
1696958513395144000,8.61614404296875,-0.2259625494480133,-0.012782796286046505,0.058720968663692474
1696958513405157400,8.626157470703125,-0.23128871619701385,-0.0106523297727108,0.011850717477500439
1696958513415171000,8.636171142578124,-0.24407151341438293,0.02769605815410614,0.028894444927573204
1696958513425184800,8.646184814453125,-0.22809302806854248,-0.02663082629442215,0.07363422960042953
1696958513435198200,8.6561982421875,-0.23341917991638184,0.01491326279938221,0.010785484686493874
1696958513445212000,8.6662119140625,-0.24513675272464752,0.01384802907705307,0.04274247586727142
1696958513455225300,8.676225341796876,-0.23235395550727844,-0.04367455467581749,0.07150376588106155
1696958513465239000,8.686239013671875,-0.23128871619701385,-0.0053261648863554,0.031024912372231483
1696958513475252700,8.696252685546876,-0.23981058597564697,-0.02023942768573761,0.031024912372231483
1696958513485266200,8.70626611328125,-0.237680122256279,-0.03089175745844841,0.06937330216169357
1696958513495279900,8.71627978515625,-0.2366148829460144,-0.01384802907705307,0.048068638890981674
1696958513505293300,8.726293212890624,-0.24407151341438293,-0.02769605815410614,0.005459319334477186
1696958513515307000,8.73630712890625,-0.24407151341438293,-0.02236989326775074,0.08854749798774719
1696958513525320700,8.74632080078125,-0.23448441922664642,-0.05432688444852829,0.028894444927573204
1696958513535334100,8.756334228515625,-0.25259336829185486,0.007456631399691105,0.025698747485876083
1696958513545347800,8.766347900390626,-0.25259336829185486,-0.03728315606713295,0.047003407031297684
1696958513555361300,8.776361328125,-0.24513675272464752,-0.01491326279938221,0.04913387447595596
1696958513565375000,8.786375,-0.2568543255329132,-0.02343512699007988,-0.0009320789249613881
1696958513575388700,8.796388671875,-0.2579195499420166,0.00852186419069767,0.048068638890981674
1696958513585402000,8.806402099609375,-0.2568543255329132,-0.02876129187643528,0.03954677656292915
1696958513595415800,8.816415771484374,-0.26111525297164917,0.02556559257209301,-0.008388710208237171
1696958513605429200,8.82642919921875,-0.26218047738075256,-0.00852186419069767,0.057655736804008484
1696958513615443000,8.83644287109375,-0.25472384691238403,-0.04580501839518547,0.006524552125483751
1696958513625456600,8.84645654296875,-0.26324570178985596,0.04154408723115921,0.025698747485876083
1696958513635470000,8.856469970703126,-0.2685718834400177,-0.0010652330238372087,0.0033288532868027687
1696958513645483800,8.86648388671875,-0.25365862250328064,-0.012782796286046505,0.040612008422613144
1696958513655497200,8.876497314453125,-0.2568543255329132,-0.0159784946590662,-0.011584409512579441
1696958513665511000,8.886510986328124,-0.2675066292285919,0.03728315606713295,0.010785484686493874
1696958513675524600,8.896524658203125,-0.2557890713214874,0.0031956990715116262,0.008655018173158169
1696958513685538000,8.9065380859375,-0.25152814388275146,0.02236989326775074,0.00226362026296556
1696958513695551700,8.9165517578125,-0.2600499987602234,-0.0063913981430232525,-0.013714875094592571
1696958513705565200,8.926565185546876,-0.25152814388275146,0.02876129187643528,0.006524552125483751
1696958513715579000,8.936578857421875,-0.24620197713375092,0.0010652330238372087,0.015046416781842709
1696958513725592600,8.946592529296876,-0.2557890713214874,0.009587096981704235,-0.043541401624679565
1696958513735606000,8.95660595703125,-0.2483324557542801,0.02769605815410614,0.03848154470324516
1696958513745619700,8.96661962890625,-0.24513675272464752,0.0063913981430232525,-0.027562905102968216
1696958513755633200,8.976633056640624,-0.25259336829185486,0.05539211630821228,-0.001997311832383275
1696958513765646800,8.986646728515625,-0.25046291947364807,-0.004260932095348835,0.007589785382151604
1696958513775660500,8.99666064453125,-0.24300628900527954,0.05858781561255455,0.0001331541279796511
1696958513785674000,9.006674072265625,-0.25046291947364807,0.03728315606713295,-0.015845341607928276
1696958513795687700,9.016687744140626,-0.25046291947364807,0.03834838792681694,0.007589785382151604
1696958513805701000,9.026701171875,-0.23981058597564697,0.03941362351179123,0.006524552125483751
1696958513815714800,9.03671484375,-0.25152814388275146,0.05965305119752884,-0.03608476743102074
1696958513825728500,9.046728515625,-0.24620197713375092,0.04900071769952774,0.031024912372231483
1696958513835742000,9.056741943359375,-0.2366148829460144,-0.004260932095348835,-0.012649642303586006
1696958513845755600,9.066755615234374,-0.24300628900527954,0.07563154399394989,-0.014780107885599136
1696958513855769000,9.07676904296875,-0.2472672164440155,0.004260932095348835,-0.0030625448562204838
1696958513865782800,9.08678271484375,-0.2270277887582779,0.02236989326775074,-0.0009320789249613881
1696958513875796500,9.09679638671875,-0.2259625494480133,-0.03408745676279068,-0.011584409512579441
1696958513885810000,9.106809814453126,-0.23874534666538239,0.04580501839518547,-0.033954303711652756
1696958513895823600,9.11682373046875,-0.2248973250389099,-0.0063913981430232525,0.03209014609456062
1696958513905837000,9.126837158203125,-0.2248973250389099,0.009587096981704235,-0.040345702320337296
1696958513915850800,9.136850830078124,-0.22915825247764587,0.03728315606713295,-0.005193010903894901
1696958513925864400,9.146864501953125,-0.21957115828990936,-0.007456631399691105,-0.004127778112888336
1696958513935878000,9.1568779296875,-0.21850591897964478,0.0532616525888443,-0.009453942999243736
1696958513945891600,9.1668916015625,-0.22383208572864532,0.01491326279938221,-0.041410934180021286
1696958513955905000,9.176905029296876,-0.2057231217622757,0.0213046595454216,0.03528584539890289
1696958513965918700,9.186918701171875,-0.2046578973531723,-0.00852186419069767,-0.037150003015995026
1696958513975932400,9.196932373046875,-0.21211452782154083,0.05965305119752884,-0.03928046673536301
1696958513985945900,9.20694580078125,-0.1940055638551712,-0.01171756349503994,0.026763979345560074
1696958513995959600,9.21695947265625,-0.18867939710617065,0.0063913981430232525,-0.04673709720373154
1696958514005973000,9.226972900390624,-0.19613602757453918,0.06071828305721283,-0.025432437658309937
1696958514015986700,9.236986572265625,-0.1833532303571701,-0.012782796286046505,-0.013714875094592571
1696958514026000400,9.24700048828125,-0.18015754222869873,0.03834838792681694,-0.041410934180021286
1696958514036013800,9.257013916015625,-0.18015754222869873,0.04473978653550148,-0.038215234875679016
1696958514046027500,9.267027587890626,-0.172700896859169,-0.01491326279938221,-0.03288906812667847
1696958514056041000,9.277041015625,-0.1716356724500656,0.07030537724494934,-0.042476166039705276
1696958514066054700,9.2870546875,-0.17057043313980103,0.0319569893181324,-0.059519894421100616
1696958514076068400,9.297068359375,-0.1631138026714325,0.0031956990715116262,-0.035019535571336746
1696958514086081800,9.307081787109375,-0.15672241151332855,0.03408745676279068,-0.035019535571336746
1696958514096095500,9.317095458984374,-0.15885287523269653,-0.0031956990715116262,-0.07762885838747025
1696958514106109000,9.32710888671875,-0.15778763592243195,0.03302222490310669,-0.014780107885599136
1696958514116122600,9.33712255859375,-0.14926578104496002,-0.01917419396340847,-0.057389430701732635
1696958514126136300,9.34713623046875,-0.1524614691734314,0.03834838792681694,-0.03928046673536301
1696958514136149800,9.357149658203125,-0.15991811454296112,0.00852186419069767,-0.040345702320337296
1696958514146163500,9.36716357421875,-0.14713531732559204,0.01491326279938221,-0.022236740216612816
1696958514156177000,9.377177001953125,-0.14500483870506287,-0.01491326279938221,-0.042476166039705276
1696958514166190600,9.387190673828124,-0.16098333895206451,0.02450035884976387,-0.041410934180021286
1696958514176204300,9.397204345703125,-0.14713531732559204,0.02236989326775074,-0.005193010903894901
1696958514186217700,9.4072177734375,-0.14820054173469543,-0.02982652559876442,-0.03288906812667847
1696958514196231400,9.4172314453125,-0.16524426639080048,0.05965305119752884,-0.06910699605941772
1696958514206244900,9.427244873046876,-0.14500483870506287,-0.03089175745844841,0.066177599132061
1696958514216258600,9.437258544921875,-0.15778763592243195,0.01917419396340847,-0.10852061212062836
1696958514226272300,9.447272216796875,-0.16417904198169708,0.06497921794652939,0.043807707726955414
1696958514236285700,9.45728564453125,-0.15459194779396057,-0.05858781561255455,-0.045671865344047546
1696958514246299400,9.46729931640625,-0.15672241151332855,0.04473978653550148,0.018242115154862404
1696958514256312800,9.477312744140624,-0.16950520873069763,0.04367455467581749,-0.03288906812667847
1696958514266326500,9.487326416015625,-0.16098333895206451,-0.03834838792681694,0.009720250964164734
1696958514276340200,9.49734033203125,-0.15459194779396057,0.0852186381816864,0.013981183059513569
1696958514286353700,9.507353759765625,-0.16737474501132965,0,-0.024367205798625946
1696958514296367400,9.517367431640626,-0.16950520873069763,0.0639139786362648,0.0011983871227130294
1696958514306380800,9.527380859375,-0.15885287523269653,0.04580501839518547,0.05659050494432449
1696958514316394500,9.53739453125,-0.16950520873069763,0.04793548583984375,-0.0829550251364708
1696958514326408200,9.547408203125,-0.16737474501132965,0.07776200771331787,0.09600412845611572
1696958514336421600,9.557421630859375,-0.16098333895206451,-0.02556559257209301,-0.040345702320337296
1696958514346435300,9.567435302734374,-0.16630950570106506,0.07989247888326645,0.018242115154862404
1696958514356448800,9.57744873046875,-0.1620485782623291,-0.0426093190908432,0.03848154470324516
1696958514366462500,9.58746240234375,-0.15778763592243195,-0.009587096981704235,-0.011584409512579441
1696958514376476200,9.59747607421875,-0.15991811454296112,-0.004260932095348835,0.047003407031297684
1696958514386489600,9.607489501953125,-0.16950520873069763,-0.0426093190908432,-0.015845341607928276
1696958514396503300,9.61750341796875,-0.1524614691734314,-0.01171756349503994,0.067242830991745
1696958514406517000,9.62751708984375,-0.15991811454296112,-0.04900071769952774,0.006524552125483751
1696958514416530400,9.637530517578124,-0.1716356724500656,0.02876129187643528,0.005459319334477186
1696958514426544000,9.647544189453125,-0.15885287523269653,-0.0532616525888443,0.06937330216169357
1696958514436557600,9.6575576171875,-0.15778763592243195,0.01171756349503994,-0.016910573467612267
1696958514446571300,9.6675712890625,-0.1716356724500656,0.0213046595454216,0.05659050494432449
1696958514456585000,9.6775849609375,-0.16737474501132965,-0.0106523297727108,-0.017975807189941406
1696958514466598400,9.687598388671875,-0.15778763592243195,0.04367455467581749,0.067242830991745
1696958514476612000,9.697612060546875,-0.17589659988880157,-0.02343512699007988,-0.037150003015995026
1696958514486625500,9.70762548828125,-0.16524426639080048,0.07030537724494934,0.061916667968034744
1696958514496639200,9.71763916015625,-0.15672241151332855,-0.02769605815410614,0.004394086077809334
1696958514506653000,9.72765283203125,-0.1716356724500656,0.02982652559876442,-0.013714875094592571
1696958514516666400,9.737666259765625,-0.16737474501132965,0.05539211630821228,0.07256899774074554
1696958514526680000,9.74768017578125,-0.15885287523269653,-0.0426093190908432,-0.05312849581241608
1696958514536693500,9.757693603515625,-0.15672241151332855,0.02876129187643528,0.06830807030200958
1696958514546707200,9.767707275390626,-0.16524426639080048,-0.03941362351179123,-0.016910573467612267
1696958514556721000,9.777720947265625,-0.15672241151332855,0.03621792420744896,0.019307348877191544
1696958514566734300,9.787734375,-0.151396244764328,-0.06071828305721283,0.024633513763546944
1696958514576748000,9.797748046875,-0.16630950570106506,0.007456631399691105,-0.014780107885599136
1696958514586761500,9.807761474609375,-0.14607007801532745,-0.02236989326775074,0.06511236727237701
1696958514596775200,9.817775146484376,-0.15778763592243195,-0.04154408723115921,-0.035019535571336746
1696958514606788900,9.827788818359375,-0.16417904198169708,0.02876129187643528,0.06404713541269302
1696958514616802600,9.837802490234376,-0.14926578104496002,-0.07669677585363388,0.017176883295178413
1696958514626816300,9.847816162109375,-0.1524614691734314,0.00852186419069767,0.016111649572849274
1696958514636829700,9.85782958984375,-0.172700896859169,0.02876129187643528,0.033155377954244614
1696958514646843400,9.867843505859375,-0.1620485782623291,-0.02236989326775074,0.033155377954244614
1696958514656857000,9.877857177734375,-0.1524614691734314,-0.00852186419069767,0.05978620424866676
1696958514666870800,9.887870849609374,-0.1716356724500656,0.03408745676279068,-0.013714875094592571
1696958514676884500,9.897884521484375,-0.16417904198169708,0.01171756349503994,0.08961272984743118
1696958514686898000,9.90789794921875,-0.16098333895206451,-0.02236989326775074,0.009720250964164734
1696958514696911600,9.91791162109375,-0.1716356724500656,0.06497921794652939,0.031024912372231483
1696958514706925300,9.92792529296875,-0.16737474501132965,-0.05006595328450203,0.03954677656292915
1696958514716939000,9.93793896484375,-0.16417904198169708,0.01384802907705307,0.05659050494432449
1696958514726952700,9.94795263671875,-0.18015754222869873,0.0010652330238372087,0.015046416781842709
1696958514736966100,9.957966064453124,-0.16737474501132965,-0.00852186419069767,0.051264338195323944
1696958514746979800,9.967979736328125,-0.14926578104496002,-0.11078423261642456,0.08109086751937866
1696958514756993500,9.97799365234375,-0.19080986082553864,0.03728315606713295,-0.016910573467612267
1696958514767007200,9.98800732421875,-0.18122276663780212,-0.0532616525888443,0.08215609937906265
1696958514777021000,9.99802099609375,-0.15352670848369598,-0.12143656611442566,0.0768299326300621
1696958514787034400,10.008034423828125,-0.17696183919906616,-0.01384802907705307,-0.007323476951569319
1696958514797048000,10.018048095703126,-0.18974463641643524,-0.02556559257209301,0.08428656309843063
1696958514807061800,10.028061767578125,-0.1716356724500656,-0.06178351491689682,0.0555252730846405
1696958514817075500,10.038075439453126,-0.17483137547969818,-0.05965305119752884,0.022503048181533813
1696958514827089200,10.048089111328125,-0.18122276663780212,-0.08415340632200241,0.034220609813928604
1696958514837102600,10.0581025390625,-0.16843996942043304,-0.10013190656900406,0.06404713541269302
1696958514847116300,10.0681162109375,-0.17802706360816956,-0.07350108027458191,-0.008388710208237171
1696958514857130000,10.0781298828125,-0.17802706360816956,-0.09800143539905548,0.025698747485876083
1696958514867143700,10.088143798828124,-0.1716356724500656,-0.09800143539905548,0.06298190355300903
1696958514877157000,10.0981572265625,-0.17589659988880157,-0.04473978653550148,-0.031823836266994476
1696958514887170800,10.1081708984375,-0.18654893338680267,-0.02556559257209301,0.040612008422613144
1696958514897184300,10.118184326171875,-0.18015754222869873,-0.03834838792681694,0.033155377954244614
1696958514907198000,10.128197998046875,-0.18654893338680267,0.03089175745844841,0.015046416781842709
1696958514917211600,10.138211669921875,-0.1844184696674347,0.0031956990715116262,0.007589785382151604
1696958514927225000,10.14822509765625,-0.172700896859169,-0.06817491352558136,0.037416309118270874
1696958514937238800,10.15823876953125,-0.16737474501132965,-0.04900071769952774,-0.004127778112888336
1696958514947252200,10.168252197265625,-0.16524426639080048,-0.07137060910463333,0.005459319334477186
1696958514957266000,10.178265869140626,-0.16737474501132965,-0.09267527610063553,-0.010519175790250301
1696958514967279600,10.188279541015625,-0.16417904198169708,-0.02556559257209301,0.04913387447595596
1696958514977293000,10.19829296875,-0.16524426639080048,-0.09054480493068695,-0.047802332788705826
1696958514987306800,10.208306640625,-0.16417904198169708,-0.03941362351179123,0.021437814459204674
1696958514997320200,10.2183203125,-0.151396244764328,-0.09480573982000351,0.022503048181533813
1696958515007334000,10.228333984375,-0.1737661361694336,-0.00852186419069767,-0.037150003015995026
1696958515017347600,10.23834765625,-0.17057043313980103,-0.02236989326775074,0.004394086077809334
1696958515027361000,10.248361083984374,-0.15885287523269653,-0.06178351491689682,0.033155377954244614
1696958515037374700,10.258374755859375,-0.16950520873069763,-0.03302222490310669,-0.040345702320337296
1696958515047388200,10.26838818359375,-0.17589659988880157,0.01384802907705307,0.009720250964164734
1696958515057401900,10.27840185546875,-0.16950520873069763,-0.04793548583984375,0.008655018173158169
1696958515067415600,10.28841552734375,-0.17483137547969818,0.004260932095348835,0.00226362026296556
1696958515077429000,10.298428955078125,-0.1833532303571701,-0.03302222490310669,-0.004127778112888336
1696958515087442700,10.308442626953125,-0.16950520873069763,-0.01491326279938221,0.028894444927573204
1696958515097456000,10.3184560546875,-0.172700896859169,-0.05219641700387001,0.024633513763546944
1696958515107469800,10.3284697265625,-0.19294032454490662,0.04687025398015976,-0.012649642303586006
1696958515117483500,10.3384833984375,-0.17696183919906616,-0.02663082629442215,0.08961272984743118
1696958515127497000,10.3484970703125,-0.1737661361694336,-0.03941362351179123,0.0011983871227130294
1696958515137510700,10.3585107421875,-0.18654893338680267,0.01917419396340847,0.04274247586727142
1696958515147524000,10.368524169921875,-0.18122276663780212,-0.05645735189318657,0.050199106335639954
1696958515157537800,10.378537841796875,-0.16843996942043304,-0.03728315606713295,0.058720968663692474
1696958515167551500,10.388551513671874,-0.17696183919906616,-0.0852186381816864,0.0033288532868027687
1696958515177565000,10.39856494140625,-0.17696183919906616,-0.04367455467581749,0.058720968663692474
1696958515187578600,10.40857861328125,-0.17057043313980103,-0.07669677585363388,0.06298190355300903
1696958515197592000,10.418592041015625,-0.18548369407653809,-0.05645735189318657,-0.050998032093048096
1696958515207605800,10.428605712890626,-0.18015754222869873,-0.04154408723115921,0.10239552706480026
1696958515217619500,10.438619384765625,-0.17696183919906616,-0.10332760214805603,-0.041410934180021286
1696958515227633000,10.4486328125,-0.1822880059480667,-0.03941362351179123,0.023568280041217804
1696958515237646600,10.458646484375,-0.18654893338680267,-0.0852186381816864,-0.005193010903894901
1696958515247660000,10.468659912109375,-0.1822880059480667,-0.03302222490310669,0.0033288532868027687
1696958515257673700,10.478673828125,-0.18761417269706726,-0.012782796286046505,-0.001997311832383275
1696958515267687400,10.4886875,-0.19187510013580322,-0.0159784946590662,-0.023301972076296806
1696958515277700900,10.498700927734374,-0.18548369407653809,0.01171756349503994,0.034220609813928604
1696958515287714600,10.508714599609375,-0.18548369407653809,-0.0159784946590662,-0.050998032093048096
1696958515297728000,10.51872802734375,-0.18867939710617065,0.03515268862247467,0.012915950268507004
1696958515307741700,10.52874169921875,-0.18015754222869873,-0.05006595328450203,-0.007323476951569319
1696958515317755400,10.53875537109375,-0.17696183919906616,-0.01491326279938221,-0.010519175790250301
1696958515327768800,10.548768798828124,-0.18548369407653809,-0.02982652559876442,-0.044606633484363556
1696958515337782500,10.558782470703125,-0.17589659988880157,-0.0426093190908432,0.020372580736875534
1696958515347796000,10.5687958984375,-0.16950520873069763,-0.11824086308479309,-0.035019535571336746
1696958515357809700,10.5788095703125,-0.18867939710617065,-0.03728315606713295,-0.057389430701732635
1696958515367823400,10.5888232421875,-0.17483137547969818,-0.12463226169347763,0.026763979345560074
1696958515377836800,10.5988369140625,-0.1716356724500656,-0.11611039936542511,-0.04673709720373154
1696958515387850500,10.6088505859375,-0.18654893338680267,-0.08841434121131897,-0.048867564648389816
1696958515397864000,10.618864013671875,-0.18761417269706726,-0.12037133425474167,-0.0009320789249613881
1696958515407877600,10.628877685546875,-0.18548369407653809,-0.09800143539905548,-0.028628136962652206
1696958515417891300,10.638891357421874,-0.20039696991443634,-0.05965305119752884,-0.037150003015995026
1696958515427904800,10.64890478515625,-0.19826649129390717,-0.10439283400774002,-0.021171506494283676
1696958515437918500,10.65891845703125,-0.19826649129390717,-0.05113118514418602,-0.014780107885599136
1696958515447932000,10.668931884765625,-0.21317975223064423,-0.02876129187643528,-0.040345702320337296
1696958515457945600,10.678945556640626,-0.2142449915409088,-0.04580501839518547,-0.024367205798625946
1696958515467959300,10.688959228515625,-0.2057231217622757,-0.0319569893181324,0.012915950268507004
1696958515477972700,10.69897265625,-0.2248973250389099,-0.0159784946590662,-0.06484606117010117
1696958515487986400,10.708986328125,-0.2163754552602768,-0.0031956990715116262,0.020372580736875534
1696958515498000000,10.718999755859375,-0.21317975223064423,-0.05645735189318657,-0.016910573467612267
1696958515508013600,10.729013671875,-0.2270277887582779,0.01917419396340847,-0.04673709720373154
1696958515518027300,10.73902734375,-0.21317975223064423,-0.08202294260263443,0.034220609813928604
1696958515528040700,10.749040771484376,-0.2046578973531723,-0.08202294260263443,-0.026497671380639076
1696958515538054400,10.759054443359375,-0.22383208572864532,-0.01810896210372448,-0.03288906812667847
1696958515548067800,10.76906787109375,-0.21104928851127625,-0.11078423261642456,0.03528584539890289
1696958515558081500,10.77908154296875,-0.20359265804290771,-0.07669677585363388,-0.027562905102968216
1696958515568095200,10.78909521484375,-0.22063638269901276,-0.05219641700387001,-0.025432437658309937
1696958515578108700,10.799108642578124,-0.2142449915409088,-0.0639139786362648,0.021437814459204674
1696958515588122400,10.809122314453125,-0.20678836107254028,-0.08095771074295044,0.0001331541279796511
1696958515598135800,10.8191357421875,-0.22063638269901276,-0.012782796286046505,-0.045671865344047546
1696958515608149500,10.8291494140625,-0.20891882479190826,-0.08628387749195099,0.07363422960042953
1696958515618163200,10.8391630859375,-0.20998406410217285,-0.07669677585363388,-0.050998032093048096
1696958515628176600,10.8491767578125,-0.21957115828990936,-0.02769605815410614,0.011850717477500439
1696958515638190300,10.8591904296875,-0.21211452782154083,-0.0639139786362648,0.020372580736875534
1696958515648203800,10.869203857421875,-0.2057231217622757,-0.06497921794652939,-0.008388710208237171
1696958515658217500,10.879217529296875,-0.22276686131954193,0.0053261648863554,-0.016910573467612267
1696958515668231200,10.889231201171874,-0.2057231217622757,-0.06924014538526535,0.03209014609456062
1696958515678244600,10.89924462890625,-0.20891882479190826,-0.04687025398015976,-0.025432437658309937
1696958515688258300,10.90925830078125,-0.2163754552602768,-0.0010652330238372087,-0.022236740216612816
1696958515698271700,10.919271728515625,-0.19933173060417175,-0.09267527610063553,0.044872939586639404
1696958515708285400,10.929285400390626,-0.2153102308511734,-0.02450035884976387,-0.06910699605941772
1696958515718299100,10.939299072265625,-0.21104928851127625,0.0031956990715116262,0.020372580736875534
1696958515728312600,10.9493125,-0.19187510013580322,-0.1374150663614273,0.015046416781842709
1696958515738326300,10.959326171875,-0.20998406410217285,-0.02663082629442215,-0.07443315535783768
1696958515748339700,10.969339599609375,-0.2057231217622757,-0.05858781561255455,0.036351077258586884
1696958515758353400,10.979353515625,-0.19080986082553864,-0.15339355170726776,-0.020106272771954536
1696958515768367000,10.9893671875,-0.20891882479190826,-0.03408745676279068,-0.043541401624679565
1696958515778380500,10.999380615234376,-0.19613602757453918,-0.1065233051776886,0.028894444927573204
1696958515788394200,11.009394287109375,-0.19826649129390717,-0.1278279572725296,-0.014780107885599136
1696958515798407700,11.01940771484375,-0.21211452782154083,-0.01917419396340847,-0.03608476743102074
1696958515808421400,11.02942138671875,-0.19826649129390717,-0.1065233051776886,0.031024912372231483
1696958515818435000,11.03943505859375,-0.20785360038280487,-0.06817491352558136,-0.013714875094592571
1696958515828448500,11.049448486328124,-0.22063638269901276,0.012782796286046505,-0.031823836266994476
1696958515838462200,11.059462158203125,-0.20252743363380432,-0.07669677585363388,0.04913387447595596
1696958515848475600,11.0694755859375,-0.2163754552602768,-0.0106523297727108,-0.057389430701732635
1696958515858489300,11.0794892578125,-0.21850591897964478,0.04154408723115921,0.011850717477500439
1696958515868503000,11.0895029296875,-0.21211452782154083,-0.04687025398015976,0.021437814459204674
1696958515878516500,11.0995166015625,-0.22063638269901276,0.0031956990715116262,-0.06271559745073318
1696958515888530200,11.1095302734375,-0.20785360038280487,-0.0031956990715116262,0.050199106335639954
1696958515898543600,11.119543701171875,-0.2142449915409088,-0.06604444980621338,-0.031823836266994476
1696958515908557300,11.129557373046875,-0.20998406410217285,-0.02769605815410614,-0.017975807189941406
1696958515918571000,11.139571044921874,-0.19720126688480377,-0.07243584841489792,0.043807707726955414
1696958515928584400,11.14958447265625,-0.20891882479190826,-0.09906667470932007,-0.055258963257074356
1696958515938598100,11.15959814453125,-0.19826649129390717,-0.03621792420744896,0.047003407031297684
1696958515948611600,11.169611572265625,-0.1950708031654358,-0.13634982705116272,0.0001331541279796511
1696958515958625300,11.179625244140626,-0.21211452782154083,-0.01384802907705307,-0.03928046673536301
1696958515968639000,11.189638916015625,-0.1950708031654358,-0.06817491352558136,0.06511236727237701
1696958515978652400,11.19965234375,-0.2057231217622757,-0.05432688444852829,-0.029693370684981346
1696958515988666000,11.209666015625,-0.19933173060417175,-0.01810896210372448,-0.0009320789249613881
1696958515998679600,11.219679443359375,-0.19294032454490662,-0.04473978653550148,0.058720968663692474
1696958516008693200,11.229693359375,-0.20359265804290771,-0.01917419396340847,-0.052063263952732086
1696958516018707000,11.23970703125,-0.18867939710617065,-0.0021304660476744175,0.03954677656292915
1696958516028720400,11.249720458984376,-0.18548369407653809,-0.05006595328450203,0.021437814459204674
1696958516038734000,11.259734130859375,-0.19187510013580322,0.01810896210372448,-0.052063263952732086
1696958516048747500,11.26974755859375,-0.16843996942043304,-0.02023942768573761,0.08535179495811462
1696958516058761200,11.27976123046875,-0.1822880059480667,-0.04900071769952774,-0.06697652488946915
1696958516068775000,11.28977490234375,-0.1716356724500656,0.02556559257209301,0.03528584539890289
1696958516078788400,11.299788330078124,-0.15672241151332855,-0.07882724702358246,0.020372580736875534
1696958516088802000,11.309802001953125,-0.16524426639080048,-0.01384802907705307,-0.060585130006074905
1696958516098815500,11.3198154296875,-0.14926578104496002,-0.012782796286046505,0.05978620424866676
1696958516108829200,11.3298291015625,-0.14926578104496002,-0.03728315606713295,-0.022236740216612816
1696958516118843000,11.3398427734375,-0.15033100545406342,0.01491326279938221,-0.038215234875679016
1696958516128856300,11.349856201171875,-0.1311568170785904,-0.02663082629442215,0.06298190355300903
1696958516138870000,11.3598701171875,-0.1396786868572235,-0.0159784946590662,-0.06804175674915314
1696958516148883500,11.369883544921874,-0.1300915777683258,0.004260932095348835,0.016111649572849274
1696958516158897200,11.379897216796875,-0.11837401986122131,-0.04047885537147522,0.011850717477500439
1696958516168910800,11.389910888671874,-0.13222205638885498,0.03089175745844841,-0.060585130006074905
1696958516178924300,11.39992431640625,-0.11624355614185333,0.012782796286046505,0.024633513763546944
1696958516188938000,11.40993798828125,-0.10559122264385223,-0.04047885537147522,-0.006258244160562754
1696958516198951400,11.419951416015625,-0.12263495475053787,0.06284874677658081,-0.06271559745073318
1696958516208965000,11.429965087890626,-0.10559122264385223,-0.004260932095348835,0.048068638890981674
1696958516218978800,11.439978759765625,-0.0981345921754837,-0.02343512699007988,-0.04993279650807381
1696958516228992300,11.4499921875,-0.10772168636322021,0.07882724702358246,-0.031823836266994476
1696958516239006000,11.460005859375,-0.09174319356679916,-0.02023942768573761,0.029959678649902344
1696958516249019600,11.47001953125,-0.09280842542648315,0.02023942768573761,-0.05312849581241608
1696958516259033000,11.480033203125,-0.0981345921754837,0.05539211630821228,-0.020106272771954536
1696958516269046800,11.490046875,-0.07896039634943008,0.01704372838139534,0.026763979345560074
1696958516279060200,11.500060302734376,-0.08109086751937866,-0.01810896210372448,-0.061650361865758896
1696958516289074000,11.510073974609375,-0.08854749798774719,0.08628387749195099,-0.023301972076296806
1696958516299087600,11.520087646484376,-0.06830807030200958,-0.02343512699007988,0.036351077258586884
1696958516309101000,11.53010107421875,-0.07043853402137756,0.0106523297727108,-0.07656362652778625
1696958516319114800,11.54011474609375,-0.07469946891069412,0.02556559257209301,0.022503048181533813
1696958516329128200,11.550128173828124,-0.058720968663692474,-0.04473978653550148,-0.016910573467612267
1696958516339142000,11.560141845703125,-0.058720968663692474,0.02450035884976387,-0.016910573467612267
1696958516349155600,11.570155517578126,-0.066177599132061,-0.0106523297727108,-0.025432437658309937
1696958516359169000,11.5801689453125,-0.04593817517161369,-0.02450035884976387,0.017176883295178413
1696958516369182700,11.5901826171875,-0.050199106335639954,-0.0159784946590662,-0.029693370684981346
1696958516379196200,11.600196044921875,-0.05659050494432449,0.02450035884976387,-0.025432437658309937
1696958516389209900,11.6102099609375,-0.040612008422613144,-0.04367455467581749,0.044872939586639404
1696958516399223600,11.6202236328125,-0.044872939586639404,-0.004260932095348835,-0.07656362652778625
1696958516409237000,11.630237060546875,-0.04593817517161369,0,0.033155377954244614
1696958516419250700,11.640250732421874,-0.036351077258586884,-0.03089175745844841,-0.019041040912270546
1696958516429264100,11.65026416015625,-0.033155377954244614,-0.012782796286046505,0.007589785382151604
1696958516439277800,11.66027783203125,-0.041677240282297134,-0.01704372838139534,-0.025432437658309937
1696958516449291500,11.67029150390625,-0.028894444927573204,-0.02663082629442215,0.029959678649902344
1696958516459305000,11.680304931640626,-0.029959678649902344,0.004260932095348835,0.0011983871227130294
1696958516469318700,11.690318603515625,-0.03954677656292915,-0.02023942768573761,-0.013714875094592571
1696958516479332000,11.70033203125,-0.026763979345560074,-0.0213046595454216,0.04913387447595596
1696958516489345800,11.710345703125,-0.024633513763546944,-0.02236989326775074,-0.0030625448562204838
1696958516499359500,11.720359375,-0.034220609813928604,-0.02343512699007988,0.0001331541279796511
1696958516509373000,11.730373046875,-0.025698747485876083,-0.05219641700387001,0.034220609813928604
1696958516519386600,11.74038671875,-0.017176883295178413,-0.02450035884976387,0.020372580736875534
1696958516529400000,11.750400146484376,-0.033155377954244614,-0.03302222490310669,-0.020106272771954536
1696958516539413800,11.760413818359375,-0.029959678649902344,0.0010652330238372087,0.037416309118270874
1696958516549427500,11.770427490234376,-0.020372580736875534,-0.03408745676279068,0.010785484686493874
1696958516559441000,11.78044091796875,-0.03209014609456062,0.01491326279938221,-0.001997311832383275
1696958516569454600,11.79045458984375,-0.036351077258586884,-0.007456631399691105,0.004394086077809334
1696958516579468000,11.800468017578124,-0.023568280041217804,0.01384802907705307,0.04274247586727142
1696958516589481700,11.810481689453125,-0.034220609813928604,-0.004260932095348835,-0.038215234875679016
1696958516599495400,11.820495361328126,-0.03954677656292915,0.02236989326775074,0.027829213067889214
1696958516609508900,11.8305087890625,-0.028894444927573204,-0.0159784946590662,-0.005193010903894901
1696958516619522600,11.8405224609375,-0.037416309118270874,0.02556559257209301,-0.006258244160562754
1696958516629536000,11.850535888671875,-0.03954677656292915,-0.04154408723115921,-0.008388710208237171
1696958516639549700,11.8605498046875,-0.031024912372231483,-0.02876129187643528,0.008655018173158169
1696958516649563400,11.8705634765625,-0.033155377954244614,-0.02450035884976387,-0.025432437658309937
1696958516659576800,11.880576904296875,-0.043807707726955414,-0.05645735189318657,-0.017975807189941406
1696958516669590500,11.890590576171874,-0.033155377954244614,-0.04793548583984375,0.007589785382151604
1696958516679604000,11.90060400390625,-0.03848154470324516,-0.02450035884976387,-0.030758604407310486
1696958516689617700,11.91061767578125,-0.04593817517161369,-0.03621792420744896,-0.026497671380639076
1696958516699631400,11.92063134765625,-0.041677240282297134,-0.0319569893181324,0.012915950268507004
1696958516709644800,11.930644775390626,-0.044872939586639404,0.0053261648863554,-0.03928046673536301
1696958516719658500,11.940658447265625,-0.05232957378029823,-0.0063913981430232525,-0.009453942999243736
1696958516729672000,11.950671875,-0.051264338195323944,-0.0010652330238372087,-0.011584409512579441
1696958516739685600,11.960685546875,-0.050199106335639954,0.0010652330238372087,0.0001331541279796511
1696958516749699300,11.97069921875,-0.05978620424866676,0.01917419396340847,-0.03928046673536301
1696958516759712800,11.980712646484376,-0.05659050494432449,-0.0106523297727108,0.026763979345560074
1696958516769726500,11.9907265625,-0.050199106335639954,-0.0213046595454216,-0.016910573467612267
1696958516779740000,12.000739990234376,-0.061916667968034744,0.0063913981430232525,-0.021171506494283676
1696958516789753600,12.010753662109375,-0.05978620424866676,-0.01704372838139534,0.011850717477500439
1696958516799767300,12.020767333984375,-0.050199106335639954,-0.05645735189318657,0.015046416781842709
1696958516809780700,12.03078076171875,-0.06511236727237701,-0.0021304660476744175,-0.043541401624679565
1696958516819794400,12.04079443359375,-0.06298190355300903,-0.04367455467581749,0.03848154470324516
1696958516829807900,12.050807861328124,-0.057655736804008484,-0.04047885537147522,-0.010519175790250301
1696958516839821600,12.060821533203125,-0.06830807030200958,-0.009587096981704235,0.005459319334477186
1696958516849835300,12.070835205078126,-0.07363422960042953,-0.02769605815410614,-0.007323476951569319
1696958516859848700,12.0808486328125,-0.06404713541269302,-0.05113118514418602,0.03848154470324516
1696958516869862400,12.0908623046875,-0.07576470077037811,-0.004260932095348835,-0.03288906812667847
1696958516879875800,12.100875732421875,-0.08002562820911407,-0.03089175745844841,0.03528584539890289
1696958516889889500,12.1108896484375,-0.07150376588106155,-0.05965305119752884,-0.015845341607928276
1696958516899903200,12.1209033203125,-0.08215609937906265,-0.0021304660476744175,0.016111649572849274
1696958516909916700,12.130916748046875,-0.08961272984743118,-0.03515268862247467,-0.035019535571336746
1696958516919930400,12.140930419921874,-0.08002562820911407,-0.03302222490310669,0.03848154470324516
1696958516929943800,12.15094384765625,-0.08641702681779861,-0.02769605815410614,-0.028628136962652206
1696958516939957500,12.16095751953125,-0.09387365728616714,-0.009587096981704235,-0.019041040912270546
1696958516949971200,12.17097119140625,-0.08215609937906265,-0.05006595328450203,0.026763979345560074
1696958516959984600,12.180984619140625,-0.0874822586774826,-0.03302222490310669,-0.042476166039705276
1696958516969998300,12.190998291015624,-0.09493889659643173,-0.02663082629442215,0.0011983871227130294
1696958516980011800,12.20101171875,-0.08961272984743118,-0.05752258375287056,-0.021171506494283676
1696958516990025500,12.211025390625,-0.07896039634943008,-0.0639139786362648,0.013981183059513569
1696958517000039200,12.2210390625,-0.10133028775453568,-0.04367455467581749,-0.06697652488946915
1696958517010052600,12.231052490234376,-0.0874822586774826,-0.05965305119752884,0.03848154470324516
1696958517020066300,12.24106640625,-0.08641702681779861,-0.07989247888326645,-0.03928046673536301
1696958517030079700,12.251079833984376,-0.10346075892448425,-0.01810896210372448,-0.037150003015995026
